time,seconds_elapsed,z,y,x
1783246137543349200,0.060349365234375,-11.477236941599845,-3.1070766657724973,-8.964493657693266
1783246137553361200,0.070361083984375,-8.660465118166805,-2.458079673565924,-8.000794171732664
1783246137563373300,0.080373291015625,-6.258799113479256,-1.7454957598507403,-5.412379853031039
1783246137573384200,0.09038427734375,-3.709910749480128,-0.12081629068404436,-1.7775272671446203
1783246137583396000,0.10039599609375,-1.7140139953941105,1.0658818033233284,1.2514302400283515
1783246137593408300,0.110408203125,-1.5064134474873543,1.1563131848767398,2.364847701508552
1783246137603420200,0.120420166015625,-2.1999738040417434,1.0887380705147982,1.8498498682945965
1783246137613432000,0.13043212890625,-2.9474434454381466,0.9990028545320033,0.8335077564269304
1783246137623443500,0.140443359375,-3.5960143211871385,0.5695251038238406,-0.08008154471367597
1783246137633455400,0.150455322265625,-3.263907688167691,0.041670565515756604,-0.9660695760928094
1783246137643467300,0.16046728515625,-1.6574708549171686,-0.04562894775271415,-1.3205218964330852
1783246137653479400,0.1704794921875,1.0577928971529007,0.0790454796642065,-1.2331526789292693
1783246137663491300,0.1804912109375,3.689033381146192,-0.07313625562041998,-0.9681057580955326
1783246137673502200,0.190502197265625,5.907407349753379,-0.1430629015445709,-0.5507661158833652
1783246137683514400,0.200514404296875,7.594312973469496,0.16598463518768547,-0.008813640248402952
1783246137693526300,0.2105263671875,8.584963594719767,0.5354474776551127,0.5626354173753411
1783246137703538200,0.2205380859375,9.169772484654187,0.9092880968153476,0.9909788302913307
1783246137713549300,0.23054931640625,9.537943533745407,1.2667290775775908,1.253136897815764
1783246137723561200,0.240561279296875,9.60252268116176,1.6314081928998232,1.3367938167981803
1783246137733573000,0.250572998046875,9.433765950912237,2.0165347607061266,1.2586276041865347
1783246137743585300,0.260585205078125,8.995589637702704,2.2681977377012372,1.0875262835722417
1783246137753597200,0.27059716796875,8.346101062586904,2.3707801602974534,1.0189695377618073
1783246137763608300,0.2806083984375,7.991756878796219,2.2896721951454877,0.961721683081612
1783246137773620500,0.290620361328125,8.062362446895241,2.1002482321813702,0.8297928275570273
1783246137783632400,0.30063232421875,8.610687818562983,1.878663290324807,0.7018553066909313
1783246137793644300,0.310644287109375,8.933422812125086,1.7320979336172342,0.7160407761707902
1783246137803656400,0.320656494140625,8.631772692167758,1.9047905420109628,1.3193027299016713
1783246137813667300,0.330667236328125,7.315085697722434,2.3361256110236046,2.28248783659935
1783246137823679200,0.34067919921875,5.6440551040083164,2.97279094492346,3.347333574873209
1783246137833691400,0.35069140625,4.820692894020676,3.713268243214488,4.143553803174197
1783246137843703300,0.360703369140625,5.626213157847523,4.574456033727526,2.949771596124768
1783246137853714200,0.370714111328125,6.22350626630187,5.1375908519923685,1.9783885699242352
1783246137863726300,0.380726318359375,6.0049359960913655,4.931718150791526,3.030121144124865
1783246137873738200,0.39073828125,7.183956979599595,4.0102588469281795,3.4334576146215197
1783246137883750100,0.400750244140625,7.19619979057908,2.991462327645719,2.8355039964318274
1783246137893762300,0.41076220703125,5.739036403951048,3.569944352646172,2.9672067150503394
1783246137903773200,0.420773193359375,3.915443843463063,4.067384171207249,2.8980986920326948
1783246137913785300,0.430785400390625,0.06818740104138851,3.325609526582062,1.2860045636728406
1783246137923797200,0.44079736328125,-1.853198594200611,2.384075987461209,-0.2649021055355668
1783246137933809400,0.450809326171875,-1.9858435621052979,2.050818430840969,-1.7075770942144095
1783246137943821300,0.4608212890625,-2.3991373629927635,1.9369599964708089,-2.5479835241138935
1783246137953832400,0.47083251953125,-1.0258937840670346,2.4325229152441024,-2.1823681508548556
1783246137963844400,0.48084423828125,-1.8790005594551562,1.5285165582239626,-0.5953646246097981
1783246137973856300,0.490856201171875,-4.236042409518361,-0.436426254671812,0.5310556724369525
1783246137983868400,0.500868408203125,-5.560375534802675,-0.808599525141716,-0.2689073956541717
1783246137993879300,0.51087939453125,-8.234818616184592,-1.9060650919914244,-2.804842316186428
1783246138003891200,0.52089111328125,-8.998477175837754,-2.9752409684240817,-5.082721197685599
1783246138013903400,0.5309033203125,-8.829557363981008,-3.002450462388992,-4.053081212827563
1783246138023915300,0.540915283203125,-6.589772943076491,-3.200100109645724,-0.6263612358979881
1783246138033927200,0.55092724609375,-2.9072388608217237,-4.296828009870648,0.7630966149214655
1783246138043938000,0.56093798828125,-0.7913906161874532,-5.9928919225543735,0.270424449153617
1783246138053950200,0.5709501953125,-0.6896878990352153,-6.609779958316683,-0.16998481073975563
1783246138063962000,0.580962158203125,-1.571990958291292,-5.485780020284652,-0.8475660923957824
1783246138073974300,0.590974365234375,-2.822786553677916,-5.216734531334042,-2.043078484238684
1783246138083986200,0.600986083984375,-5.118049700698256,-4.038753412267566,-3.3065432993233204
1783246138093997300,0.610997314453125,-8.001523655050992,-0.8937982667386531,-3.779576698641479
1783246138104009500,0.621009521484375,-9.726661102005838,-0.2943359975516796,-7.104207151058316
1783246138114021400,0.631021484375,-8.649490719687938,-0.12006605683863163,-11.105167716026305
1783246138124033300,0.641033203125,-5.460704615738988,-1.9668030538097023,-13.843388565313814
1783246138134045400,0.65104541015625,-2.752555079588294,-3.3064129509419202,-13.771553163158893
1783246138144056300,0.661056396484375,-1.0273416447877883,-2.0786483947917818,-11.623559137201308
1783246138154068200,0.671068115234375,-0.6003560031563043,-0.0029679098948836324,-8.6026956507653
1783246138164080400,0.681080322265625,-2.0063480054736136,1.9756632366135716,-5.118845234990119
1783246138174092300,0.69109228515625,-3.2801714252263308,3.119531658197939,-2.283000462296605
1783246138184104200,0.701104248046875,-2.9195594132125375,3.434894953948259,-0.6261445244073868
1783246138194115000,0.711114990234375,-1.7460732674777506,2.469104048666358,-0.5642600229024887
1783246138204127200,0.721127197265625,-0.6183189453482627,3.871394273856282,0.9510904720172285
1783246138214139100,0.73113916015625,-1.5549433773785828,-1.8631522713296114,0.4099094191461801
1783246138224151300,0.7411513671875,-1.99503399977684,-9.015729923933744,-1.127901621645689
1783246138234162400,0.751162353515625,-3.0943109999626874,-7.0241153772115705,1.0745429564237594
1783246138244174300,0.76117431640625,-2.3549720580518243,-4.5090983031541105,3.2898820873796937
1783246138254186500,0.7711865234375,-0.2095955211162567,-4.110925499030947,5.0517988206774
1783246138264198400,0.781198486328125,1.1966115852564572,-3.515111230957508,5.23333787561059
1783246138274210300,0.791210205078125,3.031953035727143,-2.3033495689727363,4.843091772833466
1783246138284221200,0.80122119140625,4.69815372506678,-1.9492918009079991,5.214211734858155
1783246138294233300,0.8112333984375,5.748550666749477,-2.151096375887096,5.105296602109075
1783246138304245200,0.821245361328125,6.344317004027962,-1.7707213865220546,5.409344430857897
1783246138314257400,0.83125732421875,6.811876648110151,-1.163551027175784,6.006802374485135
1783246138324269300,0.841269287109375,7.1378118990182875,-0.836278463249281,6.2592135394990445
1783246138334280200,0.8512802734375,8.045014421731233,-0.007150054417736828,5.988381167131662
1783246138344292000,0.8612919921875,8.532660576030612,-0.10996964677069336,6.998897933846711
1783246138354304000,0.871303955078125,7.819543286091089,-0.10096771740857512,8.387923019272089
1783246138364316200,0.881316162109375,7.475189750438928,0.12464282670225947,7.605766095376015
1783246138374328000,0.891328125,7.874492435374855,-0.4982458377143368,6.123251409870385
1783246138384339200,0.901339111328125,8.492947574323415,-0.645619843923673,5.769865841978788
1783246138394351400,0.911351318359375,8.615267547568678,-0.6325106253731996,5.474978055763244
1783246138404363300,0.92136328125,8.082107596328854,-0.8786144338712095,5.151010305535793
1783246138414375200,0.931375244140625,7.758146275842189,-1.0646827297318726,4.86588549618274
1783246138424386300,0.94138623046875,7.7685215393841265,-1.3056689029552042,4.471600639408827
1783246138434398200,0.951398193359375,7.430803496223688,-1.7480109575420617,3.7297237034529447
1783246138444410000,0.96141015625,7.1824518357336515,-2.441194297477603,2.425982992081344
1783246138454422300,0.97142236328125,6.656548139232397,-2.711377558286488,1.7919196573734282
1783246138464434200,0.98143408203125,5.903849365010857,-2.242974887508899,2.1568074470102787
1783246138474445000,0.991445068359375,5.716496070840955,-1.479990135464072,3.7212756085813044
1783246138484457200,1.001457275390625,3.181590054965019,-2.048736363869905,3.8625007733047005
1783246138494469000,1.01146923828125,2.8121757278144357,-1.7928959550596772,3.516042958849668
1783246138504481000,1.02148095703125,3.287745075351,-1.4061109525218605,2.7266537456125017
1783246138514493200,1.0314931640625,4.176600624990463,-1.571439169627428,2.0661638840109107
1783246138524504000,1.041504150390625,4.261211337566375,-1.592571389505267,1.4248463403910399
1783246138534516200,1.05151611328125,1.8357248968303201,-1.1824015658572316,1.0251637162268161
1783246138544528100,1.061528076171875,-2.0983196022063493,-0.35301235066503284,0.08758417542874812
1783246138554540000,1.0715400390625,-4.329444915837049,0.5278450398273766,-2.9833523786872624
1783246138564552200,1.08155224609375,-5.339760022500157,1.3675171641029418,-6.553292347419261
1783246138574563300,1.091563232421875,-6.607206892958283,2.9643881504982708,-8.537896723118424
1783246138584575200,1.1015751953125,-9.539938506954908,3.6327392469942565,-10.100419011318683
1783246138594587100,1.111587158203125,-14.11464413152933,2.578788119961321,-12.733024938446283
1783246138604599300,1.121599365234375,-18.775750274705885,2.6308716506808993,-16.67291524090171
1783246138614610200,1.131610107421875,-23.25897705450058,3.861911282978952,-19.83693106073141
1783246138624622000,1.1416220703125,-29.254623828721044,3.712150929622352,-21.64988649187088
1783246138634634200,1.15163427734375,-33.31904301264286,3.569799975739419,-22.961941734862325
1783246138644646100,1.161646240234375,-30.95650373420715,4.743664014875889,-22.89440373764038
1783246138654658000,1.171657958984375,-24.0923322507143,4.945211254093051,-20.11099467010498
1783246138664669000,1.1816689453125,-16.57307071883678,4.0085537965759634,-16.01028836727142
1783246138674681000,1.19168115234375,-11.038176831293105,3.4133220045655963,-11.999881344044208
1783246138684693000,1.20169287109375,-8.093259689462185,3.2432050918787714,-8.20613671157956
1783246138694705200,1.211705078125,-6.9955462853312484,3.3001372316733,-5.644203572568297
1783246138704717000,1.221717041015625,-6.780200237864255,2.5457357451871037,-5.599900320461392
1783246138714728200,1.231728271484375,-5.59138208296299,0.8270293541930616,-6.539622718507051
1783246138724740400,1.241740234375,-2.4069769705772397,-0.9721279262837021,-6.164600488346815
1783246138734752300,1.251752197265625,1.2110375854939222,-2.8790809800907966,-4.643932305535674
1783246138744764200,1.26176416015625,4.950252755391597,-4.346643595658242,-1.9288819039553402
1783246138754776300,1.2717763671875,8.159988123866915,-5.065142286375164,1.9645529367953538
1783246138764787200,1.281787109375,11.068906316077708,-3.919897900262475,4.194136866202951
1783246138774799000,1.291799072265625,13.186568332135677,-3.128797206932306,7.279778822019696
1783246138784811300,1.301811279296875,13.585593369174003,-2.3912074467763302,10.845004037189483
1783246138794823200,1.3118232421875,12.418995229387283,-1.1025508342247456,13.06675537327528
1783246138804834000,1.321833984375,10.229940878766774,0.04752520982809365,14.409217444968222
1783246138814846000,1.331845947265625,7.896910603410005,0.6817458539895713,15.792960790598391
1783246138824858000,1.341858154296875,5.643070184624195,1.1044773453079164,16.59622713801861
1783246138834870000,1.3518701171875,4.0897950327187775,1.4822443441316484,16.354765821564197
1783246138844882200,1.361882080078125,3.2030063524812458,1.7419480042412876,15.816905145287512
1783246138854893300,1.371893310546875,2.694140884542465,1.7922573648951947,14.960082564246653
1783246138864905200,1.3819052734375,2.554403328028321,1.4320293837629259,13.762460340642928
1783246138874917000,1.391917236328125,3.040584670472145,0.9595618016339837,12.075137368297575
1783246138884929300,1.40192919921875,3.489664655011892,0.2300521067548543,9.824101485538483
1783246138894941200,1.411941162109375,3.7423441155731676,-0.6315210298139602,7.7431573810249565
1783246138904952000,1.4219521484375,3.743219729363918,-1.2549256809286773,6.798013542452455
1783246138914964200,1.431964111328125,3.558992458260059,-1.4575716751679777,6.798114080217481
1783246138924976000,1.44197607421875,3.220410491746664,-1.2344880191862582,7.329017192441224
1783246138934988300,1.45198828125,2.9003929404497146,-0.8732738765608519,7.898492319643497
1783246138945000200,1.462000244140625,2.595226921325922,-0.7796187837205827,7.980170485898852
1783246138955011000,1.472010986328125,2.5154455286026,-1.110488130030036,7.412464706456661
1783246138965023000,1.48202294921875,2.3963918636769055,-1.4993255350530146,6.993512733677029
1783246138975035100,1.49203515625,1.8785539847314356,-1.7300426085226237,6.886033771210909
1783246138985047000,1.502047119140625,1.3753712386041879,-2.1057934452183544,6.863101808434725
1783246138995058200,1.51205810546875,1.1696510976165533,-2.559054953226447,6.889321706840396
1783246139005070300,1.5220703125,1.3202929099828005,-3.360429495550692,6.771521256846189
1783246139015082200,1.532082275390625,1.5630489424228666,-4.674414537560939,6.531925734263658
1783246139025094100,1.54209423828125,2.062161078110337,-6.1860191239506,6.135125387537479
1783246139035106300,1.552106201171875,2.8966017314732073,-7.475753814062475,5.431935617372393
1783246139045117200,1.5621171875,4.21108917004764,-8.487019353318214,4.091249907702207
1783246139055129000,1.572129150390625,5.344280714794993,-9.440332469820977,3.0073990247070785
1783246139065141200,1.582141357421875,5.360280832481384,-9.761785022357106,2.5987352217078206
1783246139075153200,1.592153076171875,3.980278426945209,-9.051455317309498,2.561419344270229
1783246139085165300,1.602165283203125,1.7268384056538342,-6.783600401696562,2.0207249058723447
1783246139095176200,1.61217626953125,-0.7958405813336372,-4.089748270967602,0.5619961696237326
1783246139105188000,1.62218798828125,-4.189141542133688,-2.839240260350704,-0.03485328671634197
1783246139115200000,1.632199951171875,-9.510423658657073,-0.8656039995200931,-1.4623305601328611
1783246139125212200,1.642212158203125,-13.106502861773967,3.239102917256951,-5.6887546619564295
1783246139135224000,1.65222412109375,-14.32270586720705,4.852229895795881,-10.33254317510724
1783246139145235000,1.66223486328125,-15.239215147447585,1.801653700402379,-13.948999980342387
1783246139155247000,1.6722470703125,-17.41287202244997,1.7545374367013573,-16.674135722607375
1783246139165259000,1.682259033203125,-22.87043834016323,7.676468109586835,-17.360211276364325
1783246139175271000,1.69227099609375,-28.399292947542666,13.428907600468396,-15.656993984794616
1783246139185283000,1.702282958984375,-30.891631156802177,14.888226119303702,-13.847266283529995
1783246139195294200,1.712294189453125,-31.483373060870168,13.912612323665618,-14.238179325783252
1783246139205306000,1.72230615234375,-30.341434730565545,14.109729471480845,-15.815614520955085
1783246139215318300,1.732318359375,-25.641586476540564,14.845070868188142,-16.441940247148274
1783246139225330200,1.742330078125,-18.453885634237526,14.537631058913469,-15.047249975568056
1783246139235342300,1.75234228515625,-11.379963146805762,12.4968441927433,-12.728884185379743
1783246139245353200,1.762353271484375,-6.293958689665794,8.819525214788317,-11.619259394180775
1783246139255365000,1.772365234375,-2.720581147700548,5.23298423986733,-12.075904261016845
1783246139265377000,1.782376953125,-0.12072364396452903,2.6855148027554154,-11.73653786612749
1783246139275389200,1.79238916015625,2.036575385954976,0.2279835568524897,-10.385132609522342
1783246139285401000,1.802401123046875,4.763928804269432,-2.563620361445844,-9.044871262744069
1783246139295412000,1.812411865234375,8.390651567453146,-5.142692559045553,-7.589334016013145
1783246139305424100,1.822424072265625,12.194942143851518,-7.146559269097447,-5.385021890506148
1783246139315436000,1.83243603515625,15.238547623449563,-8.392707915461063,-1.7235709282904863
1783246139325448000,1.842447998046875,16.72218459098339,-7.834470806109905,1.7142741076350212
1783246139335459600,1.85245947265625,16.20134636117816,-6.504339223679899,5.07721850861609
1783246139345471700,1.8624716796875,13.91113465232849,-5.466844433668255,7.677140309759974
1783246139355483600,1.872483642578125,10.847239248895644,-3.9972047195658087,9.306218598407506
1783246139365495600,1.88249560546875,8.338561314731836,-2.4904759225189683,10.946701493644714
1783246139375507700,1.8925078125,6.477173568856716,-1.537253699170053,12.422219452130793
1783246139385518600,1.9025185546875,5.179170232093334,-0.7342473178602754,13.354089967632293
1783246139395530500,1.912530517578125,5.024672913342714,0.04322513801399618,14.212633381116389
1783246139405542700,1.922542724609375,6.025893443924188,0.5498595589650794,14.763421343505382
1783246139415554600,1.932554443359375,7.406869662928581,0.8377304156232624,14.60558757380843
1783246139425566500,1.94256640625,8.399652620032429,0.9315724824029952,14.191957672834395
1783246139435577600,1.95257763671875,9.16322350140214,0.9074404231220483,13.588333607792853
1783246139445589500,1.962589599609375,9.529861934098601,0.7774482347484678,12.740194683945179
1783246139455601400,1.972601318359375,9.343350935971737,0.42507476650886233,11.713042424249648
1783246139465613600,1.982613525390625,9.062862261986732,0.1660701763129793,10.779701251673698
1783246139475625500,1.99262548828125,8.696943960258364,0.13204254503212867,10.06375779839754
1783246139485636400,2.00263623046875,7.871563396185636,0.07182383958129211,9.293675343176721
1783246139495648500,2.0126484375,6.710718705359101,0.21528237111363557,8.655072903734444
1783246139505660400,2.022660400390625,7.04461222179532,0.27878756915554403,7.830587827196717
1783246139515672300,2.03267236328125,3.3962264928579327,-0.20805333317555486,7.835386751911043
1783246139525683700,2.04268359375,0.323655031016469,0.03663154843524098,7.542743529751896
1783246139535695600,2.052695556640625,0.32961072455048557,0.3397044677373022,6.40577246646583
1783246139545707500,2.06270751953125,0.7242366498470306,-0.2708865867726505,5.156396674749255
1783246139555719700,2.0727197265625,0.16511340531110763,-1.324683107765764,3.9809693318188186
1783246139565731600,2.082731689453125,0.12712240509092806,-2.2374660609595476,3.6215649420291185
1783246139575742500,2.092742431640625,-0.1688788953244686,-3.1099425765976307,4.368841691201925
1783246139585754600,2.102754638671875,-0.9491565813452005,-4.206957769331336,5.196347576865554
1783246139595766500,2.1127666015625,-1.6451467953950165,-4.883806352798641,5.112150705787539
1783246139605778400,2.1227783203125,-2.3026047419548035,-5.273692682352662,4.584578199291229
1783246139615790600,2.13279052734375,-2.589572256565094,-5.781801194444299,4.404767575585842
1783246139625801500,2.142801513671875,-2.032729816442728,-6.210746153450012,4.2465065203875305
1783246139635813400,2.1528134765625,-1.09449736469388,-6.290989902988076,3.8364562314659354
1783246139645825500,2.162825439453125,-0.3567810555487871,-5.938230358040332,3.6907635659396645
1783246139655837400,2.17283740234375,0.07767828296422957,-5.340507625997066,3.7324937526881694
1783246139665849300,2.182849365234375,0.4223240795612335,-4.5391550032436845,3.731979373425245
1783246139675860500,2.192860595703125,0.7708639609873295,-3.388827322517335,3.266318840962648
1783246139685872600,2.20287255859375,0.39803953313231466,-2.193682448812574,1.7492641724735498
1783246139695884500,2.212884521484375,-1.2227601719915866,-1.4604624281734226,-0.6146861418038606
1783246139705896700,2.222896728515625,-3.3236171837210655,-1.082025275003165,-4.173906563600897
1783246139715908600,2.23290869140625,-5.216210215198993,-0.392020053647086,-7.791513707914948
1783246139725919500,2.24291943359375,-5.468008801272511,1.113242689435184,-11.28964516249895
1783246139735931600,2.252931640625,-5.993097674259543,4.082688123323023,-13.884164812338351
1783246139745943600,2.262943603515625,-8.698195421624183,8.471485099577903,-15.067674339437485
1783246139755955500,2.27295556640625,-12.634699004250765,12.311081967157124,-16.695635606753825
1783246139765966300,2.28296630859375,-19.39592566157579,14.756950686186551,-20.974579000365733
1783246139775978500,2.292978515625,-31.91032655379772,13.708530013012885,-27.496017242884633
1783246139785990400,2.302990478515625,-42.45759852125644,12.97156364545226,-34.877497613012785
1783246139796002600,2.31300244140625,-41.8002685849905,15.285727892297505,-36.42277475190163
1783246139806014500,2.323014404296875,-34.361137989926334,14.948518383181094,-29.785926169395445
1783246139816025600,2.333025634765625,-25.34334236563444,12.39365269833803,-20.201230821347234
1783246139826037500,2.34303759765625,-16.60575250673294,10.326384652477502,-12.410002944636345
1783246139836049700,2.353049560546875,-10.1724134034276,7.708896214982866,-6.9719929757863275
1783246139846061600,2.3630615234375,-5.760035937359929,4.783579845678806,-3.5195021593928333
1783246139856073700,2.37307373046875,-2.640652455461025,2.257726174177974,-1.3580056777834892
1783246139866084600,2.383084716796875,-0.2040273655951023,-0.01789221504330635,0.37299277015924454
1783246139876096500,2.393096435546875,2.021875829473138,-1.7902581539019942,1.5987895333677529
1783246139886108700,2.403108642578125,4.190588233810663,-3.1352284090235827,2.477877137708664
1783246139896120600,2.41312060546875,6.604480098342895,-3.891030994479358,3.4545775595396755
1783246139906132500,2.423132568359375,8.829766622817516,-3.968172686348855,4.376111389943957
1783246139916143400,2.433143310546875,10.581722518593072,-3.542813769136369,5.2641018471866845
1783246139926155500,2.443155517578125,11.396551878035067,-2.5439234350681303,6.323292920699715
1783246139936167400,2.45316748046875,11.992528058671951,-1.2538093902498484,8.014139975517988
1783246139946179600,2.4631796875,12.925247299957274,-0.21355974857211113,10.188935499161481
1783246139956191500,2.47319140625,13.364377552890776,0.49317485459297894,12.339964362770319
1783246139966202600,2.48320263671875,13.147239361310005,1.1515808956578373,13.847101448357105
1783246139976214500,2.493214599609375,12.431733130407332,1.7979317572697997,14.409879123747348
1783246139986226400,2.503226318359375,11.27427808201909,2.304379788803309,14.337714051246643
1783246139996238600,2.513238525390625,10.2547351282835,2.544800510163605,13.814555269539355
1783246140006250500,2.52325048828125,9.297060309439898,2.532072253754735,13.200407472395897
1783246140016261600,2.53326171875,8.438851242476701,2.4509137274593114,12.663175741672514
1783246140026273500,2.5432734375,8.029418208670617,2.4011611239053305,11.95778407754898
1783246140036285700,2.55328564453125,8.23612969878316,1.9990351982422172,11.043811622309684
1783246140046297600,2.563297607421875,8.629724527466296,1.202720131264627,10.193428134405613
1783246140056308500,2.57330859375,8.848469569721818,0.5033617559559643,9.596955110162495
1783246140066320400,2.5833203125,8.918046963816881,0.06742299254015088,9.280314926344156
1783246140076332500,2.59333251953125,8.583487092426418,-0.3459391243431717,9.386702001920343
1783246140086344400,2.603344482421875,7.728615645453333,-0.26610432093217967,9.673264442861079
1783246140096356600,2.613356689453125,6.664276687657833,0.07787409779727458,9.854108501267433
1783246140106367500,2.623367431640625,5.799536173099279,0.21071641490496693,9.854800575184822
1783246140116379400,2.63337939453125,4.8988592527627945,0.2372336157567799,9.841361247897147
1783246140126391300,2.643391357421875,4.114180701434612,-0.15550514408629387,9.601322657722234
1783246140136403500,2.653403564453125,3.9282127241432665,-0.669342299490422,9.025931584474444
1783246140146415400,2.663415283203125,4.0906279764115805,-1.1778167953502385,8.145646879303454
1783246140156426500,2.673426513671875,4.35230848955214,-1.7041249079339205,7.290059393015503
1783246140166438700,2.683438720703125,4.418693809607625,-2.1165749514736234,6.665974139225483
1783246140176450600,2.693450439453125,4.3748996760666365,-2.145837578576058,6.0695496302992105
1783246140186462700,2.703462646484375,4.207417788058519,-2.0203446743831037,5.690147577619553
1783246140196474600,2.713474609375,3.803234345343709,-1.699229098716378,5.681914002281427
1783246140206485500,2.723485595703125,3.262858471375704,-1.3128063536196946,5.545936675083637
1783246140216497400,2.733497314453125,2.98714241861999,-1.3156491758301854,4.650082060337066
1783246140226509600,2.743509521484375,3.0755075152933595,-1.657432568733394,3.1991356485277413
1783246140236521500,2.753521484375,3.3103584736973044,-2.2434765534207224,1.9090397238880394
1783246140246533600,2.76353369140625,3.381231168299913,-2.9336373306646943,0.5004395848989487
1783246140256544500,2.77354443359375,2.716447993418574,-3.252344676145911,-0.9754659115999936
1783246140266556400,2.783556396484375,1.2017653147578238,-2.631823252317309,-2.051744898036122
1783246140276568300,2.793568359375,-0.5425508799195289,-1.51396517804116,-2.3294459871292115
1783246140286580500,2.80358056640625,-1.8539742547482252,-0.7220153936009853,-2.137380277484655
1783246140296591600,2.813591552734375,-3.4296482854664325,-0.6307234496954828,-2.5398814662009475
1783246140306603500,2.823603515625,-6.877589767992496,-2.2000854477226732,-4.564903777006268
1783246140316615700,2.83361572265625,-12.164434777384995,-4.298883773356676,-8.351434824830292
1783246140326627600,2.843627685546875,-19.878303520083428,-3.260673820813,-12.086285369777679
1783246140336639200,2.85363916015625,-31.05805622923374,1.082089426280558,-15.100847125720977
1783246140346650000,2.863650146484375,-41.5057864569664,6.571542874380945,-18.60223845888376
1783246140356662000,2.873662109375,-48.214353537249565,10.173919131815433,-22.545149570465085
1783246140366674200,2.883674072265625,-50.43868378391266,11.406734249353407,-26.890786911690235
1783246140376686000,2.89368603515625,-46.00497302243709,10.679580835276841,-29.490377873444555
1783246140386698200,2.9036982421875,-35.89958557505607,7.922882664534449,-27.497006253921985
1783246140396709000,2.913709228515625,-23.754272846770284,5.101561507233977,-22.301240276336667
1783246140406721000,2.923720947265625,-12.974866194128989,2.5471079103231427,-15.88998207193613
1783246140416733200,2.933733154296875,-4.25607455919981,0.752956109983474,-9.307920141628385
1783246140426745000,2.9437451171875,1.7253630724042652,-0.29937253041416406,-4.387588477247953
1783246140436757000,2.953757080078125,4.647043131032586,-0.8974085661903023,-1.4464286421239376
1783246140446768000,2.96376806640625,5.949607492101192,-1.188197392654419,0.00746492905318737
1783246140456780300,2.9737802734375,7.469875277417898,-1.455647575237602,0.942684170460701
1783246140466792200,2.983792236328125,9.039668433403968,-1.0754238309115172,2.11198806207478
1783246140476804400,2.993804443359375,9.836455940198897,-0.11708192646130919,3.7759570468395944
1783246140486816300,3.003816162109375,10.058216530883312,1.3406895090624689,6.1000277706712485
1783246140496827100,3.0138271484375,9.819584300374984,2.6752286788016555,8.655206759247184
1783246140506839000,3.023839111328125,9.739585465508698,3.542640750657022,10.548028338783979
1783246140516851200,3.033851318359375,10.040014519238472,4.320464906045794,11.902518701922892
1783246140526863000,3.043863037109375,10.086018730044364,5.251958404928446,13.036466617995499
1783246140536875300,3.053875244140625,9.755907070234418,5.922881982260942,13.740206423258781
1783246140546886100,3.06388623046875,9.505596676892042,5.973349602216482,14.21214705890417
1783246140556898000,3.07389794921875,9.612430911713838,5.692973156434297,14.301534484362602
1783246140566910200,3.08391015625,10.072515105348824,5.176607688128948,13.462591258883476
1783246140576922000,3.093922119140625,10.506853447830677,4.0075317600518465,11.86015138631463
1783246140586934000,3.10393408203125,10.98333698760271,2.3623440481245517,9.46529915329516
1783246140596945200,3.113945068359375,11.266606816738843,1.4875762066788971,7.373993229243159
1783246140606957300,3.123957275390625,11.530407390773295,1.8372233186945317,6.7656164167165755
1783246140616969200,3.13396923828125,12.108567344212531,0.9003669776044786,6.321203254944086
1783246140626981400,3.1439814453125,12.709635879552364,0.43046471591889857,6.248424434459209
1783246140636993300,3.1539931640625,13.212102586364745,0.3658744625866413,6.050910980802774
1783246140647004200,3.164004150390625,13.4926847838521,-0.23144509548321365,5.542267046660185
1783246140657016000,3.17401611328125,12.922239350312948,-1.1565402716308832,5.491184509676694
1783246140667028200,3.1840283203125,11.657194864821433,-0.7457691210888325,4.445104262149334
1783246140677040000,3.1940400390625,9.999839160716533,-0.2515713531889021,5.016387900078296
1783246140687051000,3.204051025390625,8.706251886829733,0.2295456916026771,6.293750015351176
1783246140697063200,3.214063232421875,7.8423571754455565,0.6064090195849537,6.998275418034195
1783246140707075000,3.224074951171875,7.308280109360814,0.6131803403507918,7.622119848805665
1783246140717087000,3.2340869140625,6.893228066629171,0.5387857552323491,8.078969882825017
1783246140727099100,3.24409912109375,6.272509658923744,0.415734545103088,8.391379297205805
1783246140737110000,3.254110107421875,5.9369134302228685,0.31939715437628324,8.62313521220386
1783246140747122200,3.2641220703125,5.890106670862436,0.4180083352539688,8.801948641565442
1783246140757134000,3.274134033203125,5.734246247065067,0.5339377306792885,8.809923858228325
1783246140767146000,3.28414599609375,5.22610091009438,0.5250208492521197,8.289419390422106
1783246140777158100,3.294158203125,4.698717204168439,0.2950815552219748,7.244504679542779
1783246140787169300,3.304169189453125,4.259872782438993,0.4905609457675367,5.218807245954871
1783246140797181200,3.31418115234375,3.8093285705655813,-0.23441797381415963,3.0079835465967655
1783246140807193000,3.324193115234375,4.259717884138226,-2.5836545569539067,2.40949450635612
1783246140817205200,3.334205322265625,3.9518408524900672,-3.308332520827651,1.3894471102297306
1783246140827217200,3.344217041015625,2.0454373223245144,-2.6291145778805016,0.45275136652886866
1783246140837228000,3.35422802734375,-1.1467021837055682,-1.858558659929037,-0.018843232157826423
1783246140847240200,3.364240234375,-5.469322221958637,-1.608047483317554,-1.2930015829533337
1783246140857252000,3.374252197265625,-8.753440923506021,-0.7978067668400705,-4.115462557938694
1783246140867264000,3.384263916015625,-10.61329956011772,-0.5521474141739309,-7.306468676024675
1783246140877276200,3.394276123046875,-11.758889983189105,-1.6905042327299713,-8.27870685774982
1783246140887287000,3.404287109375,-11.874349423015117,-2.650027309788763,-7.467012289202213
1783246140897299000,3.414298828125,-12.480717233806848,-2.5453455768257376,-6.77142481073439
1783246140907311000,3.42431103515625,-15.559750585138797,-0.9694985276281833,-7.773226356074214
1783246140917323000,3.434322998046875,-22.4276653468132,-0.1585263550709933,-11.257619208163023
1783246140927335200,3.444335205078125,-31.445944955229756,-0.4536757513647899,-15.932515391761063
1783246140937346300,3.45434619140625,-40.167731680321694,0.02001899793893099,-21.52289326611757
1783246140947358200,3.464358154296875,-42.69174863791466,1.847534577089548,-25.694586245322228
1783246140957370000,3.4743701171875,-36.17008360090256,3.261779443967342,-24.428871897745132
1783246140967382300,3.48438232421875,-25.805390552818775,2.6237656180679796,-18.53888680743575
1783246140977394200,3.494394287109375,-16.184308717137576,1.6122273993507026,-13.316032916438578
1783246140987405000,3.504405029296875,-9.938272639119624,0.616877295172587,-9.385378059840201
1783246140997417200,3.514417236328125,-7.723266101118922,-0.30695100284442306,-6.74880264455974
1783246141007429000,3.52442919921875,-7.25761550552845,-0.4331253864955157,-5.128958048203587
1783246141017441000,3.53444091796875,-6.234816180345415,-0.12412168890498577,-3.538224395519495
1783246141027453200,3.544453125,-4.529399917426705,-0.08241532142348587,-2.033533534041047
1783246141037464000,3.554464111328125,-3.43286081777215,-0.09708134096190332,-0.8216419620662927
1783246141047476000,3.56447607421875,-2.502293201562762,0.05431983840428292,-0.017638532543182373
1783246141057488100,3.574488037109375,-0.5747253028154373,-0.010703618713468312,0.4646440488964319
1783246141067500000,3.5845,2.0852268963992593,-0.2724151845794171,1.1313643293201923
1783246141077512200,3.59451220703125,4.965169754016399,-0.4260072981186211,2.0008646056264636
1783246141087523300,3.6045234375,8.015052998709677,-0.6086262572430073,3.5861779868274923
1783246141097535200,3.61453515625,11.112035848230123,-0.514645658775419,6.199211198478936
1783246141107547100,3.624547119140625,13.333063546216486,-0.12539879616871474,8.84331584022045
1783246141117559300,3.634559326171875,14.24377670739889,0.5027526841469109,10.788197861862182
1783246141127571200,3.6445712890625,14.014043238139152,0.9633099021211265,11.580088244265317
1783246141137582000,3.65458203125,12.367049938094615,1.7507789609506725,11.179836880302428
1783246141147594200,3.66459423828125,10.441078368628025,2.6038851518169044,9.773119486320018
1783246141157606100,3.674606201171875,8.356627717298268,1.5410539682358502,10.818933191865682
1783246141167618000,3.6846181640625,6.704923170822858,1.3676657787933946,11.074115575158595
1783246141177630200,3.694630126953125,6.513054445055126,1.9019664245009422,10.133781182694435
1783246141187641000,3.70464111328125,6.919834334003925,1.825260785961151,9.569459784993528
1783246141197653000,3.714653076171875,7.333895612132549,1.3434861540436744,9.110428899803757
1783246141207665200,3.7246650390625,7.518235111439227,1.171272269077599,8.893740205556155
1783246141217677000,3.734677001953125,7.576051925113797,1.167790272180736,9.32820188215673
1783246141227688200,3.744688232421875,7.413154442286491,0.9321059316925704,9.866245513784884
1783246141237700000,3.7547001953125,7.084778227967023,0.6157185535915196,9.13705328735709
1783246141247712300,3.764712158203125,6.858405759572983,0.8312196454897522,8.379017243760824
1783246141257724200,3.77472412109375,6.094057464089989,0.6507452971786261,7.7674302370160815
1783246141267736300,3.784736328125,4.975578919827938,0.03139406790686771,6.759780550169944
1783246141277747200,3.794747314453125,4.158547081905603,-0.6161976423453539,5.95600800679326
1783246141287759000,3.804759033203125,3.880899768826365,-1.0201656887438149,5.421745062747597
1783246141297771300,3.814771240234375,4.039660590240359,-1.2703855542585254,5.290621605321765
1783246141307783200,3.824783203125,4.21284332023859,-1.5639111122101543,5.413948709782957
1783246141317795000,3.834795166015625,4.501584274262189,-2.0482203771717846,5.154380658751726
1783246141327806200,3.84480615234375,4.744238015371561,-2.6104665760338306,4.643965038761496
1783246141337817900,3.85481787109375,4.836131286171079,-3.008181699517369,3.635148646223545
1783246141347829800,3.864829833984375,4.47931632835269,-2.784039474393427,2.472397244992852
1783246141357841700,3.874841552734375,3.449655300706625,-2.4809908858150242,2.071262083932757
1783246141367853800,3.884853759765625,2.790043390983343,-2.672954304128885,2.2899539346963165
1783246141377865000,3.894864990234375,2.226962348732352,-3.0178230958268046,1.9488328050941228
1783246141387876900,3.904876953125,0.9994207876831293,-2.704469386333227,0.7615484356313943
1783246141397889000,3.914888916015625,-1.7336901712447403,-2.090778100785613,-0.9155664464324712
1783246141407901000,3.92490087890625,-5.967481002444028,-2.148702758748829,-2.5535540177226066
1783246141417912800,3.934912841796875,-9.326928793480992,-0.982887147641927,-3.3542928924918174
1783246141427924000,3.944924072265625,-11.123199047279357,0.3102167997073382,-3.4666040974199768
1783246141437935900,3.954935791015625,-12.579495587944983,1.5651071901269256,-2.7629811965346334
1783246141447947800,3.96494775390625,-13.751090220844745,3.4744694239675997,-2.418424247264862
1783246141457960000,3.9749599609375,-14.08564600058198,4.005239265200496,-1.7614833103165028
1783246141467971800,3.984971923828125,-13.423998785638808,3.412138055478036,-0.6694573041722178
1783246141477982700,3.994982666015625,-13.09581078736782,2.7333856842160222,-1.4836092027440666
1783246141487995000,4.004994873046875,-13.565273050200938,2.4495015225738284,-4.370482444146275
1783246141498006800,4.0150068359375,-14.745040468162298,2.587909876310825,-7.067045002877712
1783246141508018700,4.025018798828125,-15.218153654718398,1.1102326939642428,-9.442684585905074
1783246141518030800,4.03503076171875,-14.490227502703666,-2.6695108856767416,-11.62599893156886
1783246141528041700,4.045041748046875,-11.887689381581545,-5.430087359157205,-13.123472701275348
1783246141538053600,4.0550537109375,-7.508543153986334,-5.786502504003048,-14.402746787649392
1783246141548065800,4.065065673828125,-6.588132774654031,-5.343415037876367,-11.847289566653966
1783246141558077700,4.07507763671875,-6.299898601108789,-4.4587566476657985,-8.950490266782046
1783246141568089600,4.085089599609375,-4.580666578805446,-3.2136671549662945,-7.022135017049312
1783246141578101000,4.09510107421875,-3.3131431359797716,-1.8940078667119145,-5.761456910073757
1783246141588113000,4.10511279296875,-2.2415812411934137,-0.5001449858665467,-4.541697965724766
1783246141598124800,4.115124755859375,-1.9318705643773078,0.7927104666143655,-3.331109293042123
1783246141608137000,4.125136962890625,-1.4379612580299377,1.4587956640049815,-2.4333733945935965
1783246141618148900,4.13514892578125,-0.5612222626417875,1.6201628685250877,-2.020983849069476
1783246141628159700,4.14515966796875,0.07369418176412582,1.3265616149887443,-1.8671233669176697
1783246141638172000,4.155171875,0.40976036606431004,0.9125333623468875,-1.4716338105291127
1783246141648183800,4.165183837890625,0.2735340325415134,0.570994007332623,-0.9592898528248072
1783246141658195700,4.17519580078125,0.7628203552633523,0.7328093940116465,-0.23148995753824708
1783246141668207900,4.185207763671875,1.8490607637435197,1.0900877315580844,0.9912933030679821
1783246141678218800,4.19521875,3.8111885192185637,1.2922631856761873,2.162590122064948
1783246141688230700,4.205230712890625,6.425373238992691,1.4008809429138898,3.0371064729675648
1783246141698242800,4.215242919921875,8.93093450244069,1.1996493455171584,3.779406895032525
1783246141708254700,4.225254638671875,10.390817669421434,0.7808046325042843,4.3424172101348635
1783246141718266600,4.2352666015625,10.222580579131842,0.5815332292646169,4.603221232701838
1783246141728278000,4.245278076171875,9.089211339730024,0.732253659825027,4.479640153479576
1783246141738290000,4.2552900390625,7.41022715666294,1.3201521863378585,3.9638419636681674
1783246141748301800,4.2653017578125,6.4766241182804105,1.5547325111068784,3.0550498336762186
1783246141758314000,4.27531396484375,6.15328823621571,1.1360071866899728,2.1215651609763504
1783246141768324900,4.285324951171875,6.641169368314743,0.8372123100332916,1.7973223931998012
1783246141778336800,4.295336669921875,7.558251480007171,0.5835604973085224,1.9487234995007514
1783246141788349000,4.305348876953125,8.439383741918206,0.2658656898707151,2.0423019469082355
1783246141798360800,4.31536083984375,9.078114191654324,-0.00281681098639965,1.8532710749149321
1783246141808372700,4.325372802734375,9.401578668534755,-0.2639183551952243,1.6850873222477734
1783246141818385000,4.335385009765625,9.893921456217765,-1.0731507714129984,1.6792285132169722
1783246141828395800,4.345395751953125,10.134845012533663,-1.7422797204136848,1.6241791184291243
1783246141838407700,4.35540771484375,9.586804303026199,-1.9199182607769965,1.3187719840258358
1783246141848419800,4.365419921875,8.299999821147322,-1.7460437491223215,0.8026540607407688
1783246141858431700,4.375431640625,6.6508695090740915,-1.232202976989001,0.6280211319342255
1783246141868443600,4.385443603515625,5.252077647393942,-1.1572208012409508,1.1559488816089927
1783246141878455000,4.395455078125,5.141660877910256,-1.4441028295248746,1.394862121015787
1783246141888467000,4.405467041015625,5.3760576628059145,-1.6107932748943565,1.3623565664693713
1783246141898478800,4.415478759765625,5.421695378386974,-2.098027341261506,1.0488831030536443
1783246141908491000,4.425490966796875,5.195267380413413,-2.553979841919243,0.6735447196163237
1783246141918502000,4.435501953125,4.533709012797474,-2.4201556011021137,0.5293387855164706
1783246141928513800,4.445513671875,3.5957851886063814,-1.9941271140649914,0.9287106632310896
1783246141938526000,4.45552587890625,2.530592828851938,-1.979688546606898,1.3347840844109653
1783246141948537900,4.465537841796875,1.7983727790355681,-2.2633714865885675,1.1643189428083598
1783246141958549800,4.4755498046875,0.4747703061133623,-3.2045807621911164,0.1829754444118589
1783246141968561000,4.485560791015625,-1.3616326361089943,-4.035251249365508,-1.0656313356935978
1783246141978572800,4.49557275390625,-5.111206118413806,-3.510914656050503,-1.7206605938017367
1783246141988584700,4.505584716796875,-8.331942188853025,-3.111978174078464,-2.011804809574783
1783246141998596900,4.515596923828125,-11.236646562761068,-3.348130278208852,-2.3375436611279845
1783246142008608800,4.52560888671875,-13.216915539604425,-3.3967928945690393,-2.3848631923161445
1783246142018619600,4.53561962890625,-14.257594804871081,-3.7931624486625193,-2.2566421783335504
1783246142028631800,4.5456318359375,-15.374236196833849,-3.897578516426682,-2.229022057741135
1783246142038643700,4.555643798828125,-16.357936268293855,-2.1385791318804026,-2.2357754775241014
1783246142048656000,4.56565576171875,-16.536939082747697,0.22290917619764802,-1.3197569034099579
1783246142058667800,4.575667724609375,-15.101304221838712,0.16318799020648,-0.127663380099833
1783246142068679000,4.585678955078125,-13.444128550475835,-0.9884981193915009,0.6107167997814714
1783246142078690800,4.59569091796875,-11.902623915863037,-1.2219061855107545,1.015689420112595
1783246142088703000,4.605702880859375,-9.555628828039765,-0.7658917255327105,1.4208505487531422
1783246142098715000,4.61571484375,-7.963966370072961,-1.0004922163069248,1.0523710912998765
1783246142108726800,4.625726806640625,-7.549146967053413,-1.3556845413595437,-0.5513357324648648
1783246142118737700,4.635737548828125,-7.390367440938949,-0.3032140082731843,-1.6271791770279407
1783246142128749800,4.645749755859375,-6.9882800937205545,0.7378492878749966,-1.9681103370159863
1783246142138761700,4.65576171875,-6.595093845838308,1.369906543457508,-2.7468583292514084
1783246142148774000,4.66577392578125,-5.525664871427416,1.7718667571648954,-4.065277554316818
1783246142158785800,4.675785888671875,-3.912118498432636,1.2188611187264322,-5.036134218555689
1783246142168796700,4.685796630859375,-1.7661282135128973,0.8254962994068861,-4.979066761943698
1783246142178808800,4.695808837890625,0.5477244831651449,0.8784095589488744,-3.859773978689313
1783246142188820700,4.70582080078125,2.3984213236778973,0.47203342849537727,-2.4977903371855614
1783246142198832600,4.71583251953125,3.616716332954168,-0.020850334196537732,-0.9458914420694112
1783246142208844800,4.7258447265625,4.853731824791431,0.23960838206410406,0.6146884798914194
1783246142218856000,4.73585595703125,5.755294880312681,0.9328915291123092,1.4133590239539742
1783246142228867800,4.745867919921875,5.551407215449213,1.3427847277760505,2.4326484413199125
1783246142238880000,4.7558798828125,5.123625455003976,1.4720720558159053,3.5344235419318077
1783246142248892000,4.765891845703125,4.946037768045067,1.351185476374626,4.142347642254829
1783246142258903800,4.77590380859375,5.327334256169199,1.0625291318945587,3.8353593761399387
1783246142268914700,4.785914794921875,5.981473871961236,0.9263407922945917,2.8209663525134325
1783246142278926800,4.7959267578125,6.459150420910119,0.7287266547426581,1.5619969491519032
1783246142288938800,4.805938720703125,6.852281139212846,0.47295156625360246,0.4209317849526182
1783246142298951000,4.815950927734375,7.0755655784636735,0.39111850169748064,-0.24311602485887704
1783246142308962800,4.825962890625,7.108964574718475,0.5327579463101924,-0.4214478081833571
1783246142318973700,4.8359736328125,7.129984566393494,0.807218446046859,-0.1958825645189732
1783246142328985900,4.84598583984375,7.344201902091503,1.0171366232462227,0.06114800392389297
1783246142338998800,4.855998779296875,7.656917605942487,1.1765431952178478,0.22636914392579346
1783246142349010700,4.8660107421875,8.112742973089217,1.370895992886275,0.4618674237899482
1783246142359022800,4.87602294921875,8.269535709300637,1.5529549800403415,0.9048981912933289
1783246142369033700,4.88603369140625,7.908567138934135,1.5311640039928256,1.4175468310326338
1783246142379045600,4.896045654296875,7.074525129500031,1.1153989906862378,1.6625692009694872
1783246142389057800,4.906057861328125,6.455306604963541,1.3239547934912144,1.8654647860556839
1783246142399069700,4.916069580078125,6.65732555334568,1.4275997307524084,1.8264160934761164
1783246142409081600,4.92608154296875,6.852715438976883,0.9201537742227316,1.4455369539812206
1783246142419092700,4.9360927734375,6.555819235548377,0.5127044615797698,0.9994059554401784
1783246142429105000,4.94610498046875,6.111337100192904,0.27206395998895166,0.6144888656660914
1783246142439116800,4.95611669921875,5.961345860689878,-0.22157179011404513,0.21981325600892304
1783246142449129000,4.96612890625,6.173043322521448,-0.9034624594017863,-0.33589857264831663
1783246142459140900,4.976140869140625,6.16067425481379,-1.6261758452042936,-0.9509382040649652
1783246142469151700,4.98615185546875,4.413761029380559,-2.898670062179863,-1.0914570471499114
1783246142479164000,4.996163818359375,2.8217613022834063,-3.5356256111979483,-1.52686177675426
1783246142489175800,5.00617578125,0.30616438251137734,-2.9936744507372377,-1.3178680209234357
1783246142499187700,5.016187744140625,-2.6919980272948743,-1.7004174317181109,-0.909638956079632
1783246142509200000,5.026199951171875,-5.582461109882593,-0.7538906143546104,-0.10718060057405382
1783246142519210800,5.036210693359375,-5.7652545487910505,0.1696463725656271,-0.4008398679079488
1783246142529222700,5.04622265625,-5.915173892101645,-0.037195465928316115,-1.174845378324017
1783246142539234800,5.05623486328125,-6.879909735372662,-1.060697970944643,-1.7362347411610186
1783246142549246700,5.066246826171875,-6.250089152801037,-1.4095774595886468,-1.9486577407881616
1783246142559258600,5.076258544921875,-5.490272071006894,-1.8009435063064096,-1.7027905905902385
1783246142569269800,5.086269775390625,-5.279723194688558,-2.4508090980410575,-1.5835639071851968
1783246142579282000,5.096281982421875,-5.125715705281496,-3.3328675348863004,-1.9327701435655353
1783246142589293800,5.1062939453125,-4.673041495642066,-4.0747514851048585,-2.053683318752795
1783246142599306000,5.116305908203125,-5.272727636712789,-4.323080641502142,-1.5596230596274137
1783246142609318000,5.12631787109375,-6.952849883899092,-4.736762564924359,-0.5464896806731819
1783246142619328800,5.136328857421875,-8.04968241354227,-5.180885803839564,0.9492246050801127
1783246142629341000,5.1463408203125,-9.603002573633193,-5.2614557165920735,2.2601915413782
1783246142639352800,5.156352783203125,-11.584306154221295,-4.668803711941838,2.5801579470098015
1783246142649364700,5.16636474609375,-12.678296153914928,-3.331811011570692,2.1460817625954745
1783246142659375600,5.176375732421875,-12.733261085289715,-2.3561583452269432,1.5860127616420387
1783246142669387800,5.1863876953125,-11.972100187671185,-2.5728362258195876,0.5817683531947434
1783246142679399700,5.196399658203125,-10.230838704389333,-3.352206441606581,-0.6710564099319278
1783246142689411800,5.206411865234375,-8.821229680618643,-3.937734877987206,-2.193921226004511
1783246142699423700,5.216423828125,-6.7904317090213295,-3.2681425492584704,-2.8722949732124805
1783246142709435600,5.226435546875,-4.070857692536712,-1.5398457614898682,-2.2712942424118516
1783246142719446800,5.23644677734375,-1.4904220976293086,0.10052870493680238,-1.2350059055805205
1783246142729458700,5.246458740234375,0.5681500160783529,0.923743030886352,0.47485228530839085
1783246142739470800,5.256470947265625,1.8747464091420172,1.2365277083203197,2.1673153970211745
1783246142749482800,5.266482666015625,2.048013310292363,1.890842096157372,3.120654817008972
1783246142759494000,5.276493896484375,2.0745424207776786,2.3681223392650486,2.7883900708183647
1783246142769505800,5.286505859375,2.0096020388334987,2.2706977378234265,1.7929922550410031
1783246142779518000,5.29651806640625,1.7953847031354904,1.7932813011154531,0.8696513021495192
1783246142789529900,5.30652978515625,1.823712971997261,1.3328276896461844,0.25532960974387825
1783246142799541800,5.316541748046875,2.137996363556385,1.0158321165189146,-0.01369059863500297
1783246142809552600,5.326552734375,2.708621245315671,0.9387021150872111,0.2925965334732085
1783246142819564800,5.336564697265625,3.1923709766983985,1.1333832679271698,1.4279460599720477
1783246142829576700,5.34657666015625,4.1984196580886834,1.01183106418401,1.544762175104022
1783246142839588900,5.3565888671875,5.406775457152724,0.5580106071189046,1.065142456198111
1783246142849600800,5.366600830078125,6.30739392530024,0.35578882964104414,0.8940410625185817
1783246142859611600,5.376611572265625,6.821087544047832,0.7536053676724433,1.034112819423154
1783246142869623600,5.38662353515625,7.151371053293347,1.392538354243338,1.342524323274195
1783246142879635700,5.3966357421875,7.392610835951566,1.8077865040689707,1.604937388473004
1783246142889647600,5.406647705078125,7.679449171224236,1.7889608075678347,1.6893731828734277
1783246142899659800,5.41665966796875,8.10979406015575,1.6155112433269618,1.547632469843328
1783246142909671000,5.4266708984375,8.466597912058234,1.4239213345006108,1.3576425435595214
1783246142919682800,5.436682861328125,8.365155307146907,1.3096020046204329,1.186848608393967
1783246142929695000,5.446695068359375,8.154051719555259,1.23670394167006,0.8904507098764181
1783246142939707000,5.456706787109375,7.8851213814169165,1.3211281917631625,0.7056085217446089
1783246142949718800,5.46671875,7.56798961468935,1.420893803372979,0.5851956972949206
1783246142959729700,5.476729736328125,7.280709965389967,1.2681138099342584,0.5463767948832362
1783246142969741800,5.486741943359375,6.933991454172134,1.2169453482329844,0.6834911632869393
1783246142979753700,5.496753662109375,6.623112318098545,1.442054372562468,1.1221681194949895
1783246142989766000,5.506765869140625,6.325929698944091,1.6526830361187457,1.5254232683837412
1783246142999777800,5.51677783203125,6.294771175092459,1.5875430399492383,1.6429498698726295
1783246143009788700,5.52678857421875,6.478460686057805,1.3222925593674182,1.4107009106606245
1783246143019800600,5.536800537109375,6.592467004466056,1.0478633315518497,0.9204303261417895
1783246143029812700,5.546812744140625,6.530201979210973,0.7626870842725038,0.19001272263750432
1783246143039824600,5.55682470703125,6.1421145157724615,0.6746390907242894,-0.512138205999136
1783246143049836800,5.5668369140625,5.33615527600646,0.851593448215723,-0.8534307466454804
1783246143059848000,5.576847900390625,4.249762307313084,1.0971683374688028,-0.85222385507375
1783246143069859800,5.58685986328125,3.526642094275355,0.9834715234011411,-0.7531232832439243
1783246143079871700,5.596871826171875,3.166683577734232,0.47120559936910866,-0.7539785848990083
1783246143089884000,5.6068837890625,2.843475705963373,0.2688432443767786,-0.6960899480972439
1783246143099895800,5.616895751953125,2.220782198792696,0.18936434173136948,-0.6008750220617279
1783246143109906700,5.62690673828125,1.044774425625801,-0.27543635903149843,-0.7504416429445147
1783246143119918800,5.6369189453125,-1.0020932217627763,-1.0167673515424132,-1.4719310399100183
1783246143129930800,5.6469306640625,-3.9044711985498664,-1.7076339389681816,-2.563713592687249
1783246143139943000,5.65694287109375,-7.898940063410997,-2.2972256792649626,-3.5557556682959195
1783246143149954800,5.666954833984375,-11.866911966490745,-2.6630869901090857,-4.034497800649702
1783246143159965700,5.676965576171875,-14.304101704502106,-3.2770676139920947,-4.123824728092551
1783246143169977600,5.6869775390625,-15.46992827539444,-3.84795436155796,-2.9632845731705424
1783246143179989800,5.69698974609375,-14.917292054790257,-3.4169895871624347,-0.0888552182778716
1783246143190001700,5.707001708984375,-12.475270658838749,-3.171845198281109,3.2360973057001825
1783246143200013800,5.717013916015625,-9.728605806332826,-4.047853249046206,5.884867601165175
1783246143210025000,5.72702490234375,-8.404479601797462,-4.729219894459844,7.756264699879289
1783246143220036900,5.737036865234375,-8.65719062654078,-4.313954501238465,8.098461934280396
1783246143230048800,5.747048828125,-9.136616649505495,-3.8386116559341548,5.81870615299344
1783246143240061000,5.75706103515625,-11.01709663386345,-4.682198323304951,1.3991083802834152
1783246143250072800,5.76707275390625,-14.852663807535171,-5.423412703698873,-2.551345401762426
1783246143260083700,5.777083740234375,-17.76429359679222,-4.293611970433592,-4.6040085836872455
1783246143270096000,5.787095947265625,-17.852572768747805,-2.5289655199110506,-4.971887079572677
1783246143280107800,5.797107666015625,-15.386899279052018,-1.5307736895009874,-3.8548394448965784
1783246143290120000,5.807119873046875,-10.629221936392783,-1.133748594108224,-1.286598730173707
1783246143300131800,5.8171318359375,-5.399559534424543,-0.5940107257828116,1.0127928949534892
1783246143310142700,5.827142822265625,-1.1692705738663673,-0.21131138512343167,2.1794832430683075
1783246143320154600,5.837154541015625,2.191684114602208,-0.11384411358386277,3.005250029979646
1783246143330166800,5.847166748046875,4.582560429728031,-0.2086477188721299,3.4891657655790445
1783246143340178400,5.857178466796875,5.769679379495978,-0.46623628652393817,2.8046280889138577
1783246143350190600,5.867190673828125,6.173388774958252,-1.107578672324121,0.7374556854475289
1783246143360201500,5.877201416015625,6.091214349618554,-1.683777847084403,-1.321820119550079
1783246143370213600,5.887213623046875,5.515227064043283,-1.6256750560753046,-2.2675053715229034
1783246143380225500,5.8972255859375,4.662429500734806,-1.2637491849839686,-2.1928912984348834
1783246143390237700,5.90723779296875,3.5982799280315634,-0.8889083027400075,-1.2276125804588198
1783246143400249600,5.91724951171875,2.459696168851852,-0.19640593080595134,0.3165194069828838
1783246143410260500,5.927260498046875,1.5454226848393677,0.6910306919462978,1.75676125023067
1783246143420272600,5.937272705078125,1.2038240008533,1.4664470555409788,2.7608956224322316
1783246143430284500,5.947284423828125,1.626398840305209,1.8258320099778473,3.0756612445503473
1783246143440296400,5.95729638671875,3.001523995193839,2.0685249140538273,2.880337994414568
1783246143450308600,5.96730859375,5.061497792392969,2.057813258164376,2.4279784036822614
1783246143460319500,5.977319580078125,7.0791346691221,1.6895875562764704,1.817663316569477
1783246143470331400,5.987331298828125,8.885829870823025,1.153968667577207,0.9469486229721457
1783246143480343600,5.997343505859375,10.357227534508704,0.6672185853347182,0.19475936917532236
1783246143490355500,6.00735546875,11.312517504042386,0.49805736593753097,-0.03438417136725038
1783246143500367600,6.01736767578125,11.477204208374022,0.669053253415972,0.19086667258571832
1783246143510378500,6.02737841796875,11.095600261735916,0.7800726649679243,0.6739522775039076
1783246143520390400,6.037390380859375,10.210360564506054,0.8423429509200155,1.1951369826592504
1783246143530402300,6.04740234375,8.833869381961225,1.0829556877210735,1.5604979427658021
1783246143540414500,6.05741455078125,7.3771993318080895,1.3583923390135169,1.5929922452658414
1783246143550425600,6.067425537109375,6.060199033629894,1.4378028525978326,1.3497928529724479
1783246143560437500,6.0774375,5.3067883117467165,1.3969747292555867,1.183004792447388
1783246143570449700,6.08744970703125,5.107874343642592,1.1228883235283196,0.9851690480340272
1783246143580461600,6.097461669921875,5.072652808135747,0.8681665434844792,0.6393108799725771
1783246143590473500,6.107473388671875,5.029349088460207,0.793156310685724,0.2485244597736746
1783246143600484600,6.117484619140625,5.024890940007567,0.6988890042312443,-0.16292349405139683
1783246143610496500,6.12749658203125,4.975432789355517,0.5704740751117467,-0.6130139708079397
1783246143620508400,6.13750830078125,5.052261762014031,0.579921702414751,-1.0194107056580484
1783246143630520600,6.1475205078125,5.164675842794776,0.7723466007605194,-1.1758549206927418
1783246143640532500,6.157532470703125,5.386917494994401,0.8980971329763531,-1.086455804796517
1783246143650543400,6.16754345703125,5.146993471109867,0.7305161685079335,-0.9204412859272211
1783246143660555500,6.177555419921875,4.400252728509903,0.616147738789022,-0.694341204733774
1783246143670567400,6.1875673828125,3.325222865352034,0.6837772136867046,-0.37252599289771166
1783246143680579300,6.197579345703125,1.5505039336264133,0.9328434521868825,-0.15508366727121173
1783246143690591500,6.207591552734375,-0.6338467693477868,1.055214863358438,-0.3058280084301717
1783246143700602600,6.2176025390625,-2.9846786588549614,0.4067962555617094,-0.9385642409864813
1783246143710614500,6.227614501953125,-5.604560713487863,-0.8811123881667852,-2.0119097312539815
1783246143720626700,6.237626708984375,-8.202162547251582,-2.1169430541336536,-3.0387077706843613
1783246143730638600,6.247638671875,-10.108230561852455,-2.853455248185992,-3.541698209109902
1783246143740650500,6.257650390625,-9.936558820939064,-3.3489728665128347,-3.2186227315470575
1783246143750661600,6.26766162109375,-9.05402487553656,-3.401517292742431,-1.5976567299455404
1783246143760673500,6.277673583984375,-8.687694485875964,-3.365013608470559,1.00431257831268
1783246143770685400,6.287685546875,-8.073139276975393,-3.855091958352923,4.268014295579492
1783246143780697600,6.297697509765625,-8.264455045035481,-4.04723979332298,7.240489014160633
1783246143790709500,6.30770947265625,-8.611687935516239,-3.641718672263622,8.27749163674116
1783246143800720400,6.317720458984375,-9.028532122361659,-3.1146766193822026,6.61387044250071
1783246143810732500,6.327732666015625,-12.301347339606284,-2.943446777017414,2.941614300893247
1783246143820744400,6.337744384765625,-16.52619206328392,-2.2556433765545485,-0.7283600133873522
1783246143830756400,6.34775634765625,-17.902969077032804,-1.2814298031032085,-3.5660216262444853
1783246143840768500,6.3577685546875,-17.478343150269986,-0.5939417521998286,-5.191292047041654
1783246143850779600,6.367779541015625,-14.990000732648372,-0.483620259784162,-5.052634686979651
1783246143860791600,6.37779150390625,-10.708681842076778,-0.8445762629300355,-3.415551663313806
1783246143870803700,6.3878037109375,-6.030219490429759,-0.9077776922523975,-1.5046879388689993
1783246143880815600,6.397815673828125,-1.3466262056350706,-0.5765095558837056,0.4689895307548344
1783246143890827500,6.40782763671875,2.3849726440399883,-0.08707184199243784,2.6019290493130685
1783246143900838700,6.417838623046875,4.812731121361256,0.508967467008531,4.684349363858997
1783246143910850600,6.4278505859375,5.776183939084411,0.7255278587013483,5.760714567273855
1783246143920862500,6.437862548828125,5.470077424240112,0.35021497503146526,4.852256199280918
1783246143930874600,6.44787451171875,4.519685748142003,-0.5424545799382031,2.5864491561084986
1783246143940886500,6.457886474609375,3.4357430952101944,-1.3398811152890324,0.6342372299700975
1783246143950897400,6.4678974609375,2.8588708434939383,-1.6801467971056698,-0.7602846262406557
1783246143960909600,6.47790966796875,2.8374843565940857,-1.7768270099207757,-1.7189746865414082
1783246143970921500,6.48792138671875,3.1880940300315617,-1.920599082648009,-2.2072955252319573
1783246143980933400,6.497933349609375,3.8055011212319134,-1.853966948224604,-1.9870130442760883
1783246143990945500,6.507945556640625,4.340699884822964,-1.3698155041731894,-1.0356665516711772
1783246144000956400,6.517956298828125,4.809357845535874,-0.8872983833253383,0.1482318651476875
1783246144010968300,6.52796826171875,5.412150135928392,-0.4845367901071906,1.150676201903075
1783246144020980500,6.53798046875,5.998184183743596,-0.1375418000355363,1.7484814976632594
1783246144030992400,6.547992431640625,6.586317834186554,0.20998598173856733,1.7698907809168098
1783246144041004500,6.558004638671875,7.369303025600313,0.49195247319117186,1.3732343727059662
1783246144051015700,6.568015625,8.099434578704834,0.3832848854623735,0.7234266486383975
1783246144061027600,6.578027587890625,8.736987801355124,0.014065934753417967,0.1503153568908572
1783246144071039500,6.58803955078125,9.149131847685576,-0.45160818784311413,-0.2924759940997697
1783246144081051600,6.5980517578125,9.352663538718224,-0.7289503804959356,-0.551536807994917
1783246144091063600,6.6080634765625,9.20347075611651,-0.678075202652812,-0.5419226650185883
1783246144101074400,6.618074462890625,8.78195974650383,-0.4965034144937992,-0.4130814733110368
1783246144111086600,6.628086669921875,8.191407344481348,-0.29085780004709955,-0.10986180248204618
1783246144121098500,6.638098388671875,7.606214423665404,-0.11869082296267151,0.29498691747477274
1783246144131110400,6.6481103515625,7.18301356126964,0.09725845109447837,0.6341990899167954
1783246144141122600,6.65812255859375,6.920650326561927,0.06690861327722668,0.8123360813215375
1783246144151133400,6.668133544921875,6.750158735343813,-0.18071297937259076,0.8611166980382055
1783246144161145300,6.678145263671875,6.326469797170162,-0.25109423719644547,0.8702471491508186
1783246144171157500,6.688157470703125,5.453019321933389,-0.07706468111053108,0.7263857176396995
1783246144181169400,6.69816943359375,4.425069189858436,0.036234073550254105,0.11589710059091449
1783246144191181300,6.708181396484375,3.4641157877355813,-0.1642328230842948,-0.7567942268416286
1783246144201192700,6.718192626953125,2.66087866640985,-0.4735404720574617,-1.505167831340432
1783246144211204600,6.72820458984375,1.8250544497340917,-0.5399230156339705,-1.6189738048709927
1783246144221216500,6.738216552734375,0.444466353264451,-0.2588710086777806,-1.113852711092308
1783246144231228700,6.748228759765625,-1.3376982182919979,0.14330226325839757,-0.4554511635394767
1783246144241240600,6.758240478515625,-3.0921260571390388,0.051204994319379325,-0.3572692043919116
1783246144251251500,6.76825146484375,-4.7374973089396955,-0.6404328697398305,-1.2025522273518143
1783246144261263600,6.778263671875,-6.117766840979456,-2.021008106727898,-2.4885022843584417
1783246144271275500,6.788275634765625,-6.885738003134727,-3.9039506818071006,-3.511959196667373
1783246144281287400,6.798287353515625,-8.002546568357944,-5.278821277412772,-3.3484321837648747
1783246144291299600,6.808299560546875,-9.436303360435366,-5.016536953160166,-2.117631036397815
1783246144301310500,6.818310546875,-10.49802599825263,-2.5485256681665778,-0.03344115489609539
1783246144311322400,6.828322265625,-11.774700131261348,-0.6541980679810047,1.8300271235801278
1783246144321334500,6.83833447265625,-11.656434986364841,-0.8575979493275284,3.3171246068313716
1783246144331346400,6.848346435546875,-10.008028312391042,-1.4064286401689052,4.375562816150486
1783246144341357000,6.858357177734375,-6.882286985898017,-1.9542492771849036,4.576172774517536
1783246144351369200,6.868369140625,-4.543029214328527,-2.7889965122789144,3.502277468347549
1783246144361381000,6.878381103515625,-6.558296439316869,-3.3195489113688468,1.240049014314264
1783246144371393000,6.88839306640625,-9.956834716248512,-2.4106150348186492,-0.814775437297672
1783246144381405200,6.8984052734375,-10.852876377999783,-0.7099371985986829,-2.2896965989343823
1783246144391416000,6.908416015625,-10.775346563595532,0.6630670186132193,-3.731528414787352
1783246144401428000,6.918427978515625,-10.393816266715525,1.1701938261911273,-4.789626432366669
1783246144411440000,6.928440185546875,-9.238129981565475,0.8084276757061482,-4.598602340729534
1783246144421452000,6.9384521484375,-7.27318833771348,0.27411533956080675,-3.2616277605369683
1783246144431464000,6.9484638671875,-5.09204490634799,0.3834700327709317,-1.4871150189079343
1783246144441474800,6.958474853515625,-2.8434283596903085,0.9833744927674531,0.7481358502201736
1783246144451487000,6.968487060546875,-0.8933709812372922,1.4563511934623121,2.803812680877745
1783246144461499000,6.978498779296875,0.8551753983557224,1.7819000754013656,3.9636014329105613
1783246144471511000,6.988510986328125,2.184397464725375,1.9657994297251105,3.8951290774479506
1783246144481523000,6.99852294921875,2.3687691127359867,1.4291376078441738,1.9230670801967382
1783246144491534000,7.0085341796875,1.961467830261588,0.1230517946511507,-0.3630496144242584
1783246144501546000,7.0185458984375,2.115179551592469,-0.21043840168118474,-0.859955545304343
1783246144511558100,7.02855810546875,2.4574469286203384,0.07184943068027495,-0.33824140944741665
1783246144521570000,7.038570068359375,2.9157775565862654,0.2955392358615994,0.22561507415547966
1783246144531582200,7.048582275390625,3.738718326291442,0.5632732038222253,0.9289572584033012
1783246144541593000,7.058593017578125,4.7131022878736255,0.7557903104960918,1.7335824730865657
1783246144551605000,7.06860498046875,5.418330285868048,0.845590116147697,2.3146561220154167
1783246144561617200,7.0786171875,5.801486138123273,1.0643829430676996,2.5275916012093425
1783246144571629000,7.088629150390625,5.902995963051914,1.2835842046581207,2.283042840133607
1783246144581641000,7.098640869140625,5.858931195876002,1.2061451372772454,1.6084717000789939
1783246144591651800,7.10865185546875,5.75751489444971,0.9865782572448253,0.9074021369382739
1783246144601664000,7.1186640625,5.785646763956547,0.883244431759417,0.25486279594972727
1783246144611676000,7.128676025390625,6.297797829437256,0.7914714263387024,-0.27642697750404477
1783246144621688000,7.13868798828125,7.057527232947945,0.7082767180405557,-0.3000879121419042
1783246144631700000,7.148699951171875,7.795833909201622,0.8059137931890785,0.18355477866977452
1783246144641711000,7.158711181640625,8.459878832936287,0.9528209490716457,0.7333272073406726
1783246144651723000,7.168722900390625,8.728650181120633,1.0733160449773071,1.2087400491412728
1783246144661735200,7.178735107421875,8.795091615277528,1.1532359693884848,1.6638928507886825
1783246144671747000,7.1887470703125,8.709314197009801,1.0599997595474124,1.8851389160796999
1783246144681759200,7.19875927734375,8.40949772222042,0.8910758560374379,1.7606426217086613
1783246144691770000,7.20877001953125,8.02879686190188,0.6994912079080939,1.3799549131326376
1783246144701782000,7.218781982421875,7.285137718704342,0.44287470015883446,0.7680956653177737
1783246144711794200,7.228794189453125,6.148266024139523,0.4174149724707007,0.42290575190670787
1783246144721806000,7.23880615234375,5.558874482589959,0.30918899102956054,0.42978601293973623
1783246144731818000,7.24881787109375,5.215115405699611,0.253635153850913,0.6731283939003944
1783246144741828900,7.258828857421875,5.017719440943003,0.678313979844749,1.0021384491439909
1783246144751841000,7.268841064453125,5.1969683391124,0.6187544141560792,1.7382690234676001
1783246144761853000,7.27885302734375,3.3216344854712485,1.1844757417827845,1.528496246088296
1783246144771865000,7.288864990234375,2.052634540352225,1.65813954795897,1.024922162555903
1783246144781877000,7.298876953125,0.4863473466604948,1.5513658111527562,0.8884222727887332
1783246144791888000,7.308887939453125,-1.8944886359661817,1.128555993901193,0.5135896834490821
1783246144801900000,7.318900146484375,-3.7601919069528575,0.9512693357154727,-0.47415991913005706
1783246144811912000,7.328911865234375,-5.071487856009602,1.0310425451323388,-1.6153905395567416
