time,seconds_elapsed,z,y,x
1783246147750003700,0.070003662109375,0.9306445717811584,-1.8150041103363037,-1.3501625061035156
1783246147760016000,0.080015869140625,1.1716625690460205,-1.5661633014678955,-0.9542549252510071
1783246147770027800,0.09002783203125,1.5278873443603516,-1.3054239749908447,-0.904251217842102
1783246147780039000,0.100038818359375,1.8749563694000244,-1.1846879720687866,-1.3607494831085205
1783246147790051000,0.110051025390625,1.978581190109253,-1.4293594360351562,-2.2381041049957275
1783246147800063000,0.12006298828125,1.3914310932159424,-1.7116092443466187,-3.173980712890625
1783246147810075000,0.130074951171875,0.5452821254730225,-1.51676607131958,-4.079000949859619
1783246147820087000,0.140087158203125,-0.052776485681533813,-1.0465309619903564,-4.936737060546875
1783246147830098000,0.150097900390625,-0.28563833236694336,-0.5073397755622864,-5.585631847381592
1783246147840109800,0.16010986328125,-0.157667338848114,-0.11445744335651398,-5.926992893218994
1783246147850122000,0.1701220703125,0.3772893249988556,0.0657280832529068,-5.751703262329102
1783246147860134000,0.1801337890625,1.0268031358718872,0.008389697410166264,-4.998666286468506
1783246147870144800,0.190144775390625,1.4870049953460693,-0.17496855556964874,-3.8593204021453857
1783246147880157000,0.200156982421875,1.7193706035614014,-0.44809624552726746,-2.6459360122680664
1783246147890168800,0.2101689453125,1.7220124006271362,-0.7870367169380188,-1.674263596534729
1783246147900180700,0.2201806640625,1.5753151178359985,-1.1669448614120483,-1.0717002153396606
1783246147910193000,0.23019287109375,1.3643871545791626,-1.4271321296691895,-0.889723002910614
1783246147920204000,0.2402041015625,1.2160160541534424,-1.4491649866104126,-1.0315107107162476
1783246147930216000,0.2502158203125,1.201417326927185,-1.2796411514282227,-1.3284705877304077
1783246147940228000,0.26022802734375,1.3020973205566406,-1.0515179634094238,-1.5850722789764404
1783246147950240000,0.270239990234375,1.5216361284255981,-0.8946279883384705,-1.6357784271240234
1783246147960252000,0.280251953125,1.7793883085250854,-0.879791796207428,-1.4941307306289673
1783246147970263000,0.290262939453125,2.0568578243255615,-1.0215787887573242,-1.2714887857437134
1783246147980275000,0.30027490234375,2.292473077774048,-1.3145757913589478,-1.044141411781311
1783246147990286800,0.310286865234375,2.423374891281128,-1.5284069776535034,-0.8936575055122375
1783246148000299000,0.320299072265625,2.4655563831329346,-1.6268094778060913,-0.8533641695976257
1783246148010311000,0.330310791015625,2.3580949306488037,-1.7038263082504272,-0.8571568727493286
1783246148020321800,0.34032177734375,2.209096670150757,-1.681368112564087,-0.9147253632545471
1783246148030334000,0.350333984375,2.112107515335083,-1.652978777885437,-1.0641814470291138
1783246148040345900,0.360345947265625,2.0417988300323486,-1.6483185291290283,-1.2551809549331665
1783246148050357800,0.370357666015625,2.0312039852142334,-1.634362816810608,-1.4354010820388794
1783246148060370000,0.380369873046875,2.060223340988159,-1.7506383657455444,-1.5463848114013672
1783246148070380800,0.390380859375,2.04255747795105,-1.8969175815582275,-1.4902044534683228
1783246148080393000,0.40039306640625,2.0080270767211914,-1.7782557010650635,-1.0743467807769775
1783246148090404900,0.41040478515625,1.9868992567062378,-1.4759719371795654,-0.3321535289287567
1783246148100417000,0.4204169921875,1.6246960163116455,-1.1806912422180176,0.47715264558792114
1783246148110429000,0.430428955078125,1.0106431245803833,-0.8356168270111084,1.0398907661437988
1783246148120440000,0.440440185546875,0.4256415367126465,-0.5208939909934998,1.0971790552139282
1783246148130452000,0.450451904296875,0.25152096152305603,0.0035514761693775654,0.7272539138793945
1783246148140463900,0.4604638671875,0.4420674741268158,0.6060221791267395,0.15906396508216858
1783246148150476000,0.47047607421875,0.50886070728302,0.8238233327865601,-0.12794305384159088
1783246148160488000,0.480488037109375,0.3123721778392792,1.1513172388076782,0.10708809643983841
1783246148170498800,0.490498779296875,-0.15085327625274658,0.9987626075744629,0.6446292996406555
1783246148180511000,0.500510986328125,-0.7479787468910217,0.7522639036178589,1.349249005317688
1783246148190523000,0.51052294921875,-1.329961895942688,0.8539341688156128,1.9385193586349487
1783246148200534800,0.52053466796875,-1.691907286643982,1.3519583940505981,2.143983840942383
1783246148210547000,0.530546875,-1.9289709329605103,2.1034598350524902,1.9182301759719849
1783246148220557800,0.540557861328125,-2.078838348388672,2.732448101043701,1.575939416885376
1783246148230569700,0.55056982421875,-2.021176815032959,2.7218873500823975,1.301687240600586
1783246148240582000,0.560581787109375,-1.750243067741394,2.1096746921539307,1.0974233150482178
1783246148250593800,0.57059375,-1.3791414499282837,1.088119626045227,0.8376569747924805
1783246148260605000,0.58060498046875,-0.9188516139984131,0.16120463609695435,0.4526291489601135
1783246148270617000,0.5906171875,-0.3863283693790436,0.06015095114707947,-0.09543167799711227
1783246148280629000,0.60062890625,0.13360430300235748,0.6167641282081604,-0.7545000910758972
1783246148290641000,0.610640869140625,0.28038984537124634,0.8200230598449707,-1.1750482320785522
1783246148300653000,0.620653076171875,0.26978781819343567,0.6248612999916077,-1.5240237712860107
1783246148310664000,0.630663818359375,0.33881810307502747,0.12565720081329346,-2.102515697479248
1783246148320675800,0.64067578125,0.41785168647766113,-0.6471535563468933,-2.897346258163452
1783246148330688000,0.65068798828125,0.5590074062347412,-1.2987819910049438,-3.787256956100464
1783246148340700700,0.66070068359375,0.8329119086265564,-1.8527135848999023,-4.530142784118652
1783246148350712600,0.670712646484375,1.1582680940628052,-2.747074842453003,-4.986641883850098
1783246148360723500,0.680723388671875,1.2856534719467163,-3.796980142593384,-5.14731502532959
1783246148370735600,0.690735595703125,1.2751744985580444,-4.352684497833252,-4.887841701507568
1783246148380747500,0.70074755859375,1.2634376287460327,-4.193219184875488,-4.595596790313721
1783246148390759400,0.710759521484375,1.1976336240768433,-3.2530131340026855,-4.5985894203186035
1783246148400771600,0.720771484375,1.0168436765670776,-1.8630396127700806,-4.658069610595703
1783246148410782500,0.730782470703125,0.8335772752761841,-0.4131220877170563,-4.467583179473877
1783246148420794400,0.74079443359375,0.8003932237625122,0.6941598057746887,-4.060931205749512
1783246148430806500,0.750806640625,0.8243536949157715,1.0944888591766357,-3.525900363922119
1783246148440818400,0.760818359375,0.8205538988113403,0.7555071115493774,-2.957568645477295
1783246148450830300,0.770830322265625,0.6954106688499451,-0.11542588472366333,-2.4401023387908936
1783246148460841700,0.780841796875,0.45091864466667175,-1.0787676572799683,-1.9216355085372925
1783246148470853600,0.790853515625,0.4394511282444,-1.8974549770355225,-1.4588836431503296
1783246148480865500,0.800865478515625,0.9214425086975098,-2.855992555618286,-1.2185906171798706
1783246148490877700,0.810877685546875,1.1141784191131592,-3.022754192352295,-0.8909147381782532
1783246148500889600,0.8208896484375,1.060477375984192,-2.4476804733276367,-0.41865846514701843
1783246148510900500,0.830900390625,0.9301233887672424,-1.380149006843567,-0.11061125993728638
1783246148520912600,0.84091259765625,0.8015227913856506,-0.24533775448799133,0.025860030204057693
1783246148530924500,0.850924560546875,0.6489314436912537,0.9127791523933411,0.02416035905480385
1783246148540936400,0.8609365234375,0.48629218339920044,1.6859558820724487,-0.11479459702968597
1783246148550947600,0.870947509765625,0.32690268754959106,1.8510138988494873,-0.4146456718444824
1783246148560959500,0.88095947265625,0.08563786745071411,1.479533314704895,-0.780865490436554
1783246148570971400,0.890971435546875,-0.222066268324852,0.9026538729667664,-1.0034313201904297
1783246148580983600,0.900983642578125,-0.45719513297080994,0.31530407071113586,-0.9371146559715271
1783246148590995500,0.910995361328125,-0.516848623752594,0.0007299099816009402,-0.5715349316596985
1783246148601007400,0.92100732421875,-0.5026931762695312,-0.07135733217000961,-0.12027162313461304
1783246148611018800,0.931018798828125,-0.4091898500919342,0.10759825259447098,0.36792823672294617
1783246148621030700,0.94103076171875,-0.1790304332971573,0.4872872531414032,0.7823325991630554
1783246148631042600,0.95104248046875,-0.022869102656841278,0.6032854914665222,1.0105394124984741
1783246148641054700,0.9610546875,-0.04695499688386917,0.36219239234924316,1.053281545639038
1783246148651065600,0.971065673828125,-0.22913901507854462,-0.039112258702516556,1.0267173051834106
1783246148661077500,0.981077392578125,-0.4997585415840149,-0.26070961356163025,0.9723294377326965
1783246148671089700,0.991089599609375,-0.81389319896698,-0.18474844098091125,1.014212965965271
1783246148681101600,1.0011015625,-1.0637853145599365,0.08311229944229126,1.2171686887741089
1783246148691113500,1.011113525390625,-0.9422096610069275,0.12708747386932373,1.7316004037857056
1783246148701124600,1.02112451171875,-1.1130577325820923,0.9803722500801086,1.9441579580307007
1783246148711136500,1.031136474609375,-0.8251556754112244,1.5533947944641113,2.0331170558929443
1783246148721148400,1.0411484375,-0.7022395730018616,1.730744481086731,1.9519561529159546
1783246148731160600,1.05116064453125,-0.7673363089561462,1.5241913795471191,1.894610047340393
1783246148741172500,1.06117236328125,-0.851482093334198,1.0792644023895264,1.774761438369751
1783246148751183600,1.07118359375,-0.8607058525085449,0.4952760338783264,1.597740650177002
1783246148761195800,1.08119580078125,-0.8016278743743896,0.07512510567903519,1.6506304740905762
1783246148771207700,1.091207763671875,-0.586732804775238,-0.010838757269084454,2.0274038314819336
1783246148781219600,1.101219482421875,-0.34102663397789,0.33510640263557434,2.5765669345855713
1783246148791231700,1.111231689453125,-0.1661335825920105,0.9533616900444031,3.0696330070495605
1783246148801242600,1.12124267578125,0.036679986864328384,1.5581676959991455,3.17962646484375
1783246148811254500,1.131254638671875,0.282659649848938,2.093682289123535,2.8821799755096436
1783246148821266700,1.1412666015625,0.44267168641090393,2.1745972633361816,2.1881582736968994
1783246148831278600,1.151278564453125,0.49702170491218567,1.7801491022109985,1.1961838006973267
1783246148841289500,1.16128955078125,0.545756459236145,1.1393448114395142,0.06045690178871155
1783246148851301600,1.171301513671875,0.6420921683311462,0.46945706009864807,-0.865555465221405
1783246148861313500,1.1813134765625,0.7842170596122742,-0.14101001620292664,-1.3016316890716553
1783246148871325400,1.191325439453125,0.9700904488563538,-0.604849100112915,-1.366995930671692
1783246148881337600,1.201337646484375,1.117712140083313,-0.9205612540245056,-1.45590341091156
1783246148891348500,1.211348388671875,1.15546715259552,-1.1800981760025024,-1.7677605152130127
1783246148901360400,1.2213603515625,1.1197996139526367,-1.3224843740463257,-2.220857620239258
1783246148911372500,1.23137255859375,1.0600812435150146,-1.3172258138656616,-2.6494197845458984
1783246148921384400,1.241384521484375,0.9884992837905884,-1.2214356660842896,-2.930894613265991
1783246148931396600,1.251396728515625,0.9289016127586365,-1.085203766822815,-3.069620132446289
1783246148941407700,1.26140771484375,0.8343548774719238,-1.005766749382019,-3.1172897815704346
1783246148951419600,1.271419677734375,0.6588613390922546,-0.9274898767471313,-2.994154453277588
1783246148961431600,1.281431640625,0.4726240336894989,-0.783614993095398,-2.647473096847534
1783246148971443700,1.291443603515625,0.5059704184532166,-0.48027336597442627,-2.1441712379455566
1783246148981455600,1.30145556640625,0.6531020998954773,0.19919437170028687,-1.529937505722046
1783246148991466500,1.311466552734375,0.43038108944892883,0.9159825444221497,-0.9123898148536682
1783246149001478700,1.321478759765625,-0.13169530034065247,1.2380012273788452,-0.3596177399158478
1783246149011490600,1.331490478515625,-0.6098001599311829,1.1528408527374268,0.10903719067573547
1783246149021502500,1.34150244140625,-0.9563136100769043,0.9582515954971313,0.4199066460132599
1783246149031514600,1.3515146484375,-1.239937424659729,0.6544146537780762,0.5355424880981445
1783246149041525500,1.361525390625,-1.3831350803375244,0.2994810938835144,0.4874899685382843
1783246149051537400,1.371537353515625,-1.3690730333328247,-0.005407765042036772,0.28688764572143555
1783246149061549600,1.381549560546875,-1.225973129272461,-0.23639170825481415,-0.045816536992788315
1783246149071561500,1.3915615234375,-1.020308256149292,-0.2839060127735138,-0.4743654429912567
1783246149081573400,1.401573486328125,-0.7926945090293884,-0.22407464683055878,-0.956010103225708
1783246149091584500,1.41158447265625,-0.6199318170547485,-0.09648606926202774,-1.3991361856460571
1783246149101596700,1.4215966796875,-0.531441867351532,0.10155723989009857,-1.683858871459961
1783246149111608600,1.431608642578125,-0.4959407150745392,0.28817206621170044,-1.7811211347579956
1783246149121620700,1.441620849609375,-0.41331052780151367,0.3713819980621338,-1.7106784582138062
1783246149131631600,1.451631591796875,-0.27727264165878296,0.29296964406967163,-1.5104503631591797
1783246149141643500,1.4616435546875,-0.1087251529097557,0.08885247260332108,-1.1925389766693115
1783246149151655700,1.47165576171875,0.0567207932472229,-0.23921461403369904,-0.7954737544059753
1783246149161667600,1.48166748046875,0.20590734481811523,-0.6168250441551208,-0.37702056765556335
1783246149171679500,1.491679443359375,0.31946253776550293,-0.9492664933204651,0.020672641694545746
1783246149181690400,1.5016904296875,0.40364372730255127,-1.276085615158081,0.39317405223846436
1783246149191702500,1.51170263671875,0.46707749366760254,-1.531610131263733,0.7396965026855469
1783246149201714400,1.52171435546875,0.5297078490257263,-1.6826902627944946,1.0406819581985474
1783246149211726600,1.5317265625,0.5549184679985046,-1.705273985862732,1.2835787534713745
1783246149221738500,1.541738525390625,0.5384862422943115,-1.564806342124939,1.4332199096679688
1783246149231749600,1.55174951171875,0.5166324377059937,-1.2912253141403198,1.4455842971801758
1783246149241761500,1.561761474609375,0.47476330399513245,-0.9809731841087341,1.31322181224823
1783246149251773700,1.571773681640625,0.37477895617485046,-0.721278965473175,1.113363265991211
1783246149261785600,1.58178564453125,0.18337328732013702,-0.4652003347873688,0.9714356660842896
1783246149271797800,1.5917978515625,-0.10208659619092941,-0.13647934794425964,0.9472737312316895
1783246149281808600,1.60180859375,-0.4455030858516693,0.17008911073207855,1.0056809186935425
1783246149291820500,1.611820556640625,-0.7523176670074463,0.5322867035865784,1.0839786529541016
1783246149301832700,1.621832763671875,-0.9573531150817871,1.0772818326950073,1.269753336906433
1783246149311844600,1.6318447265625,-1.0603386163711548,1.4940308332443237,1.5281858444213867
1783246149321856500,1.6418564453125,-1.11405348777771,1.6614006757736206,1.7235398292541504
1783246149331867400,1.651867431640625,-1.095033884048462,1.7330656051635742,1.8774487972259521
1783246149341879600,1.661879638671875,-1.1811283826828003,1.5375370979309082,1.768980622291565
1783246149351891700,1.6718916015625,-1.331966519355774,1.399802565574646,1.410858392715454
1783246149361903600,1.681903564453125,-1.409536361694336,1.2448252439498901,0.8646246194839478
1783246149371914800,1.691914794921875,-1.4549959897994995,0.999926745891571,0.30680158734321594
1783246149381926700,1.7019267578125,-1.4196494817733765,0.8028091788291931,-0.10195688903331757
1783246149391938600,1.7119384765625,-1.3432258367538452,0.6634209156036377,-0.3603716194629669
1783246149401950700,1.72195068359375,-1.2480438947677612,0.5870022773742676,-0.5771990418434143
1783246149411962600,1.731962646484375,-1.1973875761032104,0.3367115557193756,-0.9219685792922974
1783246149421973800,1.741973876953125,-1.2611435651779175,-0.06602845340967178,-1.4840383529663086
1783246149431985700,1.751985595703125,-1.4054049253463745,-0.2570948600769043,-2.2421650886535645
1783246149441997600,1.76199755859375,-1.584364652633667,0.2102355659008026,-3.1295907497406006
1783246149452009700,1.772009765625,-1.7664741277694702,1.5652443170547485,-3.918541431427002
1783246149462021600,1.782021728515625,-1.9661134481430054,3.283808946609497,-4.334759712219238
1783246149472032500,1.792032470703125,-2.210761070251465,4.507871627807617,-4.223625183105469
1783246149482044700,1.802044677734375,-2.3180649280548096,4.817115306854248,-3.702906608581543
1783246149492056600,1.812056640625,-2.20801043510437,4.157993316650391,-2.9997262954711914
1783246149502068700,1.82206884765625,-1.8962830305099487,2.7609095573425293,-2.360347032546997
1783246149512080600,1.83208056640625,-1.5019373893737793,1.121194839477539,-1.8744962215423584
1783246149522091500,1.842091552734375,-1.0870236158370972,-0.10853495448827744,-1.3678401708602905
1783246149532103400,1.852103515625,-0.6662722229957581,-0.798111617565155,-0.8125096559524536
1783246149542115600,1.862115478515625,-0.3330255150794983,-0.912502110004425,-0.29706600308418274
1783246149552127500,1.87212744140625,-0.14703090488910675,-0.6255017518997192,0.07258608937263489
1783246149562138600,1.882138671875,-0.16584347188472748,-0.1645543873310089,0.17328765988349915
1783246149572150800,1.89215087890625,-0.3312316834926605,0.4109991192817688,0.056405190378427505
1783246149582162700,1.90216259765625,-0.5754678249359131,0.8585399389266968,-0.12688526511192322
1783246149592174600,1.912174560546875,-0.8380908370018005,1.0942096710205078,-0.2730903625488281
1783246149602186800,1.922186767578125,-1.090527892112732,1.1164772510528564,-0.3270241618156433
1783246149612197600,1.93219775390625,-1.2182918787002563,1.0700263977050781,-0.3511931300163269
1783246149622209500,1.94220947265625,-1.205093502998352,1.1215518712997437,-0.3049795627593994
1783246149632221700,1.9522216796875,-1.0573030710220337,1.2707746028900146,-0.17255011200904846
1783246149642233600,1.962233642578125,-0.8226138949394226,1.35735023021698,-0.07543130218982697
1783246149652245800,1.972245849609375,-0.5518621802330017,1.2935024499893188,-0.0957731083035469
1783246149662256600,1.982256591796875,-0.2808658182621002,0.9869489073753357,-0.2705150842666626
1783246149672268500,1.9922685546875,-0.06121174246072769,0.5394707322120667,-0.560838520526886
1783246149682280400,2.002280517578125,0.13239766657352448,0.08188559114933014,-0.9115691184997559
1783246149692292600,2.012292724609375,0.30183643102645874,-0.3392624855041504,-1.23928701877594
1783246149702304500,2.022304443359375,0.4256800711154938,-0.6672899127006531,-1.4592156410217285
1783246149712315600,2.032315673828125,0.5176048874855042,-0.9412370324134827,-1.5697077512741089
1783246149722327800,2.042327880859375,0.5379903316497803,-1.0979987382888794,-1.5663009881973267
1783246149732339700,2.052339599609375,0.493731826543808,-1.134050965309143,-1.4426172971725464
1783246149742351600,2.0623515625,0.4130942225456238,-1.0842061042785645,-1.160114049911499
1783246149752362800,2.07236279296875,0.288022518157959,-0.9978750944137573,-0.7457249164581299
1783246149762374700,2.082374755859375,0.16177935898303986,-0.8920312523841858,-0.3032545745372772
1783246149772386600,2.092386474609375,0.06842035055160522,-0.7808123826980591,0.05691656842827797
1783246149782398700,2.102398681640625,0.016313204541802406,-0.6184847354888916,0.2934721112251282
1783246149792410600,2.11241064453125,-0.0207598265260458,-0.47395142912864685,0.4651477038860321
1783246149802421500,2.12242138671875,-0.06362180411815643,-0.33696722984313965,0.6592602133750916
1783246149812433700,2.13243359375,-0.06246130168437958,-0.08769092708826065,0.929294764995575
1783246149822445600,2.142445556640625,-0.044151272624731064,0.21581675112247467,1.2309983968734741
1783246149832457500,2.15245751953125,-0.07880650460720062,0.5526056289672852,1.6206659078598022
1783246149842469600,2.1624697265625,-0.15466877818107605,0.7411936521530151,2.048794746398926
1783246149852480800,2.172480712890625,-0.21545565128326416,0.692690372467041,2.3267059326171875
1783246149862492700,2.18249267578125,-0.20945288240909576,0.5936828255653381,2.5033905506134033
1783246149872504800,2.1925048828125,-0.11108476668596268,0.5205300450325012,2.485403537750244
1783246149882516700,2.202516845703125,-0.002154555171728134,0.7601484656333923,2.2485218048095703
1783246149892528600,2.212528564453125,0.06616995483636856,1.159882664680481,1.9601986408233643
1783246149902539800,2.222539794921875,-0.1931508332490921,1.4262491464614868,1.691032886505127
1783246149912551700,2.2325517578125,-0.6171855926513672,1.4249833822250366,1.8015732765197754
1783246149922563600,2.2425634765625,-1.2397911548614502,1.0381107330322266,2.027099370956421
1783246149932575700,2.25257568359375,-1.8751188516616821,0.9569543600082397,1.9508024454116821
1783246149942587600,2.262587646484375,-2.294191837310791,1.3800463676452637,1.6109771728515625
1783246149952598500,2.2725986328125,-2.6023476123809814,1.9053361415863037,0.9639678597450256
1783246149962610700,2.282610595703125,-2.6816132068634033,2.4524967670440674,0.412229061126709
1783246149972622600,2.29262255859375,-2.7341926097869873,2.666175603866577,-0.08582420647144318
1783246149982634500,2.302634521484375,-2.615365743637085,2.3864920139312744,-0.6913040280342102
1783246149992645600,2.312645751953125,-2.472975969314575,1.7672168016433716,-1.302695631980896
1783246150002657500,2.322657470703125,-2.4989898204803467,1.126250982284546,-1.9976190328598022
1783246150012669400,2.33266943359375,-2.724058151245117,0.6469451189041138,-2.759303092956543
1783246150022681600,2.342681640625,-3.045989513397217,0.45169493556022644,-3.455925226211548
1783246150032693500,2.352693603515625,-3.2993009090423584,0.6539561152458191,-3.8973324298858643
1783246150042704600,2.36270458984375,-3.467545986175537,1.0530405044555664,-3.970305919647217
1783246150052716800,2.372716796875,-3.575807571411133,1.586854338645935,-3.729910373687744
1783246150062728700,2.382728759765625,-3.6295902729034424,2.2056314945220947,-3.3904476165771484
1783246150072740600,2.39274072265625,-3.6537013053894043,2.574280023574829,-3.172877550125122
1783246150082752800,2.402752685546875,-3.523482084274292,2.6408607959747314,-3.101213216781616
1783246150092763600,2.412763671875,-3.1179871559143066,2.3285880088806152,-3.070136308670044
1783246150102775600,2.422775634765625,-2.563154697418213,1.8665841817855835,-2.9230568408966064
1783246150112787700,2.43278759765625,-1.9617074728012085,1.3703876733779907,-2.675614833831787
1783246150122799600,2.442799560546875,-1.5119727849960327,0.9402223825454712,-2.471573829650879
1783246150132811500,2.4528115234375,-1.3066208362579346,0.7010607123374939,-2.3598809242248535
1783246150142822700,2.46282275390625,-1.2415326833724976,0.5248563885688782,-2.335495948791504
1783246150152834600,2.47283447265625,-1.160780668258667,0.3297216594219208,-2.3131680488586426
1783246150162846500,2.482846435546875,-1.0686124563217163,0.15434424579143524,-2.303415536880493
1783246150172858600,2.492858642578125,-1.0295103788375854,0.05593079328536987,-2.326681137084961
1783246150182869800,2.502869873046875,-0.989570140838623,-0.014204618521034718,-2.3516621589660645
1783246150192881700,2.512881591796875,-0.8983380198478699,-0.18313002586364746,-2.3155813217163086
1783246150202893800,2.522893798828125,-0.7313298583030701,-0.455614298582077,-2.188528060913086
1783246150212905700,2.53290576171875,-0.5251515507698059,-0.7824844121932983,-1.970215082168579
1783246150222917600,2.542917724609375,-0.33791881799697876,-1.1141364574432373,-1.73037850856781
1783246150232928800,2.5529287109375,-0.15884266793727875,-1.3036770820617676,-1.5784811973571777
1783246150242940700,2.562940673828125,-0.009916302748024464,-1.229136347770691,-1.5529351234436035
1783246150252952600,2.57295263671875,0.10013596713542938,-0.885883629322052,-1.6128140687942505
1783246150262964700,2.58296484375,0.12683628499507904,-0.4126145839691162,-1.7330658435821533
1783246150272976600,2.5929765625,0.027897248044610023,0.09683727473020554,-1.8841497898101807
1783246150282987500,2.602987548828125,-0.18091003596782684,0.5744118690490723,-2.0436418056488037
1783246150292999700,2.612999755859375,-0.4304163157939911,0.9654120206832886,-2.1721906661987305
1783246150303011600,2.623011474609375,-0.6771296858787537,1.2565724849700928,-2.2279112339019775
1783246150313023500,2.6330234375,-0.9161638617515564,1.4527883529663086,-2.224708318710327
1783246150323035600,2.64303564453125,-1.164926528930664,1.5679538249969482,-2.1229002475738525
1783246150333046800,2.653046875,-1.4131441116333008,1.5958055257797241,-1.8813724517822266
1783246150343058000,2.663057861328125,-1.5951112508773804,1.5687673091888428,-1.5472030639648438
1783246150353069800,2.67306982421875,-1.669755220413208,1.5408986806869507,-1.206313133239746
1783246150363082000,2.68308203125,-1.6791337728500366,1.481187343597412,-0.8706599473953247
1783246150373092900,2.6930927734375,-1.6585177183151245,1.4046237468719482,-0.5428298711776733
1783246150383104800,2.703104736328125,-1.6259113550186157,1.3824201822280884,-0.23421132564544678
1783246150393117000,2.713116943359375,-1.6369587182998657,1.4231276512145996,-0.015558908693492413
1783246150403128800,2.72312890625,-1.6880645751953125,1.5712974071502686,0.09233906120061874
1783246150413141000,2.73314111328125,-1.7716714143753052,1.8157347440719604,0.10759192705154419
1783246150423151900,2.74315185546875,-1.9020627737045288,2.105893135070801,0.09793690592050552
1783246150433163800,2.753163818359375,-2.0230019092559814,2.3680875301361084,0.09555265307426453
1783246150443175700,2.76317578125,-2.1958770751953125,2.5157852172851562,0.0838848128914833
1783246150453187800,2.773187744140625,-2.4820809364318848,2.7384660243988037,0.07352802157402039
1783246150463199700,2.78319970703125,-2.739816665649414,3.1498477458953857,0.07079774886369705
1783246150473211000,2.7932109375,-2.990947723388672,3.712928295135498,0.022893887013196945
1783246150483223000,2.80322314453125,-3.280822277069092,4.1236395835876465,-0.03335713595151901
1783246150493235000,2.81323486328125,-3.520732879638672,4.255044937133789,-0.05049457773566246
1783246150503246800,2.823246826171875,-3.596341133117676,4.153532028198242,-0.018372859805822372
1783246150513258000,2.833258056640625,-3.467113494873047,3.8671512603759766,-0.07533879578113556
1783246150523270000,2.843269775390625,-3.126241445541382,3.568181037902832,-0.3476472795009613
1783246150533281800,2.85328173828125,-2.604612112045288,3.043581485748291,-0.9717742204666138
1783246150543294000,2.8632939453125,-2.0174200534820557,2.1906583309173584,-1.7580701112747192
1783246150553305900,2.873305908203125,-1.6407274007797241,1.1511106491088867,-2.5489084720611572
1783246150563316700,2.883316650390625,-1.4445453882217407,0.25220462679862976,-3.325918436050415
1783246150573329000,2.893328857421875,-1.3282392024993896,-0.23871879279613495,-4.0138678550720215
1783246150583340800,2.9033408203125,-1.2202807664871216,-0.22009851038455963,-4.459866046905518
1783246150593352700,2.913352783203125,-1.1236709356307983,0.15506169199943542,-4.579817295074463
1783246150603364900,2.92336474609375,-1.0663357973098755,0.7733976244926453,-4.456510066986084
1783246150613376000,2.9333759765625,-1.0014660358428955,1.473560094833374,-4.1727118492126465
1783246150623388000,2.943387939453125,-0.9279372096061707,1.9876364469528198,-3.820720672607422
1783246150633400000,2.953400146484375,-0.8931767344474792,2.210505723953247,-3.540252447128296
1783246150643412000,2.963411865234375,-0.9152442216873169,2.196424722671509,-3.412440776824951
1783246150653423900,2.973423828125,-1.0135971307754517,1.9775243997573853,-3.3947882652282715
1783246150663435000,2.98343505859375,-1.1724592447280884,1.621650218963623,-3.405341625213623
1783246150673447000,2.993447021484375,-1.2884799242019653,1.270090103149414,-3.3329737186431885
1783246150683458800,3.003458740234375,-1.2690480947494507,0.9695526361465454,-3.1443798542022705
1783246150693471000,3.013470947265625,-1.1312166452407837,0.794926106929779,-2.908968925476074
1783246150703481900,3.02348193359375,-0.8931236863136292,0.8394352197647095,-2.643637180328369
1783246150713493800,3.03349365234375,-0.6719762086868286,0.953943133354187,-2.3838253021240234
1783246150723506000,3.043505859375,-0.5472661852836609,1.0372246503829956,-2.1668143272399902
1783246150733517800,3.053517822265625,-0.525640606880188,1.0318509340286255,-2.02640438079834
1783246150743529700,3.06352978515625,-0.5517116189002991,0.9083013534545898,-1.9349864721298218
1783246150753541000,3.073541015625,-0.5587687492370605,0.7618127465248108,-1.884596586227417
1783246150763553000,3.083552978515625,-0.5320428609848022,0.6824683547019958,-1.8933147192001343
1783246150773565000,3.09356494140625,-0.48637574911117554,0.7477507591247559,-1.9614652395248413
1783246150783577000,3.1035771484375,-0.4891220033168793,0.9016053080558777,-2.0680699348449707
1783246150793589000,3.113589111328125,-0.5463907718658447,1.085954189300537,-2.1469638347625732
1783246150803600000,3.123599853515625,-0.6452412009239197,1.2760673761367798,-2.1548657417297363
1783246150813612000,3.133612060546875,-0.7458990812301636,1.4175167083740234,-2.107393741607666
1783246150823624000,3.1436240234375,-0.8392258286476135,1.5016175508499146,-2.0317676067352295
1783246150833635800,3.1536357421875,-0.9222355484962463,1.5046701431274414,-1.9587793350219727
1783246150843648000,3.16364794921875,-0.9951254725456238,1.44873046875,-1.925279974937439
1783246150853659000,3.173658935546875,-1.0528820753097534,1.367679476737976,-1.9363532066345215
1783246150863670800,3.1836708984375,-1.1070822477340698,1.3161251544952393,-1.950727105140686
1783246150873683000,3.193682861328125,-1.1689136028289795,1.3237520456314087,-1.926283597946167
1783246150883694800,3.20369482421875,-1.2216547727584839,1.3820407390594482,-1.8313682079315186
1783246150893705700,3.213705810546875,-1.2692065238952637,1.4447702169418335,-1.6505712270736694
1783246150903718000,3.2237177734375,-1.3009817600250244,1.5117594003677368,-1.353378415107727
1783246150913729800,3.233729736328125,-1.297156572341919,1.530351161956787,-0.9898254871368408
1783246150923741700,3.24374169921875,-1.2884852886199951,1.4364564418792725,-0.6300233602523804
1783246150933753900,3.25375390625,-1.2696267366409302,1.3386846780776978,-0.3079911172389984
1783246150943765000,3.263764892578125,-1.2580851316452026,1.2922970056533813,-0.006997452117502689
1783246150953777000,3.27377685546875,-1.276084065437317,1.2002406120300293,0.23070746660232544
1783246150963789000,3.2837890625,-1.3499692678451538,1.133615493774414,0.4350762963294983
1783246150973801000,3.293801025390625,-1.454891562461853,1.1149730682373047,0.6420300602912903
1783246150983812900,3.303812744140625,-1.5595484972000122,1.1175302267074585,0.8232004046440125
1783246150993824000,3.313823974609375,-1.6151847839355469,1.0580755472183228,0.9224737882614136
1783246151003836000,3.3238359375,-1.6397961378097534,0.9396868944168091,0.8886955976486206
1783246151013847800,3.333847900390625,-1.6232444047927856,0.7166658043861389,0.7617911100387573
1783246151023860000,3.34385986328125,-1.6571176052093506,0.3616459369659424,0.684413492679596
1783246151033872000,3.353871826171875,-1.8550636768341064,0.022885065525770187,0.8412094116210938
1783246151043882800,3.3638828125,-2.2308225631713867,0.03999321162700653,1.1934034824371338
1783246151053895000,3.37389501953125,-2.541203498840332,0.7822358012199402,1.4494915008544922
1783246151063906800,3.38390673828125,-2.626539468765259,1.9850986003875732,1.2142139673233032
1783246151073918700,3.393918701171875,-2.563614845275879,3.2084567546844482,0.44544580578804016
1783246151083929900,3.403929931640625,-2.4034507274627686,4.0315961837768555,-0.6695412397384644
1783246151093942000,3.41394189453125,-2.285916805267334,4.089029788970947,-1.9736640453338623
1783246151103954000,3.423953857421875,-2.254554510116577,3.5700442790985107,-3.1555638313293457
1783246151113966000,3.433966064453125,-2.3684771060943604,2.8931615352630615,-3.9393155574798584
1783246151123978000,3.44397802734375,-2.5145890712738037,2.20535945892334,-4.462862491607666
1783246151133988900,3.45398876953125,-2.5102169513702393,1.6332463026046753,-4.838960647583008
1783246151144001000,3.4640009765625,-2.390315055847168,1.4010732173919678,-4.914139747619629
1783246151154013000,3.474012939453125,-2.176828145980835,1.408433198928833,-4.728092193603516
1783246151164024800,3.48402490234375,-1.929072380065918,1.4935837984085083,-4.413294792175293
1783246151174037000,3.494037109375,-1.8592885732650757,1.7262132167816162,-4.099613666534424
1783246151184047900,3.5040478515625,-1.9317113161087036,2.165207862854004,-3.941465139389038
1783246151194059800,3.514059814453125,-2.0781354904174805,2.55649471282959,-4.048370361328125
1783246151204072000,3.524072021484375,-2.2429802417755127,2.8256397247314453,-4.333182334899902
1783246151214083800,3.534083740234375,-2.3345870971679688,2.963715076446533,-4.610340118408203
1783246151224095700,3.544095703125,-2.381056785583496,2.934359312057495,-4.78236198425293
1783246151234107000,3.55410693359375,-2.267502784729004,2.8616726398468018,-4.793307781219482
1783246151244119000,3.564119140625,-2.0010721683502197,2.6606993675231934,-4.608242511749268
1783246151254131000,3.574130859375,-1.6311252117156982,2.122436285018921,-4.151508808135986
1783246151264143000,3.58414306640625,-1.1457058191299438,1.5624221563339233,-3.546130657196045
1783246151274155000,3.594155029296875,-0.6308993697166443,1.1737431287765503,-2.8666799068450928
1783246151284166000,3.604165771484375,-0.2473364919424057,0.8523373603820801,-2.1662983894348145
1783246151294178000,3.614177978515625,-0.0339721255004406,0.6338641047477722,-1.5204298496246338
1783246151304190000,3.62418994140625,0.04756347835063934,0.5415647625923157,-0.9866288304328918
1783246151314201900,3.634201904296875,0.013619915582239628,0.496549129486084,-0.6473066806793213
1783246151324212700,3.644212646484375,-0.07948952168226242,0.4888305068016052,-0.4995012581348419
1783246151334225000,3.654224853515625,-0.1796838641166687,0.48429182171821594,-0.5548129081726074
1783246151344237300,3.6642373046875,-0.25710517168045044,0.49672719836235046,-0.7432717680931091
1783246151354249200,3.674249267578125,-0.29441583156585693,0.5173490643501282,-0.9774090051651001
1783246151364261400,3.684261474609375,-0.2848774492740631,0.5027472376823425,-1.1976157426834106
1783246151374272300,3.694272216796875,-0.23570755124092102,0.4301456809043884,-1.4010742902755737
1783246151384284200,3.7042841796875,-0.19982466101646423,0.3591764271259308,-1.5572888851165771
1783246151394296000,3.714296142578125,-0.19171106815338135,0.35748612880706787,-1.6197278499603271
1783246151404308200,3.72430810546875,-0.21692641079425812,0.3875894248485565,-1.613088607788086
1783246151414320000,3.734320068359375,-0.2829097509384155,0.4221856892108917,-1.529152274131775
1783246151424331300,3.744331298828125,-0.40710148215293884,0.46138131618499756,-1.360823392868042
1783246151434343400,3.754343505859375,-0.5960177183151245,0.4630773663520813,-1.1245882511138916
1783246151444355300,3.764355224609375,-0.8311160206794739,0.4006243646144867,-0.831741213798523
1783246151454367200,3.7743671875,-1.0622254610061646,0.28651586174964905,-0.5429432392120361
1783246151464379400,3.78437939453125,-1.2848126888275146,0.17576296627521515,-0.327764630317688
1783246151474390300,3.794390380859375,-1.4884651899337769,0.1036553829908371,-0.17294694483280182
1783246151484402200,3.804402099609375,-1.6706302165985107,0.13667085766792297,-0.04035615548491478
1783246151494414300,3.814414306640625,-1.777888298034668,0.3840826749801636,0.10335031151771545
1783246151504426200,3.82442626953125,-1.8130841255187988,0.7724019289016724,0.25812390446662903
1783246151514438100,3.834438232421875,-1.7928704023361206,1.1438533067703247,0.4158180058002472
1783246151524449300,3.84444921875,-1.6982368230819702,1.3744220733642578,0.5488554239273071
1783246151534461200,3.854461181640625,-1.572747826576233,1.4252009391784668,0.5526341795921326
1783246151544473000,3.86447314453125,-1.4392368793487549,1.415124535560608,0.4285888969898224
1783246151554485200,3.8744853515625,-1.350213646888733,1.3840938806533813,0.27677997946739197
1783246151564497200,3.8844970703125,-1.3495689630508423,1.2984553575515747,0.23212087154388428
1783246151574508300,3.89450830078125,-1.356040596961975,1.2484990358352661,0.3989488184452057
1783246151584520400,3.9045205078125,-1.3357385396957397,1.2884347438812256,0.7512964606285095
1783246151594532400,3.914532470703125,-1.3539434671401978,1.5328140258789062,1.1935914754867554
1783246151604544300,3.924544189453125,-1.4511773586273193,2.057677745819092,1.5357520580291748
1783246151614556400,3.934556396484375,-1.5597597360610962,2.6588034629821777,1.4920397996902466
1783246151624567300,3.9445673828125,-1.583762526512146,3.116238594055176,0.9460279941558838
1783246151634579200,3.9545791015625,-1.6009067296981812,3.430143356323242,-0.03973523899912834
1783246151644591400,3.96459130859375,-1.6576858758926392,3.7980117797851562,-1.207782506942749
1783246151654603300,3.974603271484375,-1.7167766094207764,4.069441795349121,-2.298215627670288
1783246151664615200,3.984615234375,-1.7921713590621948,3.980818510055542,-3.3835418224334717
1783246151674626300,3.994626220703125,-1.8661725521087646,3.5082273483276367,-4.369268417358398
1783246151684638200,4.00463818359375,-1.9958562850952148,2.9441661834716797,-4.956714153289795
1783246151694650000,4.014650146484375,-2.052590847015381,2.5937764644622803,-5.090958118438721
1783246151704662300,4.024662353515625,-1.8971744775772095,2.4720022678375244,-4.884975910186768
1783246151714674200,4.034674072265625,-1.5812267065048218,2.4566378593444824,-4.503288745880127
1783246151724685300,4.044685302734375,-1.2684472799301147,2.383646011352539,-4.1770124435424805
1783246151734697200,4.054697265625,-1.0756494998931885,2.387868881225586,-4.023393630981445
1783246151744709400,4.06470947265625,-1.0595703125,2.542165756225586,-3.971522092819214
1783246151754721300,4.07472119140625,-1.204251766204834,2.839996814727783,-3.902172565460205
1783246151764732400,4.084732421875,-1.4255186319351196,3.2236077785491943,-3.7982418537139893
1783246151774744300,4.094744384765625,-1.6119989156723022,3.6152291297912598,-3.664536952972412
1783246151784756200,4.104756103515625,-1.7500585317611694,3.8667819499969482,-3.5012123584747314
1783246151794768400,4.114768310546875,-1.820006012916565,3.9082701206207275,-3.2637436389923096
1783246151804780300,4.1247802734375,-1.802750587463379,3.7637503147125244,-2.9491050243377686
1783246151814791200,4.134791259765625,-1.7333430051803589,3.4859187602996826,-2.534825325012207
1783246151824803300,4.14480322265625,-1.6583969593048096,3.064870834350586,-2.007549524307251
1783246151834815200,4.154815185546875,-1.5580159425735474,2.5872364044189453,-1.4987576007843018
1783246151844827100,4.1648271484375,-1.4836355447769165,2.255742073059082,-1.1967229843139648
1783246151854839300,4.17483935546875,-1.5212751626968384,2.2334630489349365,-1.1172230243682861
1783246151864850200,4.18485009765625,-1.6756356954574585,2.6338491439819336,-1.1355834007263184
1783246151874862000,4.194862060546875,-1.9284926652908325,3.290189027786255,-1.1693741083145142
1783246151884874200,4.204874267578125,-2.2497036457061768,3.8300485610961914,-1.1776137351989746
1783246151894886100,4.21488623046875,-2.623976469039917,4.210666656494141,-1.0558420419692993
1783246151904898000,4.22489794921875,-2.9565484523773193,4.496482849121094,-0.8085821866989136
1783246151914909400,4.234909423828125,-3.1504130363464355,4.600381374359131,-0.5329610705375671
1783246151924921300,4.24492138671875,-3.2470338344573975,4.505300521850586,-0.23780421912670135
1783246151934933200,4.254933349609375,-3.279181957244873,4.275455951690674,0.07283993810415268
1783246151944945400,4.2649453125,-3.277674913406372,3.9691672325134277,0.3383014500141144
1783246151954957300,4.274957275390625,-3.241262674331665,3.690373659133911,0.5530401468276978
1783246151964968200,4.28496826171875,-3.1566874980926514,3.4329721927642822,0.7272529602050781
1783246151974980400,4.29498046875,-3.029068946838379,3.226222276687622,0.8846020102500916
1783246151984992300,4.3049921875,-2.8869361877441406,3.049475908279419,1.0344908237457275
1783246151995004200,4.315004150390625,-2.752163887023926,2.846980094909668,1.1888457536697388
1783246152005016300,4.325016357421875,-2.6200602054595947,2.633610725402832,1.3544632196426392
1783246152015027200,4.335027099609375,-2.4999871253967285,2.365701675415039,1.5212641954421997
1783246152025039000,4.3450390625,-2.4198434352874756,2.0427680015563965,1.7100352048873901
1783246152035051300,4.35505126953125,-2.3874831199645996,1.6910749673843384,1.9293596744537354
1783246152045063200,4.365063232421875,-2.4049317836761475,1.3922094106674194,2.142303466796875
1783246152055074300,4.37507421875,-2.445444107055664,1.2061179876327515,2.2674360275268555
1783246152065086500,4.38508642578125,-2.471721887588501,1.102812647819519,2.3113303184509277
1783246152075098400,4.395098388671875,-2.4925029277801514,1.038830041885376,2.3506076335906982
1783246152085110300,4.4051103515625,-2.586047887802124,0.9112462997436523,2.4052820205688477
1783246152095122400,4.415122314453125,-2.779127836227417,0.8364630341529846,2.475055456161499
1783246152105133300,4.42513330078125,-2.913191795349121,0.8384095430374146,2.548098564147949
1783246152115145200,4.435145263671875,-2.9596400260925293,0.791864275932312,2.60738205909729
1783246152125157400,4.445157470703125,-2.991313934326172,0.5615730285644531,2.624830722808838
1783246152135169300,4.455169189453125,-3.05204701423645,0.13337908685207367,2.6344451904296875
1783246152145181200,4.46518115234375,-3.1331777572631836,-0.2459557205438614,2.6410014629364014
1783246152155192300,4.4751923828125,-3.3556714057922363,-0.4774625897407532,2.4571738243103027
1783246152165204200,4.485204345703125,-3.665783405303955,-0.46135634183883667,2.0030853748321533
1783246152175216000,4.495216064453125,-4.054665565490723,-0.1462143063545227,1.440921425819397
1783246152185228300,4.505228271484375,-4.520412445068359,0.2527613043785095,0.8416405320167542
1783246152195239400,4.515239501953125,-4.814057350158691,0.5199270844459534,0.42248544096946716
1783246152205251300,4.525251220703125,-4.800097942352295,0.6363983154296875,0.28837850689888
1783246152215263500,4.535263427734375,-4.623539447784424,0.5086905360221863,0.2257491499185562
1783246152225275400,4.545275390625,-4.430384635925293,0.38167455792427063,0.20348192751407623
1783246152235287300,4.555287353515625,-4.174444198608398,0.23444151878356934,0.17763254046440125
1783246152245298400,4.56529833984375,-3.889892339706421,0.01579892635345459,0.06125159561634064
1783246152255310300,4.575310302734375,-3.6416733264923096,-0.04825621843338013,-0.011012135073542595
1783246152265322200,4.585322265625,-3.4265968799591064,0.1905137598514557,0.11273004859685898
1783246152275334400,4.59533447265625,-3.2727644443511963,0.6482071280479431,0.46704360842704773
1783246152285346300,4.60534619140625,-3.105376958847046,1.0922203063964844,0.9163902401924133
1783246152295357200,4.615357177734375,-2.8285906314849854,1.3559716939926147,1.2618227005004883
1783246152305369300,4.625369384765625,-2.485454559326172,1.1980921030044556,1.3332513570785522
1783246152315381200,4.63538134765625,-2.152827739715576,0.5930396318435669,1.1026062965393066
1783246152325393200,4.64539306640625,-1.8677945137023926,-0.24617329239845276,0.5518227815628052
1783246152335404000,4.655404052734375,-1.7306406497955322,-1.0735044479370117,-0.18241456151008606
1783246152345416200,4.665416259765625,-1.8366960287094116,-1.6097252368927002,-0.8510158061981201
1783246152355428400,4.675428466796875,-2.139369487762451,-1.6452066898345947,-1.306190013885498
1783246152365440300,4.685440185546875,-2.4971930980682373,-1.1688878536224365,-1.479109287261963
1783246152375452200,4.6954521484375,-2.876487970352173,-0.3756544888019562,-1.3219140768051147
1783246152385463600,4.705463623046875,-3.1926026344299316,0.512747049331665,-0.8358897566795349
1783246152395475500,4.715475341796875,-3.3400535583496094,1.2553377151489258,-0.16595105826854706
1783246152405487400,4.7254873046875,-3.294482707977295,1.5935282707214355,0.44172078371047974
1783246152415499500,4.73549951171875,-3.1210834980010986,1.3917319774627686,0.8904210925102234
1783246152425511400,4.745511474609375,-2.8855624198913574,0.7791367769241333,1.1442543268203735
1783246152435522300,4.755522216796875,-2.6112937927246094,-0.0072692688554525375,1.2347424030303955
1783246152445534500,4.765534423828125,-2.3275022506713867,-0.7125643491744995,1.216411828994751
1783246152455546400,4.77554638671875,-2.0654354095458984,-1.1951874494552612,1.1569210290908813
1783246152465558300,4.785558349609375,-1.8824650049209595,-1.4972034692764282,1.1068283319473267
1783246152475569400,4.7955693359375,-1.8028960227966309,-1.617939829826355,1.0858032703399658
1783246152485581300,4.805581298828125,-1.8148932456970215,-1.4838272333145142,1.0471980571746826
1783246152495593200,4.81559326171875,-1.9230533838272095,-1.1680185794830322,0.9097890853881836
1783246152505605400,4.82560546875,-2.1270272731781006,-0.8240769505500793,0.6828470230102539
1783246152515617300,4.8356171875,-2.372643232345581,-0.42115187644958496,0.46485763788223267
1783246152525628400,4.84562841796875,-2.542659282684326,-0.07197151333093643,0.26553013920783997
1783246152535640600,4.855640625,-2.6143596172332764,0.0742916390299797,0.10631631314754486
1783246152545652500,4.865652587890625,-2.571084976196289,0.01454015914350748,0.05726354569196701
1783246152555664400,4.875664306640625,-2.498775005340576,-0.29020145535469055,0.08214687556028366
1783246152565675500,4.885675537109375,-2.4523017406463623,-0.6530830264091492,0.16868042945861816
1783246152575687400,4.8956875,-2.4564998149871826,-0.9858009219169617,0.3247237801551819
1783246152585699300,4.90569921875,-2.5239617824554443,-1.2365103960037231,0.531826376914978
1783246152595711500,4.91571142578125,-2.5465614795684814,-1.2817195653915405,0.7733126282691956
1783246152605723400,4.925723388671875,-2.429326295852661,-1.0840612649917603,0.9368177056312561
1783246152615734300,4.935734375,-2.2517597675323486,-0.8163087368011475,0.9912149310112
1783246152625746400,4.945746337890625,-2.094251871109009,-0.5658131837844849,1.0358141660690308
1783246152635758300,4.95575830078125,-1.986465573310852,-0.5100674033164978,1.057926893234253
1783246152645770200,4.965770263671875,-1.9521592855453491,-0.7552827000617981,1.0364242792129517
1783246152655782400,4.975782470703125,-1.970243215560913,-1.2746176719665527,1.0847405195236206
1783246152665793500,4.98579345703125,-2.0120017528533936,-1.9533871412277222,1.2799274921417236
1783246152675805400,4.995805419921875,-2.115135431289673,-2.4001386165618896,1.6566572189331055
1783246152685817600,5.005817626953125,-2.2322351932525635,-2.3612382411956787,2.2186543941497803
1783246152695829500,5.01582958984375,-2.275592565536499,-1.831700086593628,2.843372344970703
1783246152705840400,5.02584033203125,-2.3058691024780273,-1.1211583614349365,3.210021495819092
1783246152715852500,5.0358525390625,-2.286153793334961,-0.657741129398346,3.178884744644165
1783246152725864400,5.045864501953125,-2.2379183769226074,-0.5151911377906799,2.8145482540130615
1783246152735876400,5.05587646484375,-2.235628843307495,-0.61513751745224,2.278172731399536
1783246152745888500,5.065888427734375,-2.339982032775879,-0.8283512592315674,1.8021759986877441
1783246152755899400,5.0758994140625,-2.3451366424560547,-1.2902089357376099,1.456594467163086
1783246152765911300,5.085911376953125,-2.156831979751587,-2.005100965499878,1.1229028701782227
1783246152775923500,5.09592333984375,-1.9407967329025269,-2.3436644077301025,0.7934609651565552
1783246152785935400,5.105935302734375,-1.6196773052215576,-2.010584592819214,0.5378177165985107
1783246152795947300,5.115947265625,-1.2025941610336304,-1.2792985439300537,0.36872491240501404
1783246152805958400,5.12595849609375,-0.7373474836349487,-0.7604137659072876,0.28349632024765015
1783246152815970300,5.13597021484375,-0.28414449095726013,-0.8028320074081421,0.23019656538963318
1783246152825982200,5.145982177734375,0.15191350877285004,-1.3598265647888184,0.12887127697467804
1783246152835994400,5.155994384765625,0.44251370429992676,-2.1543667316436768,0.03639010339975357
1783246152846005500,5.166005615234375,0.3918486535549164,-2.7249820232391357,-0.008948616683483124
1783246152856017400,5.176017333984375,0.13085439801216125,-2.7982306480407715,-0.049559127539396286
1783246152866029600,5.186029541015625,-0.13871262967586517,-2.472254753112793,-0.14551813900470734
1783246152876041500,5.19604150390625,-0.32562872767448425,-1.9225518703460693,-0.35054945945739746
1783246152886053400,5.206053466796875,-0.4803890287876129,-1.3720368146896362,-0.7023229598999023
1783246152896064300,5.216064208984375,-0.7061452865600586,-0.9058740139007568,-1.0880563259124756
1783246152906076400,5.226076416015625,-1.0599172115325928,-0.6045844554901123,-1.4137353897094727
1783246152916088300,5.23608837890625,-1.4971206188201904,-0.4861546754837036,-1.645132064819336
1783246152926100500,5.2461005859375,-1.8984416723251343,-0.40112313628196716,-1.8112459182739258
1783246152936111400,5.256111328125,-2.1820197105407715,-0.24237585067749023,-1.921609878540039
1783246152946123300,5.266123291015625,-2.3259975910186768,-0.08140559494495392,-1.9099191427230835
1783246152956135400,5.276135498046875,-2.318098545074463,-0.04418467357754707,-1.7287434339523315
1783246152966147300,5.286147216796875,-2.2123608589172363,-0.15114307403564453,-1.2998416423797607
1783246152976159200,5.2961591796875,-2.1017212867736816,-0.3915115296840668,-0.6738753318786621
1783246152986170400,5.30617041015625,-2.0026917457580566,-0.6614002585411072,-0.03456221520900726
1783246152996182500,5.3161826171875,-1.8744690418243408,-0.8884139657020569,0.4922070801258087
1783246153006194400,5.3261943359375,-1.725988507270813,-1.0058274269104004,0.8687130808830261
1783246153016206600,5.33620654296875,-1.6327674388885498,-1.1340007781982422,1.0383687019348145
1783246153026217500,5.346217529296875,-1.6196343898773193,-1.2657604217529297,1.001795768737793
1783246153036229400,5.3562294921875,-1.6341922283172607,-1.3027933835983276,0.7885364294052124
1783246153046241300,5.3662412109375,-1.6314510107040405,-1.2371360063552856,0.4493599534034729
1783246153056253400,5.37625341796875,-1.6068780422210693,-1.0304311513900757,0.1403542459011078
1783246153066265300,5.386265380859375,-1.574552059173584,-0.837120532989502,-0.046441465616226196
1783246153076276200,5.396276123046875,-1.5879868268966675,-0.7834374904632568,-0.11112626641988754
1783246153086288400,5.406288330078125,-1.6340692043304443,-0.9479654431343079,-0.05412982776761055
1783246153096300300,5.41630029296875,-1.6647021770477295,-1.230122447013855,0.08159898966550827
1783246153106312400,5.4263125,-1.6585739850997925,-1.4794931411743164,0.251236230134964
1783246153116323600,5.436323486328125,-1.6351639032363892,-1.6077617406845093,0.5122646689414978
1783246153126335500,5.44633544921875,-1.5915030241012573,-1.6470084190368652,0.8571842312812805
1783246153136347400,5.456347412109375,-1.5222893953323364,-1.6415376663208008,1.1877025365829468
1783246153146359600,5.466359619140625,-1.4257081747055054,-1.6411176919937134,1.402273416519165
1783246153156371500,5.476371337890625,-1.3429350852966309,-1.6507364511489868,1.4426889419555664
1783246153166382300,5.48638232421875,-1.271653413772583,-1.6461808681488037,1.3631418943405151
1783246153176394500,5.49639453125,-1.2106143236160278,-1.5736061334609985,1.2518892288208008
1783246153186406400,5.506406494140625,-1.1911358833312988,-1.4690406322479248,1.1069644689559937
1783246153196418300,5.516418212890625,-1.2208293676376343,-1.4246798753738403,0.9523751735687256
1783246153206430500,5.526430419921875,-1.2661458253860474,-1.5021411180496216,0.9096085429191589
1783246153216441300,5.53644140625,-1.2536808252334595,-1.6517691612243652,1.0413709878921509
1783246153226453200,5.546453369140625,-1.167995810508728,-1.790018916130066,1.283906102180481
1783246153236465400,5.55646533203125,-1.0363088846206665,-1.9478994607925415,1.6508597135543823
1783246153246477300,5.566477294921875,-0.8942233920097351,-2.0489561557769775,2.099116563796997
1783246153256488400,5.576488525390625,-0.7513530254364014,-1.9991378784179688,2.4188432693481445
1783246153266500400,5.586500244140625,-0.617279589176178,-1.9402964115142822,2.4236438274383545
1783246153276512500,5.596512451171875,-0.589698314666748,-1.8466193675994873,2.1776270866394043
1783246153286524400,5.6065244140625,-0.7350996732711792,-1.8036510944366455,1.7330213785171509
1783246153296536300,5.616536376953125,-0.8269556760787964,-1.968380331993103,1.112733006477356
1783246153306547500,5.62654736328125,-0.8159549236297607,-2.026203155517578,0.6256358027458191
1783246153316559400,5.636559326171875,-0.7417628765106201,-1.760500192642212,0.5430135726928711
1783246153326571500,5.646571533203125,-0.5774170756340027,-1.492562174797058,0.49932363629341125
1783246153336583400,5.65658349609375,-0.30742114782333374,-1.4978852272033691,0.20360583066940308
1783246153346594300,5.66659423828125,-0.007404617965221405,-1.6742123365402222,-0.2606337368488312
1783246153356606500,5.6766064453125,0.22721195220947266,-1.9899187088012695,-0.7676171660423279
1783246153366618400,5.686618408203125,0.31364354491233826,-2.43039608001709,-1.3727030754089355
1783246153376630500,5.696630615234375,0.21002213656902313,-2.5604100227355957,-2.0244834423065186
1783246153386642400,5.706642333984375,0.020617052912712097,-2.1207082271575928,-2.5706875324249268
1783246153396653300,5.7166533203125,-0.19434042274951935,-1.539573311805725,-2.937682628631592
1783246153406665200,5.726665283203125,-0.3738071322441101,-1.1732839345932007,-3.0172910690307617
1783246153416677400,5.736677490234375,-0.47761741280555725,-1.0826174020767212,-2.7803237438201904
1783246153426689300,5.746689208984375,-0.4980941712856293,-1.162766933441162,-2.355119466781616
1783246153436700400,5.756700439453125,-0.5098522901535034,-1.3394665718078613,-1.9201757907867432
1783246153446712600,5.766712646484375,-0.5558658242225647,-1.4793168306350708,-1.5667797327041626
1783246153456724500,5.776724365234375,-0.5658842921257019,-1.566518783569336,-1.395711898803711
1783246153466736600,5.786736572265625,-0.45964762568473816,-1.6512786149978638,-1.3629735708236694
1783246153476748500,5.79674853515625,-0.3623364567756653,-1.68825364112854,-1.402087926864624
1783246153486759400,5.806759521484375,-0.395572692155838,-1.6057335138320923,-1.508398413658142
1783246153496771300,5.816771240234375,-0.6017770171165466,-1.3582230806350708,-1.7333173751831055
1783246153506783500,5.826783447265625,-0.8607015609741211,-0.8581839203834534,-1.9145033359527588
1783246153516795400,5.83679541015625,-1.0596972703933716,-0.4041603207588196,-1.9422895908355713
1783246153526807600,5.8468076171875,-1.1692702770233154,-0.17176435887813568,-1.771889328956604
1783246153536818400,5.856818359375,-1.1805473566055298,-0.20186080038547516,-1.4304615259170532
1783246153546830300,5.866830322265625,-1.114028811454773,-0.39533624053001404,-0.9765416383743286
1783246153556842200,5.87684228515625,-1.0279546976089478,-0.6400763392448425,-0.4585878849029541
1783246153566854400,5.8868544921875,-0.9685715436935425,-0.8528802394866943,0.05147353559732437
1783246153576865500,5.896865478515625,-0.9641783833503723,-0.966401219367981,0.4543895423412323
1783246153586877400,5.90687744140625,-1.0133496522903442,-0.9557182192802429,0.6633228063583374
1783246153596889600,5.9168896484375,-1.1162798404693604,-0.8009834885597229,0.6451119184494019
1783246153606901500,5.926901611328125,-1.250568151473999,-0.5607125759124756,0.4286361038684845
1783246153616913400,5.936913330078125,-1.3733540773391724,-0.3568814694881439,0.07837346196174622
1783246153626924500,5.946924560546875,-1.4731779098510742,-0.2206253707408905,-0.2728378176689148
1783246153636936400,5.9569365234375,-1.5469342470169067,-0.13723914325237274,-0.4898363947868347
1783246153646948400,5.9669482421875,-1.5970661640167236,-0.16067363321781158,-0.5670140385627747
1783246153656960500,5.97696044921875,-1.6204698085784912,-0.2927563488483429,-0.5198779106140137
1783246153666971400,5.986971435546875,-1.5802315473556519,-0.49736353754997253,-0.3434850871562958
1783246153676983300,5.9969833984375,-1.4849568605422974,-0.7128031849861145,-0.0498194694519043
1783246153686995500,6.006995361328125,-1.384220838546753,-0.8992820382118225,0.299495667219162
1783246153697007400,6.01700732421875,-1.314570665359497,-1.0104128122329712,0.5834965109825134
1783246153707019300,6.027019287109375,-1.2658084630966187,-1.0174931287765503,0.7443410158157349
1783246153717030400,6.037030517578125,-1.2222981452941895,-0.9352691173553467,0.7980955243110657
1783246153727042600,6.04704248046875,-1.1971898078918457,-0.866511881351471,0.7781782746315002
1783246153737054500,6.057054443359375,-1.2007354497909546,-0.8420773148536682,0.7263187766075134
1783246153747066600,6.067066650390625,-1.252858281135559,-0.7657425999641418,0.707679808139801
1783246153757077500,6.077077392578125,-1.3060671091079712,-0.7299323081970215,0.7310220003128052
1783246153767089400,6.08708935546875,-1.336645483970642,-0.8759097456932068,0.8056376576423645
1783246153777101600,6.0971015625,-1.3295544385910034,-1.1474742889404297,0.9272578358650208
1783246153787113500,6.107113525390625,-1.330839991569519,-1.3712586164474487,1.0589045286178589
1783246153797125400,6.11712548828125,-1.2778384685516357,-1.441843032836914,1.2597843408584595
1783246153807136500,6.127136474609375,-1.15463125705719,-1.3645753860473633,1.5521742105484009
1783246153817148400,6.1371484375,-1.0211597681045532,-1.2144396305084229,1.8467016220092773
1783246153827160300,6.147160400390625,-0.9403530955314636,-1.0566809177398682,2.081143617630005
1783246153837172500,6.15717236328125,-0.9746649265289307,-0.8350861668586731,2.198500633239746
1783246153847184400,6.167184326171875,-1.0810285806655884,-0.7915679812431335,1.9854933023452759
1783246153857195300,6.1771953125,-1.207198143005371,-1.0407328605651855,1.4744590520858765
1783246153867207400,6.18720751953125,-1.2411137819290161,-1.2645851373672485,1.0008691549301147
1783246153877219300,6.19721923828125,-1.1538010835647583,-1.3970818519592285,0.6211649179458618
1783246153887231200,6.207231201171875,-0.8845630288124084,-1.5086987018585205,0.23818394541740417
1783246153897242600,6.21724267578125,-0.5161510705947876,-1.6001733541488647,-0.09325218945741653
1783246153907254500,6.227254638671875,-0.1919088214635849,-1.7399967908859253,-0.24304434657096863
1783246153917266400,6.237266357421875,0.06743223965167999,-1.8728818893432617,-0.25767239928245544
1783246153927278600,6.247278564453125,0.16874313354492188,-2.0410664081573486,-0.35778355598449707
1783246153937290500,6.25729052734375,0.10332568734884262,-2.2160797119140625,-0.7893386483192444
1783246153947301400,6.26730126953125,-0.07857273519039154,-2.2224743366241455,-1.4798697233200073
1783246153957313500,6.2773134765625,-0.3034881353378296,-1.9089924097061157,-2.046672821044922
1783246153967325400,6.287325439453125,-0.523280918598175,-1.471571445465088,-2.301246404647827
1783246153977337300,6.29733740234375,-0.7042549848556519,-1.2281458377838135,-2.2461812496185303
1783246153987348500,6.307348388671875,-0.7474170923233032,-1.213168740272522,-1.9522125720977783
1783246153997360400,6.3173603515625,-0.6688369512557983,-1.4417974948883057,-1.548521876335144
1783246154007372300,6.327372314453125,-0.5267472267150879,-1.8111515045166016,-1.13430917263031
1783246154017384400,6.337384521484375,-0.4078063368797302,-2.09150767326355,-0.7894856929779053
1783246154027396400,6.347396240234375,-0.38849151134490967,-2.100386142730713,-0.6221214532852173
1783246154037407500,6.357407470703125,-0.48040151596069336,-1.8544340133666992,-0.6796695590019226
1783246154047419600,6.367419677734375,-0.6717193126678467,-1.5076159238815308,-0.9174128770828247
1783246154057431600,6.377431640625,-0.8785350918769836,-1.2247756719589233,-1.1793750524520874
1783246154067443500,6.387443359375,-1.020128607749939,-0.9597461819648743,-1.35020112991333
1783246154077454300,6.397454345703125,-1.070592999458313,-0.729374885559082,-1.4251515865325928
1783246154087466500,6.407466552734375,-1.0311696529388428,-0.548335075378418,-1.3668688535690308
1783246154097478400,6.417478515625,-0.905894935131073,-0.43404263257980347,-1.1166412830352783
1783246154107490600,6.427490478515625,-0.7383456230163574,-0.42845025658607483,-0.6969294548034668
1783246154117502500,6.43750244140625,-0.575097918510437,-0.5452306270599365,-0.19884948432445526
1783246154127513300,6.447513427734375,-0.4808043837547302,-0.7563559412956238,0.2696886956691742
1783246154137525200,6.457525146484375,-0.480460524559021,-0.9172002077102661,0.6179322004318237
1783246154147537400,6.467537353515625,-0.5445820093154907,-0.9373523592948914,0.767638087272644
1783246154157549300,6.47754931640625,-0.6295086145401001,-0.7693814635276794,0.7451301217079163
1783246154167561500,6.4875615234375,-0.6813853979110718,-0.4852314889431,0.6424759030342102
1783246154177572600,6.497572509765625,-0.7075285911560059,-0.18374858796596527,0.5048028230667114
1783246154187584500,6.50758447265625,-0.7063472270965576,0.030849462375044823,0.3603827953338623
1783246154197596700,6.5175966796875,-0.723747193813324,0.10731813311576843,0.22776898741722107
1783246154207608600,6.527608642578125,-0.7565794587135315,0.08321359753608704,0.155634343624115
1783246154217619500,6.537619384765625,-0.796371579170227,-0.05299297720193863,0.19784891605377197
1783246154227631400,6.54763134765625,-0.8483699560165405,-0.3061065673828125,0.3172585666179657
1783246154237643500,6.5576435546875,-0.8760022521018982,-0.5397849678993225,0.4719739854335785
1783246154247655400,6.567655517578125,-0.892684817314148,-0.6787718534469604,0.6023197770118713
1783246154257667600,6.57766748046875,-0.9288362860679626,-0.6818643808364868,0.6614053845405579
1783246154267678500,6.587678466796875,-0.9822499752044678,-0.5688949823379517,0.6746958494186401
1783246154277690400,6.5976904296875,-1.0206327438354492,-0.3996047377586365,0.6790866851806641
1783246154287702300,6.607702392578125,-1.058885097503662,-0.26308098435401917,0.6604411005973816
1783246154297714400,6.61771435546875,-1.099393367767334,-0.26250216364860535,0.6257686614990234
1783246154307725300,6.627725341796875,-1.1596431732177734,-0.4430178701877594,0.5871205925941467
1783246154317737200,6.6377373046875,-1.2098523378372192,-0.6974214315414429,0.5880028009414673
1783246154327749400,6.647749267578125,-1.2095255851745605,-0.9676241278648376,0.6642123460769653
1783246154337761300,6.65776123046875,-1.1807148456573486,-1.1066073179244995,0.8111880421638489
1783246154347773400,6.6677734375,-1.1427414417266846,-1.1050459146499634,1.0160255432128906
1783246154357784600,6.67778466796875,-1.0866541862487793,-1.0133213996887207,1.2422274351119995
1783246154367796500,6.68779638671875,-1.0404152870178223,-0.8906813263893127,1.505868911743164
1783246154377808400,6.697808349609375,-1.0790175199508667,-0.8939908742904663,1.7253118753433228
1783246154387820500,6.707820556640625,-1.152607798576355,-1.0394604206085205,1.7879887819290161
1783246154397832400,6.71783251953125,-1.3145859241485596,-1.1490191221237183,1.6775920391082764
1783246154407843300,6.72784326171875,-1.4967488050460815,-1.0595898628234863,1.488351821899414
1783246154417855500,6.73785546875,-1.5997402667999268,-0.883118748664856,1.2564436197280884
1783246154427867400,6.747867431640625,-1.5902693271636963,-0.767534613609314,1.026777982711792
1783246154437879300,6.75787939453125,-1.3703778982162476,-0.7245370149612427,0.8550823330879211
1783246154447890400,6.767890380859375,-0.955950915813446,-0.7945549488067627,0.6817232966423035
1783246154457902300,6.77790234375,-0.47828537225723267,-1.0609978437423706,0.33160021901130676
1783246154467914200,6.787914306640625,0.03323889151215553,-1.5209438800811768,-0.28940102458000183
1783246154477926400,6.797926513671875,0.43107959628105164,-1.9549256563186646,-1.0250465869903564
1783246154487938300,6.807938232421875,0.6738919615745544,-2.088059902191162,-1.5627598762512207
1783246154497949400,6.817949462890625,0.7573133111000061,-1.9175809621810913,-1.7668746709823608
1783246154507961600,6.827961669921875,0.7215486764907837,-1.752318263053894,-1.6016055345535278
1783246154517973500,6.837973388671875,0.589856743812561,-1.754736065864563,-1.2135030031204224
1783246154527985400,6.8479853515625,0.45435911417007446,-1.8949530124664307,-0.946725070476532
1783246154537996500,6.85799658203125,0.392151415348053,-1.9542030096054077,-0.9226793646812439
1783246154548008400,6.868008544921875,0.41091790795326233,-1.8344210386276245,-1.113283395767212
1783246154558020400,6.878020263671875,0.4395331144332886,-1.6166366338729858,-1.4697312116622925
1783246154568032500,6.888032470703125,0.4314538836479187,-1.4211031198501587,-1.9121443033218384
1783246154578044400,6.89804443359375,0.3814919888973236,-1.342877745628357,-2.4236273765563965
1783246154588055300,6.90805517578125,0.25915995240211487,-1.3791550397872925,-2.9713528156280518
1783246154598067500,6.9180673828125,0.06383024901151657,-1.3471184968948364,-3.3200597763061523
1783246154608079400,6.928079345703125,-0.23843666911125183,-1.204465389251709,-3.320049524307251
1783246154618091300,6.93809130859375,-0.5474268794059753,-0.9459738731384277,-3.0071403980255127
1783246154628102700,6.9481025390625,-0.7622140049934387,-0.694011926651001,-2.513906240463257
1783246154638114600,6.958114501953125,-0.8135707378387451,-0.5255979299545288,-1.9214822053909302
1783246154648126500,6.96812646484375,-0.726849377155304,-0.5183162689208984,-1.31830894947052
1783246154658138600,6.978138671875,-0.5635809898376465,-0.7088953852653503,-0.7905277609825134
1783246154668150500,6.988150634765625,-0.39831236004829407,-0.9593816995620728,-0.4184325039386749
1783246154678161400,6.998161376953125,-0.26790153980255127,-1.0882102251052856,-0.22853423655033112
1783246154688173600,7.008173583984375,-0.22779512405395508,-1.0633125305175781,-0.1671222746372223
1783246154698185500,7.018185546875,-0.28308793902397156,-0.8895769715309143,-0.15587341785430908
1783246154708197400,7.028197265625,-0.3739992082118988,-0.5654715895652771,-0.17554831504821777
1783246154718208500,7.03820849609375,-0.4548039436340332,-0.24485380947589874,-0.20674894750118256
1783246154728220400,7.048220458984375,-0.5255942344665527,-0.10139305144548416,-0.21270564198493958
1783246154738232300,7.058232421875,-0.5875118374824524,-0.14010119438171387,-0.1633863002061844
1783246154748244500,7.068244384765625,-0.6374812126159668,-0.25284186005592346,-0.08117372542619705
1783246154758256400,7.07825634765625,-0.6880614161491394,-0.3684350848197937,0.010985692963004112
1783246154768267500,7.088267578125,-0.7320379018783569,-0.43063798546791077,0.07320459187030792
1783246154778279400,7.098279541015625,-0.7605890035629272,-0.4251194894313812,0.0948069617152214
1783246154788291300,7.108291259765625,-0.7925298810005188,-0.3789091110229492,0.0818011462688446
1783246154798303500,7.118303466796875,-0.8304005265235901,-0.3534596562385559,0.0506117157638073
1783246154808315400,7.1283154296875,-0.8685553669929504,-0.39273008704185486,0.026232074946165085
1783246154818326500,7.138326416015625,-0.9103206992149353,-0.49698522686958313,0.03857218101620674
1783246154828338400,7.14833837890625,-0.9330151081085205,-0.6683162450790405,0.11083679646253586
1783246154838350600,7.1583505859375,-0.9262090921401978,-0.8612926006317139,0.27168312668800354
1783246154848362500,7.168362548828125,-0.8925094604492188,-0.9425408244132996,0.5052024126052856
1783246154858373400,7.178373291015625,-0.7683384418487549,-1.1345927715301514,0.5438311696052551
1783246154868385500,7.188385498046875,-0.6706497073173523,-1.2021223306655884,0.49000653624534607
1783246154878397400,7.1983974609375,-0.6211762428283691,-1.1307929754257202,0.4045538306236267
1783246154888409300,7.208409423828125,-0.6437321901321411,-1.0137526988983154,0.2080354541540146
1783246154898421500,7.21842138671875,-0.6726948618888855,-0.8641884922981262,0.01891961507499218
1783246154908432400,7.228432373046875,-0.6541270017623901,-0.7984569072723389,-0.016804026439785957
1783246154918444300,7.2384443359375,-0.5788617730140686,-0.9817124605178833,0.11520585417747498
1783246154928456400,7.24845654296875,-0.41035133600234985,-1.3641990423202515,0.36088991165161133
1783246154938468400,7.25846826171875,-0.1125713661313057,-1.667729377746582,0.4344683289527893
