time,seconds_elapsed,z,y,x
1783246156610112000,0.056112060546875,-0.014561330899596214,-0.14358098804950714,1.549501657485962
1783246156620124200,0.066124267578125,-0.1564548760652542,0.08297913521528244,1.6160167455673218
1783246156630136000,0.076135986328125,-0.2131194770336151,0.1480920910835266,1.6590489149093628
1783246156640148000,0.08614794921875,-0.2047254741191864,0.12400326132774353,1.7845436334609985
1783246156650159000,0.0961591796875,-0.16861248016357422,0.08812622725963593,2.0526442527770996
1783246156660171000,0.1061708984375,-0.16745010018348694,0.06026998534798622,2.503441333770752
1783246156670183000,0.116182861328125,-0.2952488362789154,-0.0860494077205658,2.967313528060913
1783246156680195000,0.126195068359375,-0.5233704447746277,-0.24630911648273468,3.2820465564727783
1783246156690206000,0.1362060546875,-0.6778396368026733,-0.41474661231040955,3.215418577194214
1783246156700217900,0.1462177734375,-0.6470862030982971,-0.6786669492721558,2.605116367340088
1783246156710230000,0.15622998046875,-0.41348516941070557,-0.9433987140655518,1.5734539031982422
1783246156720242000,0.166241943359375,0.07845690846443176,-1.2855937480926514,0.22764244675636292
1783246156730253800,0.17625390625,0.626823902130127,-1.6997616291046143,-1.4601430892944336
1783246156740265000,0.186264892578125,0.9308390617370605,-1.7641645669937134,-3.092318534851074
1783246156750277000,0.196277099609375,0.9499512314796448,-1.2341800928115845,-4.123778343200684
1783246156760289000,0.2062890625,0.7620620727539062,-0.7035163640975952,-4.562312602996826
1783246156770301200,0.21630126953125,0.444039911031723,-0.3323851525783539,-4.495112895965576
1783246156780313000,0.22631298828125,0.1672690212726593,-0.05605049803853035,-4.0236101150512695
1783246156790324000,0.236323974609375,0.02661735750734806,0.04456852376461029,-3.457059621810913
1783246156800336100,0.246336181640625,0.012364940717816353,-0.041154101490974426,-3.1937942504882812
1783246156810348000,0.25634814453125,0.11783517897129059,-0.29042279720306396,-3.4200141429901123
1783246156820360000,0.26635986328125,0.32341092824935913,-0.6513314247131348,-3.987119197845459
1783246156830370800,0.276370849609375,0.5999285578727722,-0.9654422402381897,-4.6638312339782715
1783246156840383000,0.286383056640625,0.8520334362983704,-1.2956894636154175,-5.283441543579102
1783246156850395000,0.296394775390625,1.0344905853271484,-1.546248435974121,-5.678494930267334
1783246156860407000,0.306406982421875,1.158247947692871,-1.6259392499923706,-5.790957450866699
1783246156870419000,0.3164189453125,1.2174510955810547,-1.6205564737319946,-5.684412002563477
1783246156880430000,0.32643017578125,1.2390867471694946,-1.6349515914916992,-5.39176607131958
1783246156890442000,0.33644189453125,1.2139065265655518,-1.7551450729370117,-5.029198169708252
1783246156900454100,0.3464541015625,1.1797109842300415,-2.0351722240448,-4.729552268981934
1783246156910466000,0.356466064453125,1.157621145248413,-2.3916354179382324,-4.543699264526367
1783246156920477000,0.366476806640625,1.1439189910888672,-2.656385898590088,-4.418133735656738
1783246156930489000,0.376489013671875,1.1569136381149292,-2.766040086746216,-4.284300804138184
1783246156940501000,0.3865009765625,1.1628104448318481,-2.872751474380493,-4.113162040710449
1783246156950513200,0.39651318359375,1.1706197261810303,-3.037898063659668,-3.8749806880950928
1783246156960525000,0.406525146484375,1.2189197540283203,-3.2174785137176514,-3.6072397232055664
1783246156970536000,0.416535888671875,1.3429354429244995,-3.3280396461486816,-3.334582805633545
1783246156980547800,0.4265478515625,1.4323455095291138,-3.403693199157715,-3.081303834915161
1783246156990560000,0.43656005859375,1.4222252368927002,-3.4394450187683105,-2.8782684803009033
1783246157000572000,0.446572021484375,1.3691023588180542,-3.3991291522979736,-2.785385847091675
1783246157010583000,0.4565830078125,1.3398258686065674,-3.3182406425476074,-2.836702346801758
1783246157020595200,0.46659521484375,1.3627413511276245,-3.0884485244750977,-3.0128743648529053
1783246157030607000,0.476607177734375,1.2991045713424683,-2.6443428993225098,-3.1788790225982666
1783246157040619000,0.486618896484375,1.2004581689834595,-2.026210069656372,-3.199759006500244
1783246157050631200,0.496631103515625,1.105286955833435,-1.2266266345977783,-3.1021101474761963
1783246157060642000,0.50664208984375,1.108140230178833,-0.37906333804130554,-2.9527804851531982
1783246157070654000,0.516654052734375,1.2696820497512817,0.5238862037658691,-2.765862226486206
1783246157080666000,0.526666015625,1.4549517631530762,1.1550625562667847,-2.5595152378082275
1783246157090678000,0.536677978515625,1.5238951444625854,1.4081188440322876,-2.37294864654541
1783246157100690000,0.54668994140625,1.41976797580719,1.265137791633606,-2.2177107334136963
1783246157110701000,0.556701171875,1.1863864660263062,0.9573123455047607,-2.0269722938537598
1783246157120713000,0.566712890625,0.9492121934890747,0.6337952613830566,-1.83161199092865
1783246157130724900,0.576724853515625,0.8072734475135803,0.4940219223499298,-1.7109763622283936
1783246157140737000,0.586737060546875,0.7386308312416077,0.4985879361629486,-1.6646761894226074
1783246157150748000,0.596747802734375,0.7079306840896606,0.8394949436187744,-1.6974701881408691
1783246157160759800,0.606759765625,0.7646360397338867,1.4654160737991333,-1.7728476524353027
1783246157170772000,0.61677197265625,0.8025581240653992,2.0459723472595215,-1.8162753582000732
1783246157180783900,0.626783935546875,0.7833161354064941,2.235459327697754,-1.7904024124145508
1783246157190795800,0.636795654296875,0.6129577159881592,1.9565163850784302,-1.7078896760940552
1783246157200807200,0.64680712890625,0.2484118640422821,1.3757158517837524,-1.5678298473358154
1783246157210819000,0.656819091796875,-0.12276221811771393,1.0350391864776611,-1.4836829900741577
1783246157220831000,0.6668310546875,-0.399610698223114,1.1394541263580322,-1.6855075359344482
1783246157230843100,0.676843017578125,-0.6545178294181824,1.780536413192749,-2.061583995819092
1783246157240854000,0.68685400390625,-0.8595923185348511,2.656682252883911,-2.3147525787353516
1783246157250866000,0.696865966796875,-0.9016820192337036,3.27081298828125,-2.366511821746826
1783246157260878000,0.706878173828125,-0.8019964098930359,3.3898050785064697,-2.325078248977661
1783246157270890000,0.716889892578125,-0.6299548745155334,3.0292952060699463,-2.2976086139678955
1783246157280902000,0.72690185546875,-0.44674742221832275,2.217219114303589,-2.2705137729644775
1783246157290913000,0.7369130859375,-0.3582673668861389,1.2728747129440308,-2.3174188137054443
1783246157300925000,0.746925048828125,-0.29129472374916077,0.6123178601264954,-2.504547357559204
1783246157310936800,0.756936767578125,-0.21826469898223877,0.33064112067222595,-2.822847604751587
1783246157320949000,0.766948974609375,-0.15190018713474274,0.6804344654083252,-3.120971441268921
1783246157330961000,0.7769609375,-0.1203467920422554,1.3189512491226196,-3.163626194000244
1783246157340972000,0.786971923828125,-0.11269588023424149,1.8775770664215088,-2.899718761444092
1783246157350984000,0.79698388671875,-0.04804311692714691,2.192208766937256,-2.483213186264038
1783246157360996000,0.80699609375,0.07823611050844193,2.3165814876556396,-2.0239508152008057
1783246157371008000,0.817008056640625,0.13536517322063446,2.3275043964385986,-1.661129355430603
1783246157381019000,0.827018798828125,0.017618298530578613,2.542440176010132,-1.39264976978302
1783246157391031000,0.837031005859375,-0.2898223400115967,2.903510093688965,-1.2052228450775146
1783246157401043000,0.84704296875,-0.7377015352249146,3.1009907722473145,-1.2025306224822998
1783246157411054800,0.857054931640625,-1.1279102563858032,3.094681978225708,-1.4352805614471436
1783246157421067000,0.86706689453125,-1.3634765148162842,2.9527595043182373,-1.747802734375
1783246157431078000,0.877077880859375,-1.4945963621139526,2.609724283218384,-1.9737470149993896
1783246157441089800,0.88708984375,-1.5918840169906616,2.0573596954345703,-2.0668625831604004
1783246157451102000,0.89710205078125,-1.66627836227417,1.6026105880737305,-1.9863570928573608
1783246157461113900,0.90711376953125,-2.086886405944824,1.4185278415679932,-1.6058244705200195
1783246157471125000,0.917125,-2.4789865016937256,2.0274112224578857,-1.3307229280471802
1783246157481137200,0.92713720703125,-2.654595375061035,2.5308566093444824,-1.2084639072418213
1783246157491149000,0.937149169921875,-2.476651906967163,2.7001824378967285,-1.110914945602417
1783246157501161000,0.947160888671875,-1.8745919466018677,2.122619390487671,-1.0715972185134888
1783246157511173000,0.957173095703125,-1.682614803314209,1.958670973777771,-1.1148288249969482
1783246157521184000,0.96718408203125,-1.6731140613555908,1.9492008686065674,-1.1150591373443604
1783246157531196000,0.97719580078125,-1.622722864151001,2.0328001976013184,-1.1846518516540527
1783246157541208000,0.9872080078125,-1.5428637266159058,2.1436426639556885,-1.16724693775177
1783246157551220000,0.997219970703125,-1.3804900646209717,2.121412515640259,-1.047092318534851
1783246157561232000,1.00723193359375,-1.2091683149337769,1.8183850049972534,-0.946265697479248
1783246157571243000,1.017242919921875,-1.0545001029968262,1.3177443742752075,-0.8358182907104492
1783246157581255000,1.0272548828125,-0.9546318054199219,1.061811923980713,-0.652672529220581
1783246157591266800,1.037266845703125,-0.7407469153404236,0.9322893023490906,-0.40614959597587585
1783246157601279000,1.047279052734375,-0.5273232460021973,0.7925291061401367,-0.07645770162343979
1783246157611289900,1.057289794921875,-0.32629209756851196,0.5893118381500244,0.28062933683395386
1783246157621302000,1.067302001953125,-0.14542585611343384,0.42393389344215393,0.5097920894622803
1783246157631314000,1.07731396484375,-0.03361675888299942,0.3066892921924591,0.5974340438842773
1783246157641325800,1.087325927734375,-0.044386349618434906,-0.005641491152346134,0.7447726726531982
1783246157651338000,1.097337890625,-0.00640834029763937,-0.5663306713104248,1.0450435876846313
1783246157661349000,1.10734912109375,-0.2157852053642273,-1.0262726545333862,1.3915059566497803
1783246157671361000,1.117361083984375,-0.5708804130554199,-1.2200045585632324,1.5549015998840332
1783246157681373000,1.127373046875,-0.9013788104057312,-1.1773102283477783,1.4695528745651245
1783246157691385000,1.137385009765625,-1.129193663597107,-0.8339581489562988,1.2335997819900513
1783246157701396000,1.14739599609375,-1.2690701484680176,-0.3700023293495178,1.00619637966156
1783246157711407900,1.157407958984375,-1.4001706838607788,0.06146116554737091,0.8317997455596924
1783246157721420000,1.167419921875,-1.5217525959014893,0.3865145146846771,0.7122085690498352
1783246157731432000,1.177431884765625,-1.5162804126739502,0.6491783857345581,0.6519401669502258
1783246157741443800,1.18744384765625,-1.4984157085418701,0.8720949292182922,0.7797662019729614
1783246157751455000,1.197455078125,-1.485400915145874,0.8705378174781799,1.0719695091247559
1783246157761467000,1.207466796875,-1.469365119934082,0.6425619721412659,1.3464133739471436
1783246157771478800,1.217478759765625,-1.47010338306427,0.3145494759082794,1.4973081350326538
1783246157781491000,1.227490966796875,-1.5052447319030762,0.10079200565814972,1.4604785442352295
1783246157791502800,1.2375029296875,-1.5500679016113281,0.2328144758939743,1.197706937789917
1783246157801514000,1.247513916015625,-1.7386165857315063,0.8216418623924255,0.873712420463562
1783246157811526100,1.257526123046875,-2.0311622619628906,1.8512755632400513,0.7274433374404907
1783246157821538000,1.2675380859375,-2.2122890949249268,2.7754769325256348,0.670368492603302
1783246157831550000,1.277550048828125,-2.2222111225128174,3.035426378250122,0.4966858923435211
1783246157841561000,1.28756103515625,-2.26993989944458,2.8114845752716064,0.10083717107772827
1783246157851573000,1.297572998046875,-2.014864444732666,2.436201572418213,-0.6240912675857544
1783246157861585000,1.3075849609375,-1.53427255153656,2.0955846309661865,-1.6190096139907837
1783246157871597000,1.31759716796875,-0.9784926772117615,1.8749865293502808,-2.6329665184020996
1783246157881609000,1.32760888671875,-0.5054455399513245,1.5864726305007935,-3.596783399581909
1783246157891619800,1.337619873046875,-0.09421912580728531,1.3859443664550781,-4.277385234832764
1783246157901632000,1.347632080078125,0.2505459487438202,1.202502965927124,-4.520486831665039
1783246157911644000,1.357643798828125,0.499627947807312,0.9132201671600342,-4.2196221351623535
1783246157921655800,1.36765576171875,0.7064591646194458,0.5064135789871216,-3.5118319988250732
1783246157931668000,1.37766796875,0.9250562191009521,0.1585245579481125,-2.715322971343994
1783246157941679000,1.38767919921875,1.164218544960022,-0.03293910250067711,-2.166243553161621
1783246157951691000,1.39769091796875,1.3489185571670532,-0.024687031283974648,-1.9762425422668457
1783246157961703200,1.407703125,1.4504680633544922,0.31497499346733093,-2.0638411045074463
1783246157971715000,1.417715087890625,1.4268916845321655,0.9254441857337952,-2.3460044860839844
1783246157981726000,1.427725830078125,1.243530035018921,1.6845171451568604,-2.781768798828125
1783246157991738000,1.437738037109375,0.9130663275718689,2.4471282958984375,-3.250605583190918
1783246158001750000,1.44775,0.4840945601463318,3.009813070297241,-3.5763609409332275
1783246158011762000,1.457761962890625,0.02537570521235466,3.2590322494506836,-3.6817538738250732
1783246158021774000,1.467774169921875,-0.37237924337387085,3.17657470703125,-3.593465805053711
1783246158031785000,1.477784912109375,-0.6776185035705566,2.901181697845459,-3.3970601558685303
1783246158041796900,1.487796875,-0.8577776551246643,2.498542070388794,-3.1566321849823
1783246158051809000,1.49780908203125,-0.9226075410842896,2.0038511753082275,-2.8948638439178467
1783246158061821000,1.507821044921875,-0.8956679105758667,1.5492050647735596,-2.6127779483795166
1783246158071832000,1.51783203125,-0.7999160885810852,1.2441511154174805,-2.325839042663574
1783246158081844000,1.527843994140625,-0.7031516432762146,1.1277081966400146,-2.0610833168029785
1783246158091856100,1.537856201171875,-0.6370576024055481,1.1466144323349,-1.8190295696258545
1783246158101868000,1.547867919921875,-0.5928695201873779,1.2460830211639404,-1.592837929725647
1783246158111880200,1.557880126953125,-0.5705628395080566,1.2707619667053223,-1.3845266103744507
1783246158121891000,1.56789111328125,-0.5716313123703003,1.1704097986221313,-1.2217224836349487
1783246158131903000,1.577903076171875,-0.6007452607154846,1.0112401247024536,-1.111193299293518
1783246158141915100,1.5879150390625,-0.6238340735435486,0.866720974445343,-1.0749138593673706
1783246158151927000,1.597927001953125,-0.6583657264709473,0.7806846499443054,-1.1056814193725586
1783246158161938000,1.60793798828125,-0.7391805052757263,0.798528254032135,-1.121816873550415
1783246158171949800,1.61794970703125,-0.857869565486908,0.874209463596344,-1.1159157752990723
1783246158181962000,1.6279619140625,-0.9946606159210205,1.050425410270691,-1.0843427181243896
1783246158191974000,1.637973876953125,-1.1327497959136963,1.316999077796936,-0.9959245324134827
1783246158201986000,1.647986083984375,-1.2647265195846558,1.5594502687454224,-0.820508599281311
1783246158211997000,1.657996826171875,-1.4271795749664307,1.7030508518218994,-0.5393192768096924
1783246158222008800,1.6680087890625,-1.5647430419921875,1.7622014284133911,-0.1889948844909668
1783246158232020700,1.678020751953125,-1.6110426187515259,1.7982829809188843,0.17800362408161163
1783246158242033000,1.688032958984375,-1.522797703742981,1.8736423254013062,0.5351501107215881
1783246158252044800,1.698044921875,-1.3745872974395752,2.023052930831909,0.8942315578460693
1783246158262056000,1.708055908203125,-1.2876640558242798,2.0124077796936035,1.2565194368362427
1783246158272068000,1.718068115234375,-1.2743253707885742,1.9243812561035156,1.569944977760315
1783246158282080000,1.728080078125,-1.2844743728637695,1.868776798248291,1.8147283792495728
1783246158292092000,1.738091796875,-1.2794195413589478,1.9042903184890747,2.012481927871704
1783246158302103000,1.74810302734375,-1.2933558225631714,1.8965402841567993,2.1458473205566406
1783246158312115000,1.758114990234375,-1.3294719457626343,1.725757122039795,2.1920833587646484
1783246158322126800,1.768126953125,-1.3715572357177734,1.4807685613632202,2.163170099258423
1783246158332139000,1.778138916015625,-1.396398901939392,1.2132066488265991,2.077336311340332
1783246158342151000,1.78815087890625,-1.507116436958313,1.012089490890503,2.09087872505188
1783246158352161800,1.798161865234375,-1.7293065786361694,0.9468348026275635,2.1775126457214355
1783246158362173700,1.808173583984375,-1.9726924896240234,0.9774507284164429,2.115661144256592
1783246158372185900,1.818185791015625,-2.130518913269043,1.137093424797058,1.909523844718933
1783246158382197800,1.82819775390625,-2.1803553104400635,1.4273276329040527,1.684487223625183
1783246158392209700,1.838209716796875,-2.1325573921203613,1.771068811416626,1.4895867109298706
1783246158402220800,1.848220703125,-2.1715707778930664,1.9695823192596436,1.226244330406189
1783246158412233000,1.85823291015625,-2.3142566680908203,2.1687674522399902,0.7705921530723572
1783246158422244900,1.868244873046875,-2.369022846221924,2.423269748687744,0.18912021815776825
1783246158432257000,1.878257080078125,-2.2709619998931885,2.491743564605713,-0.4099253714084625
1783246158442268000,1.888267822265625,-2.060591697692871,2.259817123413086,-1.070897102355957
1783246158452279800,1.89827978515625,-1.7417258024215698,1.8682665824890137,-1.8620789051055908
1783246158462292000,1.9082919921875,-1.3775572776794434,1.462170124053955,-2.6504478454589844
1783246158472303900,1.918303955078125,-1.0597119331359863,0.9798080921173096,-3.4472146034240723
1783246158482315800,1.928315673828125,-0.8115721344947815,0.5406453609466553,-4.134960651397705
1783246158492326700,1.93832666015625,-0.6958508491516113,0.3082424998283386,-4.567205429077148
1783246158502338800,1.9483388671875,-0.7222923040390015,0.4042326509952545,-4.771795272827148
1783246158512350700,1.958350830078125,-0.8559092283248901,0.9347873330116272,-4.819153785705566
1783246158522363000,1.96836279296875,-1.0243748426437378,1.7928768396377563,-4.79689884185791
1783246158532374000,1.9783740234375,-1.233405351638794,2.5962448120117188,-4.777745723724365
1783246158542386000,1.988385986328125,-1.5207892656326294,3.252948045730591,-4.775343418121338
1783246158552397800,1.998397705078125,-1.8066444396972656,3.693007230758667,-4.793580055236816
1783246158562410000,2.008409912109375,-2.043869972229004,3.7519078254699707,-4.848370552062988
1783246158572422000,2.018421875,-2.145660400390625,3.4778940677642822,-4.841714859008789
1783246158582432800,2.028432861328125,-2.089292049407959,2.8719286918640137,-4.786252021789551
1783246158592445000,2.03844482421875,-1.8736110925674438,2.055255889892578,-4.706936359405518
1783246158602456800,2.048456787109375,-1.5671557188034058,1.2347325086593628,-4.549656867980957
1783246158612469000,2.058468994140625,-1.1901381015777588,0.49180641770362854,-4.254358291625977
1783246158622481000,2.06848095703125,-0.7787722945213318,-0.060154106467962265,-3.858072519302368
1783246158632491800,2.07849169921875,-0.40809252858161926,-0.37754324078559875,-3.384289264678955
1783246158642503700,2.088503662109375,-0.17898903787136078,-0.35563454031944275,-2.8338685035705566
1783246158652515800,2.098515869140625,-0.11364758759737015,-0.0439368411898613,-2.262937545776367
1783246158662527700,2.10852783203125,-0.16972090303897858,0.4373699724674225,-1.7301344871520996
1783246158672539000,2.118538818359375,-0.28450286388397217,0.8296690583229065,-1.3148491382598877
1783246158682550800,2.12855078125,-0.44463950395584106,1.0034997463226318,-1.0879971981048584
1783246158692563000,2.13856298828125,-0.5841577649116516,1.0586614608764648,-0.9829405546188354
1783246158702574800,2.148574951171875,-0.6718555688858032,0.9939086437225342,-0.9537836909294128
1783246158712586800,2.158586669921875,-0.7355445027351379,0.9002993106842041,-0.9623420238494873
1783246158722598000,2.168597900390625,-0.7868630290031433,0.8168184161186218,-0.9882465600967407
1783246158732609800,2.17860986328125,-0.8327892422676086,0.7730533480644226,-1.0290195941925049
1783246158742622000,2.1886220703125,-0.8774347901344299,0.7768296599388123,-1.0311800241470337
1783246158752633900,2.1986337890625,-0.8991318345069885,0.8008241653442383,-0.9682155251502991
1783246158762644700,2.208644775390625,-0.8733570575714111,0.829033374786377,-0.8436890840530396
1783246158772657000,2.218656982421875,-0.8135019540786743,0.8854964375495911,-0.637066662311554
1783246158782668800,2.228668701171875,-0.7545221447944641,0.9175004959106445,-0.35819995403289795
1783246158792680700,2.2386806640625,-0.6964042782783508,0.8992580771446228,-0.023237941786646843
1783246158802692900,2.24869287109375,-0.6523205637931824,0.8565307259559631,0.33018580079078674
1783246158812703700,2.258703857421875,-0.6394377946853638,0.8571792244911194,0.6814053654670715
1783246158822715600,2.268715576171875,-0.6650710701942444,0.9248814582824707,0.9840136170387268
1783246158832727800,2.278727783203125,-0.7610697746276855,1.0466537475585938,1.1908890008926392
1783246158842739700,2.28873974609375,-0.9116441607475281,1.2686641216278076,1.2817409038543701
1783246158852750800,2.298750732421875,-1.027231216430664,1.6756224632263184,1.2809741497039795
1783246158862763000,2.308762939453125,-1.0699145793914795,2.182250499725342,1.2496472597122192
1783246158872775000,2.31877490234375,-1.0523185729980469,2.556816816329956,1.2323977947235107
1783246158882786800,2.328786865234375,-0.9847990274429321,2.67404842376709,1.2837672233581543
1783246158892799000,2.338799072265625,-0.914727509021759,2.521820068359375,1.3566774129867554
1783246158902809900,2.348809814453125,-0.9863020181655884,2.241473913192749,1.4689005613327026
1783246158912821800,2.35882177734375,-1.2872272729873657,1.9130682945251465,1.653882384300232
1783246158922834000,2.368833984375,-1.8600541353225708,1.8459867238998413,1.8185782432556152
1783246158932845800,2.378845703125,-2.513007879257202,2.1274452209472656,1.9198963642120361
1783246158942857700,2.388857666015625,-3.0322530269622803,2.5004656314849854,1.681414246559143
1783246158952868900,2.398868896484375,-3.2150678634643555,3.01350998878479,1.2283746004104614
1783246158962880800,2.408880859375,-3.0009865760803223,3.543884515762329,0.7580351829528809
1783246158972892700,2.418892578125,-2.559379816055298,3.6999094486236572,0.2291140854358673
1783246158982904800,2.42890478515625,-1.9547462463378906,3.288271188735962,-0.4193682372570038
1783246158992916000,2.438916015625,-1.3799748420715332,2.3934080600738525,-0.9116791486740112
1783246159002927900,2.448927978515625,-1.0116795301437378,1.3234753608703613,-1.1650642156600952
1783246159012940000,2.45893994140625,-0.783966064453125,0.4799247682094574,-1.2922807931900024
1783246159022952000,2.468951904296875,-0.6180096864700317,-0.017472637817263603,-1.3218084573745728
1783246159032963800,2.4789638671875,-0.5137445330619812,-0.26009753346443176,-1.3970935344696045
1783246159042975000,2.48897509765625,-0.4755918085575104,-0.23346826434135437,-1.5872358083724976
1783246159052987000,2.49898681640625,-0.5025182366371155,0.015853680670261383,-1.835196852684021
1783246159062998800,2.508998779296875,-0.5893361568450928,0.4228004813194275,-2.0237135887145996
1783246159073011000,2.519010986328125,-0.7076406478881836,0.8998381495475769,-2.093090772628784
1783246159083022800,2.52902294921875,-0.8180885910987854,1.2335103750228882,-2.0706989765167236
1783246159093033700,2.53903369140625,-0.871403694152832,1.371869683265686,-1.980444312095642
1783246159103046000,2.5490458984375,-0.8604372143745422,1.2892427444458008,-1.843681812286377
1783246159113057800,2.559057861328125,-0.8083524107933044,1.05003821849823,-1.6650042533874512
1783246159123069700,2.569069580078125,-0.7458751797676086,0.8448176980018616,-1.4742865562438965
1783246159133080800,2.579080810546875,-0.6746808886528015,0.6737141013145447,-1.2989975214004517
1783246159143093000,2.589093017578125,-0.5938287973403931,0.5084936618804932,-1.1740449666976929
1783246159153105000,2.59910498046875,-0.5050376653671265,0.31775057315826416,-1.1329345703125
1783246159163117000,2.609116943359375,-0.39520344138145447,0.13175369799137115,-1.1470856666564941
1783246159173129000,2.61912890625,-0.27614468336105347,-0.02800746262073517,-1.1791719198226929
1783246159183139800,2.629139892578125,-0.19687357544898987,-0.14064639806747437,-1.170376181602478
1783246159193152000,2.639152099609375,-0.17193973064422607,-0.15308842062950134,-1.1129841804504395
1783246159203164000,2.649163818359375,-0.17324046790599823,-0.03323982656002045,-1.0555180311203003
1783246159213175800,2.65917578125,-0.16890031099319458,0.13681206107139587,-1.0309131145477295
1783246159223188000,2.66918798828125,-0.13720235228538513,0.2707783281803131,-1.0093187093734741
1783246159233198800,2.67919873046875,-0.08675248175859451,0.33029571175575256,-0.9803357720375061
1783246159243210800,2.689210693359375,-0.009112115949392319,0.3048938512802124,-0.9412466287612915
1783246159253223000,2.699222900390625,0.10089694708585739,0.1594029664993286,-0.8791800141334534
1783246159263234800,2.70923486328125,0.1906527429819107,-0.09376049041748047,-0.7788466215133667
1783246159273245700,2.71924560546875,0.25693032145500183,-0.33546632528305054,-0.6655818223953247
1783246159283257600,2.729257568359375,0.3067273795604706,-0.48185819387435913,-0.6039400100708008
1783246159293269800,2.739269775390625,0.33054909110069275,-0.5306491851806641,-0.5962365865707397
1783246159303281700,2.74928173828125,0.29279953241348267,-0.5469778180122375,-0.5960860848426819
1783246159313293800,2.7592939453125,0.16512788832187653,-0.5922401547431946,-0.5817817449569702
1783246159323305000,2.769304931640625,-0.006231425795704126,-0.6742644906044006,-0.5615953803062439
1783246159333316900,2.77931689453125,-0.1635345071554184,-0.7164321541786194,-0.5154448747634888
1783246159343329000,2.7893291015625,-0.3230474591255188,-0.584211528301239,-0.4378073811531067
1783246159353341200,2.799341064453125,-0.48779019713401794,-0.2877214252948761,-0.3588884472846985
1783246159363352300,2.809352294921875,-0.6781424880027771,0.13204239308834076,-0.3321287930011749
1783246159373364200,2.8193642578125,-0.9017513394355774,0.570936381816864,-0.3714945912361145
1783246159383376100,2.829376220703125,-1.1181122064590454,0.9280454516410828,-0.4222366511821747
1783246159393388300,2.83938818359375,-1.3052232265472412,1.2073124647140503,-0.41557979583740234
1783246159403400200,2.849400146484375,-1.4114487171173096,1.4797909259796143,-0.32349467277526855
1783246159413411000,2.8594111328125,-1.3999574184417725,1.6780436038970947,-0.15036308765411377
1783246159423423200,2.86942333984375,-1.291772484779358,1.6754683256149292,0.1013675183057785
1783246159433435100,2.87943505859375,-1.1350175142288208,1.441798210144043,0.3886943757534027
1783246159443447000,2.889447021484375,-1.0481876134872437,1.1057504415512085,0.6270995140075684
1783246159453459200,2.899459228515625,-1.081183910369873,0.8831183910369873,0.8036322593688965
1783246159463470300,2.90947021484375,-1.2186927795410156,1.0290019512176514,0.9102746844291687
1783246159473482200,2.919482177734375,-1.4271719455718994,1.5599881410598755,0.9164859652519226
1783246159483494400,2.929494384765625,-1.62669837474823,2.29712176322937,0.8665922284126282
1783246159493506300,2.93950634765625,-1.7510937452316284,3.0633065700531006,0.9338980317115784
1783246159503517200,2.94951708984375,-1.6525036096572876,3.758613348007202,1.2037869691848755
1783246159513529300,2.959529296875,-1.3602200746536255,3.998976469039917,1.4697216749191284
1783246159523541200,2.969541259765625,-1.19295334815979,3.68902325630188,1.4552725553512573
1783246159533553200,2.97955322265625,-0.9758399724960327,3.1908926963806152,1.0620486736297607
1783246159543565300,2.9895654296875,-0.665442943572998,2.6155881881713867,0.4468013346195221
1783246159553576200,2.999576171875,-0.48288536071777344,2.0692105293273926,-0.26358088850975037
1783246159563588000,3.009588134765625,-0.4076421558856964,1.6108736991882324,-1.0417017936706543
1783246159573600300,3.019600341796875,-0.4178849160671234,1.1299954652786255,-1.920875906944275
1783246159583612200,3.029612060546875,-0.4816008508205414,0.7141548991203308,-2.633840799331665
1783246159593624000,3.0396240234375,-0.5270639061927795,0.5055667757987976,-2.9719886779785156
1783246159603635200,3.04963525390625,-0.5774427056312561,0.4400884211063385,-3.019317388534546
1783246159613647000,3.059647216796875,-0.6868546605110168,0.5393207669258118,-2.937067747116089
1783246159623659000,3.069658935546875,-0.7600151896476746,0.8863239288330078,-2.722257375717163
1783246159633671200,3.079671142578125,-0.8105872869491577,1.339981198310852,-2.4743692874908447
1783246159643682300,3.089682373046875,-0.8658682703971863,1.6168538331985474,-2.3333323001861572
1783246159653694200,3.099694091796875,-0.9271180629730225,1.8255633115768433,-2.2147791385650635
1783246159663706400,3.109706298828125,-1.0268900394439697,1.915776014328003,-2.1247386932373047
1783246159673718300,3.11971826171875,-1.1401125192642212,1.8373041152954102,-2.118065357208252
1783246159683730200,3.129730224609375,-1.2119214534759521,1.538909673690796,-2.2156577110290527
1783246159693741300,3.1397412109375,-1.2354458570480347,1.0626963376998901,-2.3432493209838867
1783246159703753200,3.149753173828125,-1.2357275485992432,0.5522589683532715,-2.386881113052368
1783246159713765000,3.15976513671875,-1.1492477655410767,0.13513661921024323,-2.2885708808898926
1783246159723777300,3.16977734375,-0.9920880198478699,-0.24867793917655945,-2.0577232837677
1783246159733789200,3.1797890625,-0.811860978603363,-0.6149269938468933,-1.7142995595932007
1783246159743800000,3.189800048828125,-0.6166802644729614,-0.9466761350631714,-1.296779990196228
1783246159753812200,3.199812255859375,-0.4115241467952728,-1.1561225652694702,-0.8829662799835205
1783246159763824000,3.20982421875,-0.23625390231609344,-1.2667136192321777,-0.5098892450332642
1783246159773836000,3.2198359375,-0.12515613436698914,-1.295001745223999,-0.19927358627319336
1783246159783847400,3.229847412109375,-0.05928706377744675,-1.2955247163772583,-0.0304145235568285
1783246159793859300,3.239859375,-0.03457239642739296,-1.2423983812332153,0.01729440875351429
1783246159803871200,3.249871337890625,-0.10412856191396713,-1.218005895614624,-0.049563005566596985
1783246159813883400,3.25988330078125,-0.22810962796211243,-1.2001651525497437,-0.16507893800735474
1783246159823895300,3.269895263671875,-0.36921951174736023,-1.2068802118301392,-0.29084116220474243
1783246159833906200,3.27990625,-0.48613813519477844,-1.0864073038101196,-0.44759243726730347
1783246159843918300,3.28991845703125,-0.5350008606910706,-0.8618110418319702,-0.6006482839584351
1783246159853930200,3.29993017578125,-0.5513545274734497,-0.6659443378448486,-0.7036353349685669
1783246159863942100,3.309942138671875,-0.5685385465621948,-0.5068804025650024,-0.7018296122550964
1783246159873953000,3.319953125,-0.5958425998687744,-0.38188254833221436,-0.6123561859130859
1783246159883965200,3.329965087890625,-0.6293596625328064,-0.30082428455352783,-0.46183788776397705
1783246159893977000,3.33997705078125,-0.6328396201133728,-0.2719596028327942,-0.2823410928249359
1783246159903989200,3.3499892578125,-0.5962966084480286,-0.22613099217414856,-0.13766932487487793
1783246159914001200,3.360001220703125,-0.5526061654090881,-0.0813080221414566,-0.04542595148086548
1783246159924012300,3.37001220703125,-0.518356204032898,0.16924142837524414,-0.002817088272422552
1783246159934024200,3.380024169921875,-0.4861418604850769,0.47369134426116943,0.0434124581515789
1783246159944036400,3.390036376953125,-0.44215819239616394,0.8062666058540344,0.1628783643245697
1783246159954048300,3.40004833984375,-0.4161878526210785,1.0304946899414062,0.3572225570678711
1783246159964060400,3.410060302734375,-0.4380749762058258,1.2087291479110718,0.5929862856864929
1783246159974071300,3.4200712890625,-0.46434253454208374,1.4061074256896973,0.8354825377464294
1783246159984083200,3.430083251953125,-0.49528825283050537,1.6407278776168823,1.0128310918807983
1783246159994095400,3.440095458984375,-0.45443323254585266,1.9896035194396973,1.1847413778305054
1783246160004107300,3.450107177734375,-0.3717544972896576,2.409862995147705,1.3235098123550415
1783246160014118100,3.4601181640625,-0.30513790249824524,2.925905466079712,1.4661633968353271
1783246160024130000,3.470130126953125,-0.2567278742790222,3.659032106399536,1.814984917640686
1783246160034142200,3.48014208984375,-0.21177050471305847,4.183774471282959,2.201626777648926
1783246160044154000,3.490154052734375,-0.1603846400976181,4.567628860473633,2.528961420059204
1783246160054166300,3.500166259765625,-0.13464465737342834,4.741261005401611,2.885516881942749
1783246160064177200,3.51017724609375,-0.1867809146642685,4.621363639831543,3.3394668102264404
1783246160074189300,3.520189208984375,-0.4057258069515228,4.286395072937012,3.664705276489258
1783246160084201200,3.530201171875,-0.7929585576057434,3.8206162452697754,3.433424949645996
1783246160094213000,3.540213134765625,-1.2466578483581543,3.640129566192627,2.648824691772461
1783246160104225300,3.550225341796875,-1.4840056896209717,3.613345146179199,1.5381163358688354
1783246160114236200,3.560236083984375,-1.5739030838012695,3.4985134601593018,0.5715402364730835
1783246160124248300,3.570248291015625,-1.6327193975448608,3.1418957710266113,-0.041187938302755356
1783246160134260200,3.58026025390625,-1.6961803436279297,2.5415961742401123,-0.4252264201641083
1783246160144272400,3.5902724609375,-1.814232349395752,1.8128087520599365,-0.7263177633285522
1783246160154283300,3.600283203125,-2.0194480419158936,1.1494430303573608,-0.98194420337677
1783246160164295200,3.610295166015625,-2.192450761795044,0.6873780488967896,-1.259547472000122
1783246160174307000,3.62030712890625,-2.2486159801483154,0.4506714940071106,-1.5467302799224854
1783246160184319200,3.6303193359375,-2.241485357284546,0.43008488416671753,-1.8289928436279297
1783246160194331100,3.6403310546875,-2.164715051651001,0.5354960560798645,-2.115583896636963
1783246160204342000,3.650342041015625,-2.035750389099121,0.5850975513458252,-2.4310219287872314
1783246160214354200,3.660354248046875,-1.8709050416946411,0.4157349467277527,-2.7241671085357666
1783246160224366000,3.670365966796875,-1.7590874433517456,0.16187362372875214,-2.8562963008880615
1783246160234378000,3.6803779296875,-1.6700828075408936,0.049483973532915115,-2.7706868648529053
1783246160244390100,3.69039013671875,-1.5622377395629883,-0.07870430499315262,-2.579228401184082
1783246160254401300,3.7004013671875,-1.4603965282440186,-0.21108843386173248,-2.3020856380462646
1783246160264413200,3.7104130859375,-1.3166648149490356,-0.35210850834846497,-1.9561941623687744
1783246160274425300,3.72042529296875,-1.1145399808883667,-0.5122270584106445,-1.608417272567749
1783246160284437200,3.730437255859375,-0.9007419943809509,-0.5892990231513977,-1.2863068580627441
1783246160294448000,3.7404482421875,-0.6761080622673035,-0.6165176033973694,-1.0115461349487305
1783246160304460300,3.750460205078125,-0.45143651962280273,-0.6443533301353455,-0.7723160982131958
1783246160314472200,3.76047216796875,-0.24423834681510925,-0.7169114351272583,-0.5584887862205505
1783246160324484000,3.770484130859375,-0.055072441697120667,-0.89286869764328,-0.3512742221355438
1783246160334496300,3.780496337890625,0.10526157915592194,-1.195494294166565,-0.12779586017131805
1783246160344507100,3.790507080078125,0.18753217160701752,-1.4570472240447998,0.069545678794384
1783246160354518500,3.8005185546875,0.16809162497520447,-1.4433554410934448,0.1867079734802246
1783246160364530400,3.810530517578125,0.05130743235349655,-1.207991600036621,0.16674581170082092
1783246160374542600,3.82054248046875,-0.12226755172014236,-0.8595569133758545,0.013294469565153122
1783246160384553500,3.830553466796875,-0.3137108087539673,-0.5056064128875732,-0.19338230788707733
1783246160394565400,3.8405654296875,-0.4742717146873474,-0.25842851400375366,-0.39476680755615234
1783246160404577500,3.85057763671875,-0.5649016499519348,-0.20378275215625763,-0.5542904734611511
1783246160414589400,3.86058935546875,-0.5957988500595093,-0.35047978162765503,-0.6473740339279175
1783246160424601300,3.870601318359375,-0.6254420876502991,-0.5090780258178711,-0.6864137649536133
1783246160434612200,3.8806123046875,-0.6661847233772278,-0.5086079835891724,-0.7207419276237488
1783246160444624400,3.890624267578125,-0.7062052488327026,-0.4006190598011017,-0.7587149739265442
1783246160454636300,3.90063623046875,-0.7869815826416016,-0.27205416560173035,-0.7485038638114929
1783246160464648400,3.9106484375,-0.8924819231033325,-0.13930155336856842,-0.662072479724884
1783246160474660400,3.920660400390625,-0.9597414135932922,-0.0028800577856600285,-0.5353768467903137
1783246160484671200,3.930671142578125,-0.9757550358772278,0.1727711260318756,-0.38236457109451294
1783246160494683400,3.940683349609375,-0.9527477025985718,0.4218747019767761,-0.2077043354511261
1783246160504695300,3.9506953125,-0.9289693832397461,0.6748276352882385,0.01828710176050663
1783246160514707200,3.960707275390625,-0.9581264853477478,0.8706881999969482,0.30080533027648926
1783246160524718300,3.97071826171875,-1.0380903482437134,0.950149655342102,0.5748597383499146
1783246160534730500,3.98073046875,-1.1531410217285156,0.8908000588417053,0.7110753655433655
1783246160544742400,3.990742431640625,-1.2766412496566772,0.7919144034385681,0.7060816287994385
1783246160554754600,4.000754638671875,-1.3833156824111938,0.8308053612709045,0.7573032379150391
1783246160564766500,4.010766357421875,-1.4543037414550781,1.016360878944397,0.9225234389305115
1783246160574777300,4.02077734375,-1.4920564889907837,1.2803672552108765,1.2007704973220825
1783246160584789200,4.030789306640625,-1.5051097869873047,1.6949028968811035,1.650877833366394
1783246160594801400,4.040801513671875,-1.5889637470245361,1.9170960187911987,2.205749034881592
1783246160604813300,4.050813232421875,-1.751147985458374,1.850688099861145,2.718454599380493
1783246160614825500,4.060825439453125,-1.8299857378005981,1.6731444597244263,2.976048469543457
1783246160624836400,4.07083642578125,-1.7984946966171265,1.611925482749939,2.966966390609741
1783246160634848300,4.08084814453125,-1.611594557762146,1.686362624168396,2.733898639678955
1783246160644860200,4.090860107421875,-1.3652583360671997,1.643282413482666,2.1699209213256836
1783246160654872300,4.100872314453125,-1.1928048133850098,1.3994550704956055,1.2003055810928345
1783246160664883500,4.110883544921875,-1.0643198490142822,1.0346523523330688,0.09074418246746063
1783246160674895400,4.120895263671875,-1.0367428064346313,0.7679489254951477,-0.7075508832931519
1783246160684907500,4.130907470703125,-0.9584780931472778,0.4864262044429779,-1.1024842262268066
1783246160694919400,4.14091943359375,-0.8109704256057739,0.032519955188035965,-1.3840911388397217
1783246160704931600,4.150931640625,-0.7088471055030823,-0.45801401138305664,-1.7356669902801514
1783246160714942500,4.1609423828125,-0.578325092792511,-0.8159124851226807,-2.080778121948242
1783246160724954400,4.170954345703125,-0.422685444355011,-0.9878291487693787,-2.381150007247925
1783246160734966300,4.18096630859375,-0.24472078680992126,-1.0190956592559814,-2.700127601623535
1783246160744978400,4.190978515625,-0.025058330968022346,-0.9350976347923279,-3.0300681591033936
1783246160754990300,4.200990234375,0.1864192932844162,-0.8470423221588135,-3.2839150428771973
1783246160765001200,4.211001220703125,0.2551892101764679,-0.9189954400062561,-3.376894950866699
1783246160775013400,4.221013427734375,0.10521167516708374,-0.8232670426368713,-3.1768898963928223
1783246160785025300,4.231025390625,-0.1009182557463646,-0.4460097551345825,-2.7010257244110107
1783246160795037200,4.241037109375,-0.2917388081550598,0.018541663885116577,-2.1908609867095947
1783246160805048600,4.251048583984375,-0.4222731590270996,0.39155274629592896,-1.8686561584472656
1783246160815060500,4.261060546875,-0.481827050447464,0.6885029077529907,-1.7643203735351562
1783246160825072400,4.271072265625,-0.4501861035823822,0.7519012689590454,-1.8458648920059204
1783246160835084500,4.28108447265625,-0.35817572474479675,0.5668504238128662,-1.9794727563858032
1783246160845096400,4.291096435546875,-0.27056047320365906,0.26659709215164185,-2.000270128250122
1783246160855107300,4.301107421875,-0.19214367866516113,-0.010081354528665543,-1.8390830755233765
1783246160865119500,4.311119384765625,-0.07795921713113785,-0.2176932841539383,-1.5343031883239746
1783246160875131400,4.32113134765625,0.08504674583673477,-0.3710021376609802,-1.1303755044937134
1783246160885143300,4.331143310546875,0.26067885756492615,-0.5127144455909729,-0.7189546227455139
1783246160895154400,4.341154541015625,0.4205809235572815,-0.6170554757118225,-0.3757448196411133
1783246160905166300,4.351166259765625,0.5381852984428406,-0.690906286239624,-0.12275327742099762
1783246160915178200,4.36117822265625,0.5942176580429077,-0.7601799368858337,0.04496967792510986
1783246160925190400,4.3711904296875,0.5766131281852722,-0.8132385611534119,0.15558771789073944
1783246160935202300,4.381202392578125,0.5250551700592041,-0.8777536749839783,0.2053600698709488
1783246160945213400,4.39121337890625,0.49956080317497253,-0.9693104028701782,0.18240860104560852
1783246160955225300,4.401225341796875,0.5137717127799988,-1.0745384693145752,0.15080326795578003
1783246160965237500,4.411237548828125,0.5144516229629517,-1.1137382984161377,0.17073576152324677
1783246160975249400,4.42124951171875,0.4940555691719055,-1.0513135194778442,0.25999027490615845
1783246160985261600,4.431261474609375,0.4772363603115082,-0.9626635909080505,0.3965478241443634
1783246160995272400,4.4412724609375,0.5020048022270203,-0.907625138759613,0.5356966853141785
1783246161005284400,4.451284423828125,0.5594451427459717,-0.9211689233779907,0.6334530711174011
1783246161015296500,4.461296630859375,0.5958268642425537,-1.0266295671463013,0.6977971792221069
1783246161025308400,4.471308349609375,0.6046667695045471,-1.1444188356399536,0.7492714524269104
1783246161035319300,4.4813193359375,0.6163183450698853,-1.269040584564209,0.7664592266082764
1783246161045331500,4.49133154296875,0.6061672568321228,-1.3954793214797974,0.7735273241996765
1783246161055343400,4.50134326171875,0.5407605767250061,-1.42995285987854,0.8118336796760559
1783246161065355300,4.511355224609375,0.4113507568836212,-1.3187081813812256,0.8800304532051086
1783246161075367400,4.521367431640625,0.26140278577804565,-1.0807520151138306,1.0077285766601562
1783246161085378300,4.53137841796875,0.1255950927734375,-0.8273975253105164,1.1737076044082642
1783246161095390200,4.54139013671875,0.03474348410964012,-0.6535679697990417,1.3170874118804932
1783246161105402400,4.55140234375,0.011097508482635021,-0.5479925274848938,1.4450141191482544
1783246161115414300,4.561414306640625,0.08028217405080795,-0.49181583523750305,1.5967727899551392
1783246161125426200,4.57142626953125,0.176145538687706,-0.5112153887748718,1.7743558883666992
1783246161135437600,4.5814375,0.19854672253131866,-0.7442009449005127,1.9700273275375366
1783246161145449500,4.591449462890625,0.11772049963474274,-1.0404173135757446,2.168200969696045
1783246161155461400,4.60146142578125,-0.0577450655400753,-1.1902387142181396,2.348759412765503
1783246161165473500,4.6114736328125,-0.2999812960624695,-1.0360208749771118,2.4940474033355713
1783246161175484400,4.621484375,-0.4355921149253845,-0.654570460319519,2.533121109008789
1783246161185496300,4.631496337890625,-0.4481549561023712,-0.11882541328668594,2.3921077251434326
1783246161195508500,4.641508544921875,-0.43024545907974243,0.46645668148994446,2.0172195434570312
1783246161205520400,4.651520263671875,-0.3614763617515564,0.9210909605026245,1.427676796913147
1783246161215532300,4.6615322265625,-0.24567972123622894,1.2329431772232056,0.7393481135368347
1783246161225543400,4.67154345703125,-0.26459816098213196,1.4461133480072021,-0.007632443681359291
1783246161235555300,4.681555419921875,-0.3027993440628052,1.5001424551010132,-0.8753630518913269
1783246161245567200,4.691567138671875,-0.3859201967716217,1.4635794162750244,-1.6928170919418335
1783246161255579400,4.701579345703125,-0.6063223481178284,1.3187322616577148,-2.3287763595581055
1783246161265591300,4.71159130859375,-0.8438882827758789,1.0738601684570312,-2.813781261444092
1783246161275602400,4.7216025390625,-0.979501485824585,0.7616354823112488,-3.29319429397583
1783246161285614600,4.731614501953125,-0.9595867991447449,0.44569602608680725,-3.857921600341797
1783246161295626500,4.74162646484375,-0.8080281615257263,0.19584545493125916,-4.453004360198975
1783246161305638400,4.751638427734375,-0.6367879509925842,-0.09128720313310623,-4.87544584274292
1783246161315649300,4.761649169921875,-0.4954955279827118,-0.28295543789863586,-4.992922306060791
1783246161325661400,4.771661376953125,-0.3515128493309021,-0.30640730261802673,-4.96108865737915
1783246161335673300,4.78167333984375,-0.2411988377571106,0.0005617043934762478,-4.8433518409729
1783246161345685500,4.791685546875,-0.22844763100147247,0.6529139280319214,-4.497905254364014
1783246161355697400,4.801697509765625,-0.302625447511673,1.4435877799987793,-3.7962353229522705
1783246161365708300,4.811708251953125,-0.4069443345069885,2.026392698287964,-2.8284082412719727
1783246161375720400,4.821720458984375,-0.511271595954895,2.280374765396118,-1.7217389345169067
1783246161385732400,4.831732421875,-0.4981592297554016,2.2303390502929688,-0.8163841366767883
1783246161395744500,4.84174462890625,-0.5213950276374817,1.9773809909820557,-0.35042813420295715
1783246161405756400,4.85175634765625,-0.580758810043335,1.542223334312439,-0.17832177877426147
1783246161415767600,4.861767578125,-0.6502950191497803,1.0298985242843628,-0.1061362624168396
1783246161425779500,4.871779541015625,-0.6879926323890686,0.45921656489372253,-0.040748536586761475
1783246161435791600,4.88179150390625,-0.7243277430534363,-0.08209461718797684,-0.0032216710969805717
1783246161445803500,4.891803466796875,-0.7632988691329956,-0.3471433222293854,0.026615818962454796
1783246161455814400,4.901814453125,-0.8813826441764832,-0.2925701141357422,-0.010594133287668228
1783246161465826600,4.91182666015625,-1.0316511392593384,0.03574712201952934,-0.20421336591243744
1783246161475838500,4.92183837890625,-1.1267973184585571,0.6154887676239014,-0.5697109699249268
1783246161485850600,4.9318505859375,-1.1779727935791016,1.234142780303955,-1.006430983543396
1783246161495862500,4.941862548828125,-1.206753134727478,1.664509892463684,-1.3837857246398926
1783246161505873400,4.951873291015625,-1.1854459047317505,1.8978301286697388,-1.629953145980835
1783246161515885300,4.96188525390625,-1.0858794450759888,1.98393976688385,-1.7646901607513428
1783246161525897500,4.9718974609375,-0.9638486504554749,1.8749130964279175,-1.8032984733581543
1783246161535909400,4.981909423828125,-0.8232777118682861,1.6174155473709106,-1.7574659585952759
1783246161545920300,4.991920166015625,-0.743344247341156,1.3097717761993408,-1.6091804504394531
1783246161555932400,5.001932373046875,-0.6663399934768677,1.007908821105957,-1.3526557683944702
1783246161565944300,5.0119443359375,-0.5684928297996521,0.6791766881942749,-1.0371789932250977
1783246161575956500,5.02195654296875,-0.45794129371643066,0.32945704460144043,-0.6760629415512085
1783246161585968400,5.031968505859375,-0.34585434198379517,-0.06194609776139259,-0.27051758766174316
1783246161595979500,5.0419794921875,-0.2578507363796234,-0.42075246572494507,0.15926653146743774
1783246161605991400,5.051991455078125,-0.19662103056907654,-0.7141252756118774,0.5959267616271973
1783246161616003600,5.062003662109375,-0.16613449156284332,-1.0204191207885742,0.9288210868835449
1783246161626015500,5.072015380859375,-0.16007985174655914,-1.3382445573806763,1.169258952140808
1783246161636027600,5.082027587890625,-0.2168981283903122,-1.633233904838562,1.3291511535644531
1783246161646038500,5.09203857421875,-0.3710908591747284,-1.8761156797409058,1.4496352672576904
1783246161656050400,5.102050537109375,-0.5286173224449158,-1.9238795042037964,1.5494457483291626
1783246161666062300,5.112062255859375,-0.6739908456802368,-1.7710630893707275,1.6693735122680664
1783246161676074500,5.122074462890625,-0.8926840424537659,-1.5266022682189941,1.9040571451187134
1783246161686085400,5.13208544921875,-1.187690019607544,-1.2531239986419678,2.285541296005249
1783246161696097300,5.14209716796875,-1.5704866647720337,-0.9052274823188782,2.7467458248138428
1783246161706109400,5.152109375,-2.0347230434417725,-0.24997618794441223,3.1227569580078125
1783246161716121300,5.162121337890625,-2.568373203277588,0.45032572746276855,3.3457753658294678
1783246161726133200,5.17213330078125,-3.1563098430633545,1.1355465650558472,3.442546844482422
1783246161736144600,5.18214453125,-3.7279794216156006,2.0472207069396973,3.481644630432129
1783246161746156500,5.192156494140625,-4.179062366485596,3.1161184310913086,3.3931849002838135
1783246161756168400,5.20216845703125,-4.5269293785095215,4.055870056152344,3.341282367706299
1783246161766180600,5.2121806640625,-4.8229899406433105,4.5675554275512695,3.590153455734253
1783246161776192500,5.222192626953125,-5.013525485992432,3.862933397293091,4.057638645172119
1783246161786203400,5.232203369140625,-5.0976996421813965,2.0575449466705322,4.447371006011963
1783246161796215600,5.242215576171875,-5.024882793426514,0.08847467601299286,4.683021068572998
1783246161806227500,5.2522275390625,-4.895923614501953,-1.0584489107131958,4.804561138153076
1783246161816239400,5.2622392578125,-4.6359076499938965,-1.0846748352050781,4.709880828857422
1783246161826251500,5.27225146484375,-4.271920680999756,-0.15735416114330292,4.40514612197876
1783246161836262400,5.282262451171875,-3.962484359741211,1.209565281867981,4.073974609375
1783246161846274300,5.2922744140625,-3.7791974544525146,2.62184739112854,3.7664005756378174
1783246161856286500,5.302286376953125,-3.709561347961426,3.6670360565185547,3.270545482635498
1783246161866298400,5.31229833984375,-3.862936496734619,4.114965915679932,2.5034830570220947
1783246161876309500,5.3223095703125,-4.229996681213379,4.203988552093506,1.7689621448516846
1783246161886321700,5.33232177734375,-4.536143779754639,4.2624592781066895,1.1541517972946167
1783246161896333600,5.34233349609375,-4.6398162841796875,4.27162504196167,0.31550362706184387
1783246161906345500,5.352345458984375,-4.572926998138428,4.197355270385742,-0.7440502047538757
1783246161916357600,5.362357666015625,-4.355429649353027,4.171122074127197,-1.800624966621399
1783246161926368500,5.372368408203125,-3.8256053924560547,4.021421909332275,-2.63663911819458
1783246161936380400,5.38238037109375,-3.0379586219787598,3.435056686401367,-3.1627426147460938
1783246161946392600,5.392392578125,-2.260007858276367,2.4880175590515137,-3.2780556678771973
1783246161956404500,5.402404541015625,-1.7451673746109009,1.5166348218917847,-2.9271624088287354
1783246161966415400,5.412415283203125,-1.5804692506790161,0.7790273427963257,-2.1776797771453857
1783246161976427500,5.422427490234375,-1.7057344913482666,0.35944318771362305,-1.3436434268951416
1783246161986439400,5.432439453125,-1.8649544715881348,0.2253386676311493,-0.6651947498321533
1783246161996451300,5.442451416015625,-1.8479256629943848,0.4067409634590149,-0.21086187660694122
1783246162006463500,5.45246337890625,-1.6487693786621094,0.8226250410079956,0.030036430805921555
1783246162016474400,5.462474365234375,-1.3685702085494995,1.1689091920852661,0.05937620997428894
1783246162026486300,5.472486328125,-1.0681039094924927,1.2971068620681763,-0.06061464175581932
1783246162036498400,5.48249853515625,-0.8172732591629028,1.0927740335464478,-0.2564326226711273
1783246162046510300,5.49251025390625,-0.6583425402641296,0.6195567846298218,-0.42212167382240295
1783246162056522500,5.5025224609375,-0.6054937243461609,0.09686347097158432,-0.5049571990966797
1783246162066533600,5.51253369140625,-0.6223946213722229,-0.3695497214794159,-0.5462422370910645
1783246162076545500,5.522545654296875,-0.6433736681938171,-0.5834159255027771,-0.5487298965454102
1783246162086557400,5.532557373046875,-0.6586337685585022,-0.5773166418075562,-0.5394359827041626
1783246162096569600,5.542569580078125,-0.7083192467689514,-0.5021907687187195,-0.5568162798881531
1783246162106580500,5.55258056640625,-0.7656319737434387,-0.387080579996109,-0.5764758586883545
1783246162116592400,5.56259228515625,-0.8116138577461243,-0.2242322564125061,-0.6144450902938843
1783246162126604500,5.5726044921875,-0.8024398684501648,-0.06564484536647797,-0.6897474527359009
1783246162136616400,5.582616455078125,-0.7629177570343018,-0.12228815257549286,-0.7658329010009766
1783246162146628400,5.59262841796875,-0.7802107334136963,-0.3441731035709381,-0.7815659046173096
1783246162156639500,5.602639404296875,-0.7632075548171997,-0.6275693774223328,-0.6768627166748047
1783246162166651400,5.6126513671875,-0.6997147798538208,-0.8459182381629944,-0.4788395166397095
1783246162176663300,5.622663330078125,-0.571337103843689,-0.8960162997245789,-0.21199211478233337
1783246162186675500,5.632675537109375,-0.3705217242240906,-0.8482394814491272,0.09059309214353561
1783246162196687400,5.642687255859375,-0.15458758175373077,-0.826440691947937,0.37941262125968933
1783246162206698500,5.652698486328125,-0.01015157625079155,-0.9069453477859497,0.603857159614563
1783246162216710700,5.662710693359375,-0.07652926445007324,-1.015549898147583,0.7108421921730042
1783246162226722600,5.67272265625,-0.286451518535614,-0.9218283295631409,0.7056764364242554
1783246162236734500,5.682734375,-0.5283469557762146,-0.5831741094589233,0.6103635430335999
1783246162246745300,5.692745361328125,-0.724811315536499,-0.08244630694389343,0.5122883915901184
1783246162256757500,5.702757568359375,-0.7972567081451416,0.4115152060985565,0.3557395339012146
1783246162266769400,5.712769287109375,-0.7630841135978699,0.6493852734565735,0.16247817873954773
1783246162276781600,5.722781494140625,-0.6881025433540344,0.6126155257225037,0.19530057907104492
1783246162286793500,5.73279345703125,-0.5160328149795532,0.32183852791786194,0.6654773354530334
1783246162296804400,5.742804443359375,-0.3946366012096405,-0.04320921376347542,1.3674511909484863
1783246162306816500,5.75281640625,-0.3875991702079773,-0.1370885670185089,2.045099973678589
1783246162316828400,5.762828369140625,-0.47562623023986816,0.14922547340393066,2.517796516418457
1783246162326840300,5.77284033203125,-0.7108202576637268,0.5934272408485413,2.636009931564331
1783246162336852500,5.7828525390625,-1.0280041694641113,0.7347827553749084,2.4281394481658936
1783246162346863600,5.792863525390625,-1.3653512001037598,0.5067175030708313,2.009460926055908
1783246162356875800,5.802875732421875,-1.436674952507019,0.16512790322303772,1.4775722026824951
1783246162366888000,5.812887939453125,-1.1179574728012085,-0.08846846222877502,0.9184526205062866
1783246162376899800,5.82289990234375,-0.65639728307724,-0.20066770911216736,0.46151459217071533
1783246162386911000,5.832910888671875,-0.3037274181842804,-0.12556475400924683,0.31139975786209106
1783246162396923100,5.842923095703125,-0.18418796360492706,0.20199820399284363,0.6538689732551575
1783246162406935000,5.85293505859375,-0.15678277611732483,0.5534272789955139,1.2717808485031128
1783246162416947000,5.862947021484375,-0.09366745501756668,0.6752442717552185,1.7196952104568481
1783246162426959000,5.872958984375,-0.004669453017413616,0.24388563632965088,1.5878487825393677
1783246162436970000,5.882969970703125,-0.11163424700498581,-0.4699680507183075,0.7836976647377014
1783246162446982000,5.89298193359375,-0.38005539774894714,-0.7125072479248047,-0.45890823006629944
1783246162456994000,5.902994140625,-0.6211341023445129,-0.3829704225063324,-1.6141139268875122
1783246162467006000,5.913005859375,-0.8596335053443909,0.2654464542865753,-2.2849743366241455
1783246162477016800,5.923016845703125,-0.9800568222999573,0.7418370246887207,-2.3201117515563965
1783246162487029000,5.933029052734375,-0.9462014436721802,0.8225985765457153,-1.8603911399841309
1783246162497041000,5.943041015625,-0.8241362571716309,0.5033037066459656,-1.1807068586349487
1783246162507052800,5.953052734375,-0.7176879644393921,-0.012133372947573662,-0.5203604102134705
1783246162517065000,5.96306494140625,-0.6381009817123413,-0.46558982133865356,0.08138372749090195
1783246162527076000,5.973076171875,-0.6258404850959778,-0.6434034109115601,0.5579169988632202
1783246162537088000,5.983087890625,-0.6373610496520996,-0.40846115350723267,0.813832700252533
1783246162547100200,5.99310009765625,-0.6382932662963867,0.07246407121419907,0.850989818572998
1783246162557112000,6.003112060546875,-0.6627128720283508,0.5101399421691895,0.6926047205924988
1783246162567124000,6.0131240234375,-0.7005290985107422,0.7614527344703674,0.4019072651863098
1783246162577134800,6.023134765625,-0.6522718071937561,0.7822510004043579,0.11409839987754822
1783246162587147000,6.03314697265625,-0.5231084823608398,0.634168803691864,-0.025127366185188293
1783246162597159000,6.043158935546875,-0.41940873861312866,0.42353299260139465,0.01376783475279808
1783246162607171000,6.053171142578125,-0.33004483580589294,0.24264010787010193,0.22062107920646667
1783246162617182000,6.063181884765625,-0.30270668864250183,0.0724787712097168,0.4960814416408539
1783246162627193900,6.07319384765625,-0.3028286397457123,-0.07121235877275467,0.7277715802192688
1783246162637206000,6.0832060546875,-0.31717854738235474,-0.1995125263929367,0.8288193941116333
1783246162647218000,6.093218017578125,-0.3599901795387268,-0.22180984914302826,0.7725704312324524
1783246162657229800,6.103229736328125,-0.3860548138618469,-0.12923116981983185,0.602915346622467
1783246162667241000,6.113240966796875,-0.4095926880836487,0.04503889009356499,0.3407120108604431
1783246162677253000,6.123253173828125,-0.37881478667259216,0.20746588706970215,0.09596696496009827
1783246162687265000,6.13326513671875,-0.29144081473350525,0.23481351137161255,0.015240129083395004
1783246162697277200,6.143277099609375,-0.19954682886600494,0.09558665007352829,0.08660086244344711
1783246162707288000,6.1532880859375,-0.060980334877967834,-0.12226755172014236,0.3207037150859833
1783246162717300000,6.163300048828125,0.0859593078494072,-0.3911115229129791,0.7278317809104919
1783246162727312000,6.173311767578125,0.19533245265483856,-0.7968123555183411,1.27962064743042
1783246162737324000,6.183323974609375,0.19340218603610992,-1.1689454317092896,1.863600492477417
1783246162747336000,6.1933359375,0.17688408493995667,-1.3227643966674805,2.349512815475464
1783246162757346800,6.203346923828125,0.15562912821769714,-1.1308677196502686,2.4877982139587402
1783246162767359000,6.21335888671875,0.10450077056884766,-0.722150444984436,2.2759475708007812
1783246162777371000,6.223370849609375,-0.009466281160712242,-0.3474319577217102,1.9342137575149536
1783246162787383000,6.233383056640625,-0.11546126753091812,-0.037732794880867004,1.6319055557250977
1783246162797395000,6.24339501953125,-0.1866465061903,0.05463921278715134,1.3483902215957642
1783246162807405800,6.25340576171875,-0.25148865580558777,-0.1351715326309204,1.0977033376693726
1783246162817418000,6.26341796875,-0.32153990864753723,-0.34004876017570496,0.9627510905265808
1783246162827430000,6.273429931640625,-0.4472939670085907,-0.3931832015514374,0.9556370973587036
1783246162837442000,6.283442138671875,-0.5355324149131775,-0.26755255460739136,1.0413397550582886
1783246162847453000,6.293452880859375,-0.45193031430244446,-0.0073588574305176735,1.1212294101715088
1783246162857465000,6.303465087890625,-0.2470346987247467,0.29780369997024536,1.1738991737365723
1783246162867477000,6.31347705078125,-0.05519668757915497,0.39040407538414,1.2739931344985962
1783246162877489000,6.323489013671875,-0.09899343550205231,0.14568912982940674,1.4265484809875488
1783246162887501000,6.3335009765625,-0.3879843056201935,-0.3075881600379944,1.493070125579834
1783246162897512000,6.343511962890625,-0.7972573041915894,-0.7935822606086731,1.1678664684295654
1783246162907523800,6.35352392578125,-1.1832252740859985,-0.8463802337646484,0.4489428699016571
1783246162917536000,6.363535888671875,-1.3818069696426392,-0.3687915503978729,-0.5936791300773621
1783246162927548000,6.3735478515625,-1.4810148477554321,0.5790570378303528,-1.4479647874832153
1783246162937560000,6.38356005859375,-1.476816177368164,1.4167689085006714,-1.5526111125946045
1783246162947571000,6.393571044921875,-1.2642030715942383,1.3807883262634277,-0.8358709812164307
1783246162957582800,6.403582763671875,-0.7997698187828064,0.5847712159156799,0.43075263500213623
1783246162967594800,6.4135947265625,-0.16462740302085876,-0.5502051115036011,1.5023554563522339
1783246162977607000,6.42360693359375,0.47614166140556335,-1.570026159286499,1.7031821012496948
1783246162987618000,6.4336181640625,0.9506506323814392,-1.8890560865402222,1.0855809450149536
1783246162997630000,6.4436298828125,1.2036714553833008,-1.6003159284591675,0.04693715274333954
1783246163007642000,6.45364208984375,1.2151384353637695,-1.1849215030670166,-1.0763014554977417
1783246163017654000,6.463654052734375,1.028334379196167,-0.8467389345169067,-2.114867687225342
1783246163027666000,6.473666015625,0.8232818245887756,-0.5884684920310974,-2.972940683364868
1783246163037677000,6.483677001953125,0.6725570559501648,-0.5824372172355652,-3.5304596424102783
1783246163047689000,6.49368896484375,0.5512512922286987,-0.8925699591636658,-3.6734378337860107
1783246163057700900,6.503700927734375,0.4216732978820801,-1.2198830842971802,-3.484722137451172
1783246163067713000,6.513713134765625,0.31968846917152405,-1.3416175842285156,-3.1282927989959717
1783246163077724000,6.523723876953125,0.26923462748527527,-1.1501102447509766,-2.6289048194885254
1783246163087735800,6.53373583984375,0.19563962519168854,-0.8042512536048889,-2.0847911834716797
1783246163097748000,6.543748046875,0.013952654786407948,-0.4714304506778717,-1.5939393043518066
1783246163107759900,6.553759765625,-0.1544782817363739,-0.12043017894029617,-1.1764389276504517
1783246163117771800,6.563771728515625,-0.28786617517471313,0.0862087532877922,-0.8697503209114075
1783246163127783200,6.573783203125,-0.35304102301597595,0.13442490994930267,-0.6426346898078918
1783246163137795000,6.583795166015625,-0.2579001188278198,0.111566461622715,-0.40895697474479675
1783246163147807000,6.593806884765625,-0.07366491109132767,-0.004138455726206303,-0.11463343352079391
1783246163157819100,6.603819091796875,0.11361097544431686,-0.1375740021467209,0.24296918511390686
1783246163167830000,6.613830078125,0.21803595125675201,-0.23505312204360962,0.5826245546340942
1783246163177842000,6.623842041015625,0.2164044976234436,-0.2950301766395569,0.7998013496398926
1783246163187854000,6.63385400390625,0.15948043763637543,-0.3462311029434204,0.8632156252861023
1783246163197866000,6.643865966796875,0.07210159301757812,-0.3977363705635071,0.750268280506134
1783246163207878000,6.6538779296875,-0.03945488482713699,-0.4039158225059509,0.49423256516456604
1783246163217889000,6.663888916015625,-0.16471107304096222,-0.3444410562515259,0.15761835873126984
1783246163227901000,6.67390087890625,-0.29506808519363403,-0.2433408796787262,-0.12976016104221344
1783246163237912800,6.683912841796875,-0.42236799001693726,-0.13457152247428894,-0.2803986668586731
1783246163247925000,6.693925048828125,-0.5039304494857788,-0.04902379587292671,-0.3245539367198944
1783246163257937000,6.70393701171875,-0.5033751726150513,0.03752867132425308,-0.25821566581726074
1783246163267948000,6.713947998046875,-0.42188164591789246,0.060235314071178436,-0.05510813742876053
1783246163277960000,6.7239599609375,-0.30122607946395874,0.04420095309615135,0.23870670795440674
1783246163287972000,6.73397216796875,-0.1910133957862854,0.05024489015340805,0.5489283800125122
1783246163297984000,6.74398388671875,-0.14381924271583557,0.05716431885957718,0.7930949926376343
1783246163307995100,6.7539951171875,-0.14713385701179504,0.08196654170751572,0.9576758742332458
1783246163318007000,6.764007080078125,-0.20137207210063934,0.12667542695999146,1.0393239259719849
1783246163328019000,6.77401904296875,-0.25474414229393005,0.21384048461914062,1.0477674007415771
1783246163338031000,6.784031005859375,-0.2735966742038727,0.3302488625049591,1.003489375114441
1783246163348043000,6.79404296875,-0.25019052624702454,0.4502619504928589,0.93987637758255
1783246163358054000,6.804053955078125,-0.23344963788986206,0.5151200294494629,0.9036280512809753
1783246163368065800,6.814065673828125,-0.24822857975959778,0.47432786226272583,0.8923889994621277
1783246163378077700,6.82407763671875,-0.28317803144454956,0.4746860861778259,0.9102857112884521
1783246163388089900,6.83408984375,-0.2711961567401886,0.5062326192855835,0.906505286693573
1783246163398100700,6.844100830078125,-0.1539800465106964,0.4868549108505249,0.9226139187812805
1783246163408112600,6.854112548828125,0.0037920523900538683,0.4205949902534485,1.0903958082199097
1783246163418124800,6.864124755859375,0.07674029469490051,0.26491671800613403,1.3691240549087524
1783246163428136700,6.87413671875,0.07995802164077759,0.019915588200092316,1.655730962753296
1783246163438148900,6.88414892578125,0.01383758895099163,-0.2814581096172333,1.7852556705474854
1783246163448160000,6.894159912109375,-0.13336627185344696,-0.5985633730888367,1.5554320812225342
1783246163458172000,6.904171875,-0.32089754939079285,-0.7942716479301453,1.00761878490448
1783246163468183800,6.914183837890625,-0.4711993336677551,-0.676633358001709,0.4708675444126129
1783246163478196000,6.924196044921875,-0.4451669156551361,-0.35142117738723755,0.14918535947799683
1783246163488208000,6.934207763671875,-0.19961689412593842,-0.1392756700515747,0.0485779270529747
1783246163498218800,6.94421875,0.16402922570705414,-0.21817047894001007,0.13256818056106567
1783246163508231000,6.95423095703125,0.49649330973625183,-0.528120756149292,0.33196040987968445
1783246163518242800,6.964242919921875,0.7351782917976379,-0.9347774982452393,0.6626903414726257
1783246163528254700,6.974254638671875,0.845503568649292,-1.4645283222198486,0.9827974438667297
1783246163538265900,6.984265869140625,0.8591490387916565,-2.0635251998901367,0.9051654934883118
1783246163548277800,6.99427783203125,0.7879401445388794,-2.4302608966827393,0.18602682650089264
1783246163558289700,7.00428955078125,0.6599875092506409,-2.2080249786376953,-0.8848704099655151
1783246163568301800,7.0143017578125,0.4951470196247101,-1.5774856805801392,-2.060474157333374
1783246163578313700,7.024313720703125,0.2099112868309021,-0.780720055103302,-3.0754928588867188
1783246163588324900,7.034324951171875,-0.11994587630033493,-0.06633046269416809,-3.708052158355713
1783246163598337000,7.0443369140625,-0.40069419145584106,0.2993588447570801,-4.154738426208496
1783246163608349000,7.054348876953125,-0.47872039675712585,0.20484310388565063,-4.514466762542725
1783246163618360800,7.06436083984375,-0.43655964732170105,-0.1517416536808014,-4.602169990539551
1783246163628372000,7.0743720703125,-0.3444291949272156,-0.3019508421421051,-4.181128025054932
1783246163638383900,7.0843837890625,-0.2426309436559677,-0.11844415217638016,-3.286916971206665
1783246163648395800,7.094395751953125,-0.1702137142419815,0.19278483092784882,-2.1683411598205566
1783246163658408000,7.104407958984375,-0.1243884414434433,0.4075477421283722,-1.1944057941436768
1783246163668419800,7.114419921875,-0.05726652592420578,0.4148383140563965,-0.5361350774765015
1783246163678430700,7.1244306640625,0.008951909840106964,0.14985030889511108,-0.19765423238277435
1783246163688443000,7.13444287109375,0.05236147716641426,-0.28938430547714233,-0.152774378657341
1783246163698454800,7.144454833984375,0.04523672163486481,-0.6257524490356445,-0.3244777023792267
1783246163708466700,7.154466796875,0.034699104726314545,-0.5875433087348938,-0.5352209210395813
1783246163718478800,7.164478759765625,0.08131933957338333,-0.1615445911884308,-0.6356335282325745
1783246163728490000,7.174489990234375,0.12996862828731537,0.33835604786872864,-0.6349377632141113
1783246163738502000,7.184501953125,0.20368759334087372,0.6856735348701477,-0.5333059430122375
1783246163748514000,7.19451416015625,0.26131996512413025,0.8020776510238647,-0.4063360393047333
1783246163758526000,7.20452587890625,0.2526063919067383,0.7270146012306213,-0.32135695219039917
1783246163768536800,7.214536865234375,0.20349663496017456,0.5024986267089844,-0.27789267897605896
1783246163778549000,7.224549072265625,0.11741422116756439,0.17905773222446442,-0.28947052359580994
1783246163788561000,7.234560791015625,0.0037069059908390045,-0.10998467355966568,-0.3546402156352997
1783246163798572800,7.24457275390625,-0.06558641046285629,-0.2458551526069641,-0.429558128118515
1783246163808585000,7.2545849609375,-0.07404708862304688,-0.2192816585302353,-0.44122451543807983
1783246163818595800,7.264595947265625,-0.06054060533642769,-0.1329563558101654,-0.36850130558013916
1783246163828607700,7.274607666015625,-0.00294792209751904,0.023048104718327522,-0.21489405632019043
1783246163838620000,7.284619873046875,0.09127818048000336,0.2114611566066742,-0.03474745899438858
1783246163848631800,7.2946318359375,0.17569974064826965,0.2897185683250427,0.16873392462730408
1783246163858643700,7.304643798828125,0.18753136694431305,0.22175070643424988,0.3972373902797699
1783246163868654800,7.31465478515625,0.15332089364528656,0.02649008296430111,0.6093090772628784
1783246163878666800,7.324666748046875,0.11693945527076721,-0.22015245258808136,0.7763795256614685
1783246163888679000,7.334678955078125,0.09805597364902496,-0.41850316524505615,0.8854040503501892
1783246163898690800,7.34469091796875,0.09534727036952972,-0.4274183511734009,0.9256113767623901
1783246163908702000,7.354701904296875,0.08172278851270676,-0.26133403182029724,0.8805691599845886
1783246163918713900,7.3647138671875,0.03439841419458389,0.046539902687072754,0.7982537746429443
1783246163928726000,7.37472607421875,-0.017292194068431854,0.3667498528957367,0.6756241917610168
1783246163938738000,7.384738037109375,-0.040226273238658905,0.5511420965194702,0.5152598023414612
1783246163948749800,7.394749755859375,-0.07127892225980759,0.5898700952529907,0.379863440990448
1783246163958760700,7.4047607421875,-0.1078297421336174,0.5183508992195129,0.31565117835998535
1783246163968772900,7.41477294921875,-0.141793891787529,0.47261983156204224,0.38571611046791077
1783246163978784800,7.42478466796875,-0.2023773491382599,0.5127683281898499,0.49721866846084595
1783246163988797000,7.434796875,-0.19849634170532227,0.5714612007141113,0.5997089147567749
1783246163998807800,7.444807861328125,-0.11049297451972961,0.42967715859413147,0.7769489288330078
1783246164008819700,7.45481982421875,-0.009441675618290901,0.036346435546875,1.127078890800476
1783246164018831600,7.46483154296875,0.08436364680528641,-0.4487534165382385,1.6247413158416748
1783246164028843800,7.47484375,0.0814485028386116,-0.9401665925979614,2.0181355476379395
1783246164038855700,7.484855712890625,0.04154343158006668,-1.2328847646713257,2.0296497344970703
1783246164048866800,7.49486669921875,0.043497227132320404,-1.2205753326416016,1.6500869989395142
1783246164058879000,7.50487890625,0.07455235719680786,-1.0492604970932007,0.9849345684051514
1783246164068891000,7.514890869140625,0.23878122866153717,-0.9810830354690552,-0.1731717735528946
1783246164078902800,7.52490283203125,0.5258103609085083,-1.000657558441162,-1.392519235610962
1783246164088914000,7.534913818359375,0.8920844197273254,-1.3303591012954712,-2.5666465759277344
1783246164098925800,7.54492578125,1.0495842695236206,-1.748717188835144,-3.5683629512786865
1783246164108937700,7.554937744140625,0.9667046666145325,-2.035438299179077,-3.792579174041748
1783246164118950000,7.564949951171875,0.9077278971672058,-2.4161977767944336,-3.175661325454712
1783246164128961800,7.5749619140625,1.017340064048767,-2.7878355979919434,-2.2012109756469727
1783246164138972700,7.58497265625,1.3285962343215942,-3.1096043586730957,-1.4244359731674194
1783246164148984800,7.59498486328125,1.7051445245742798,-3.352207660675049,-1.130179762840271
1783246164158996700,7.604996826171875,2.0872232913970947,-3.337562084197998,-1.2989033460617065
1783246164169008600,7.615008544921875,2.468050718307495,-2.91705584526062,-1.9632961750030518
