time,seconds_elapsed,z,y,x
1783246093222774800,0.05477490234375,0.8132166635483503,-0.4573559377148747,0.2946634394077584
1783246093232786700,0.06478662109375,0.4118243128567934,-0.37181554307341574,0.40852315241955217
1783246093242797800,0.0747978515625,-0.015796704068779945,-0.2232175114944577,0.5975078106509522
1783246093252809700,0.084809814453125,-0.2143587899953127,-0.02502776601165533,0.7829058425672352
1783246093262821600,0.094821533203125,-0.25017536878585817,0.1955173114031553,0.8907704433500766
1783246093272833800,0.104833740234375,-0.19828560707271098,0.326590499946475,0.8518143974900245
1783246093282845700,0.114845703125,0.08697861075103283,0.2585448454633355,0.48055166599377985
1783246093292856600,0.124856689453125,0.3892290346890688,0.2775722020164132,0.06561351369908079
1783246093302868500,0.134868408203125,0.6832090584099292,0.23910510871708393,-0.360525027850084
1783246093312880400,0.14488037109375,0.9882844766408204,-0.040109015287458895,-0.8209578522596508
1783246093322892500,0.154892578125,1.3113409572422503,-0.41230683567672965,-1.1715350116670131
1783246093332904400,0.164904541015625,1.4469757546126842,-0.7253551324829459,-1.2833175165459514
1783246093342916600,0.17491650390625,1.3884680360645054,-0.9295257059410214,-0.9074318014241755
1783246093352927500,0.184927490234375,1.6725538577586412,-0.7318287124112248,-0.39288923769705
1783246093362939400,0.194939453125,2.1345073523968456,-0.4039791523143649,-0.1622050070511177
1783246093372951300,0.204951416015625,2.058925164929032,-0.08294833232164382,-0.0005062324890866875
1783246093382963500,0.21496337890625,1.1314940931797026,0.7280313659548759,0.5982893894826993
1783246093392975400,0.224975341796875,0.7139198384940624,0.35721769340038295,0.3844262375172227
1783246093402986200,0.234986328125,0.7809703444600105,0.24402590624541043,0.014618088743463157
1783246093412998400,0.244998291015625,1.0589625254541635,0.3772539347350597,-0.12102869132570922
1783246093423010300,0.25501025390625,1.4144576328456402,0.8084419964924454,0.05753500105850398
1783246093433022500,0.2650224609375,2.006608702236414,1.1311787436202168,0.06287044380232691
1783246093443034400,0.275034423828125,2.5508734003365037,1.482812207147479,0.08443973992317914
1783246093453045200,0.285045166015625,2.9826340012848376,1.8395725121691822,0.12258834185786545
1783246093463057200,0.29505712890625,3.296513488218188,1.9300263978153467,0.17205431049019096
1783246093473069300,0.3050693359375,3.6103111420869824,1.9710095655888318,0.3112809218075126
1783246093483081200,0.315081298828125,3.9195366657346487,2.028618873992562,0.2912872775055468
1783246093493093400,0.32509326171875,4.1785108425259585,2.041522486968338,0.10233027446605264
1783246093503105300,0.335105224609375,4.2551761490553615,1.9081494970500468,-0.17832769167125223
1783246093513116400,0.345116455078125,4.484651844161749,1.3117246958628297,-0.5022079828109592
1783246093523128300,0.35512841796875,4.7572278453260655,0.32378713296353817,-0.9789172941628843
1783246093533140500,0.365140380859375,4.490703983807563,-0.695595077252388,-1.6711365383066237
1783246093543152400,0.37515234375,3.529800266045332,-1.640216645516455,-2.477593936853111
1783246093553164500,0.38516455078125,2.317301375827193,-2.3767846614092587,-3.2257255492895838
1783246093563175400,0.395175537109375,1.1779869642853735,-2.564931444044411,-3.276503550368547
1783246093573187300,0.405187255859375,0.37409927009642124,-2.1681024557456374,-2.3554579418726265
1783246093583199500,0.415199462890625,-0.24536475363373755,-1.7143737686172127,-0.6396450803630054
1783246093593211400,0.42521142578125,-1.3442507086753845,-1.2207152221605182,1.6462845672532915
1783246093603223300,0.435223388671875,-3.044981444126367,-0.8176528924301266,2.640738672439754
1783246093613234200,0.445234130859375,-5.837624203953147,-1.9889421126425264,2.3653172187164424
1783246093623246300,0.455246337890625,-8.474820381480455,-3.2185166408240793,1.3051879875704646
1783246093633258200,0.46525830078125,-10.06170963369608,-3.5802214165106414,0.8913266889933497
1783246093643270400,0.4752705078125,-10.682290678757429,-3.121207190194726,1.1473181967120616
1783246093653282300,0.4852822265625,-11.368504179680347,-2.715975115209818,1.4058622384577988
1783246093663294200,0.495294189453125,-11.600509101003407,-2.902070518273115,1.204542451320961
1783246093673305300,0.505305419921875,-11.511984429854154,-3.5254350565731523,0.6935491045080124
1783246093683317500,0.5153173828125,-11.62722993466854,-4.225086715739965,0.12153247612938284
1783246093693329400,0.525329345703125,-11.812955919897556,-4.459790959149599,-0.022922464295476674
1783246093703341600,0.535341552734375,-11.886568268597125,-4.043744644683599,0.22731216039694843
1783246093713353500,0.545353515625,-11.5543470692873,-3.2753225238904355,0.5818137632390484
1783246093723364400,0.5553642578125,-10.649453408038616,-2.445492579193413,1.0515064372945577
1783246093733376500,0.56537646484375,-9.350116776844859,-1.736452913956344,1.3997829185441135
1783246093743388400,0.575388427734375,-7.597222723436355,-0.3929223362490534,1.4148220822438597
1783246093753400300,0.585400390625,-5.077669759514928,-0.918067907859385,-0.5488763566140085
1783246093763412500,0.59541259765625,-3.389827147209644,-3.0835481984078883,-2.099557327307761
1783246093773423400,0.60542333984375,-1.462619898468256,-3.630843642506003,-2.1951479913204905
1783246093783435300,0.615435302734375,-1.1154869612306355,-3.118712743030488,-2.673637610217929
1783246093793447400,0.625447509765625,-2.6030378873378037,-2.586497086903453,-2.725904096288979
1783246093803459300,0.635459228515625,-4.132436489093304,-1.7543717247456312,-1.214969079723954
1783246093813471200,0.64547119140625,-4.837667409697175,-0.3946063438132405,0.6751860570825636
1783246093823483400,0.6554833984375,-3.607856150150299,1.331295365512371,1.6552693993501364
1783246093833494500,0.66549462890625,-0.6515571980834007,3.402325101993978,0.9752082835771143
1783246093843506400,0.67550634765625,1.5964187125831841,3.7830151486575603,0.00967354501336813
1783246093853518600,0.6855185546875,3.113827601337433,2.615136905932426,0.027868250134587286
1783246093863530500,0.695530517578125,4.505584157553315,2.7015941231578586,-0.5512310299813747
1783246093873542400,0.70554248046875,6.351961965823173,4.389566499322653,-1.3520967460006474
1783246093883553500,0.715553466796875,8.846975531771779,3.8440491708129643,-1.4693658655971287
1783246093893565400,0.7255654296875,10.874600718551873,1.0104852025330067,-2.5845593968391416
1783246093903577300,0.735577392578125,10.579047746425866,-0.4521078079283237,-3.2237446046054363
1783246093913589500,0.745589599609375,7.312172440624237,1.5870964652255177,-1.7750668683804571
1783246093923601400,0.755601318359375,5.507653413918614,2.666530116300285,-1.54472827283442
1783246093933612300,0.7656123046875,3.828008136594295,1.8933944109886884,-2.2108763063281773
1783246093943624400,0.77562451171875,2.333451131117344,1.2749208596006034,-1.8862497999310492
1783246093953636400,0.78563623046875,2.135713221055269,1.2371788657054303,-1.0227256754249334
1783246093963648300,0.795648193359375,2.9671465092957017,1.5836963013932108,-0.11555851628631353
1783246093973660400,0.805660400390625,3.682047760042548,1.63143274281919,-0.21842647782564162
1783246093983672300,0.81567236328125,4.8523780720949174,1.3580337348341942,-0.988734850756824
1783246093993683500,0.825683349609375,5.948900805136561,0.9380787224918603,-1.3435256092712282
1783246094003695400,0.8356953125,6.239083774662017,0.8175517701432108,-1.8128756439015268
1783246094013707500,0.84570751953125,6.143946991896629,0.9902508082777262,-2.292880928058922
1783246094023719400,0.855719482421875,6.159476569461822,1.2686959937363862,-2.376314121288061
1783246094033731600,0.865731689453125,5.922975505763292,1.5024641253396869,-2.5819340167716143
1783246094043742500,0.875742431640625,5.589408152541518,1.5647309041604398,-2.995326309597492
1783246094053754400,0.88575439453125,4.774517418301105,1.522984350799024,-3.201689424663782
1783246094063766500,0.8957666015625,4.437012725630402,1.3055202882647514,-3.301505012895167
1783246094073778400,0.9057783203125,4.60182744025588,0.8839815138623118,-3.910127032354474
1783246094083790300,0.915790283203125,4.172134877753257,0.7712494531735777,-3.7818268156558275
1783246094093802500,0.925802490234375,4.21461559060812,1.339029759156704,-2.549632460364699
1783246094103813400,0.9358134765625,4.92475357247591,1.7415043521270155,-2.051153361883759
1783246094113825300,0.9458251953125,5.701701237291097,1.7213094130992888,-2.089250745087862
1783246094123837400,0.95583740234375,6.346109732663631,1.7793720182284711,-2.029986947475374
1783246094133849300,0.965849365234375,6.860172769245505,1.9252230891868471,-2.0475012691169976
1783246094143861200,0.975861328125,6.85639617331624,1.925783061157167,-1.86526721765697
1783246094153872400,0.985872314453125,6.31772651874423,1.8412781470432877,-1.293396427489817
1783246094163884300,0.99588427734375,5.396925678789615,1.8661720575422047,-0.6313038068667054
1783246094173896200,1.005896240234375,4.305891606292128,1.7923223929554224,-0.38420711487382647
1783246094183908400,1.015908447265625,3.4050410829544067,2.2678023086428643,-0.5503843500241636
1783246094193920300,1.025920166015625,2.419884382945299,2.256441248933971,-0.51747401406914
1783246094203931400,1.035931396484375,0.7463993818163871,1.025451008735597,0.22774375674724578
1783246094213943600,1.045943603515625,-0.9727829561263323,0.23510054925084112,0.17634703924804926
1783246094223955500,1.05595556640625,-3.3300738125145433,0.25108400806337594,0.9230936270669102
1783246094233967400,1.06596728515625,-5.793305754277109,0.19256518359929323,2.550582016174495
1783246094243979500,1.0759794921875,-7.122427867403626,-0.3267775469511747,3.4484862569272514
1783246094253990400,1.085990478515625,-7.821435967969894,-1.823526217253506,3.574458030678332
1783246094264002300,1.096002197265625,-7.642084193947911,-3.8698306778013705,3.206765705014765
1783246094274014500,1.106014404296875,-7.683233365938067,-5.791985319328308,2.1329231519453224
1783246094284026400,1.1160263671875,-9.123345080000162,-7.8558976250201455,1.2373607981435955
1783246094294038500,1.12603857421875,-11.257288368773459,-8.944509438806772,1.5809708219520746
1783246094304050400,1.136050537109375,-13.63837803390026,-8.540546945366263,2.919308653321862
1783246094314061300,1.146061279296875,-15.83311627537608,-7.740431170931458,4.170226998305321
1783246094324073200,1.1560732421875,-17.852610178148744,-6.942502677407861,4.521242329934239
1783246094334085400,1.16608544921875,-18.78046385922432,-5.814667106735706,4.533711350885033
1783246094344097300,1.17609716796875,-17.194818469589947,-4.914122288346291,4.137082853594422
1783246094354109400,1.186109375,-13.182006723308563,-4.421474380236864,2.6474294022500513
1783246094364120600,1.19612060546875,-8.172077790111302,-3.835886322623491,0.8336176465421915
1783246094374132500,1.206132568359375,-3.365856489035487,-3.3449452184319495,-0.48319531237035984
1783246094384144600,1.21614453125,0.11607318781018257,-2.998404401868582,-0.8905259670697152
1783246094394156500,1.226156494140625,1.3626286614090204,-2.6541204243212935,-0.577125203564018
1783246094404168400,1.23616845703125,1.2935954571932553,-1.6577432421177625,0.03304682181626558
1783246094414179300,1.246179443359375,0.8428460781365632,-0.2154389864474535,0.9104796446874737
1783246094424191500,1.25619140625,0.7754349221646786,0.9847393513798713,1.3712038897916674
1783246094434203400,1.266203369140625,1.9763368980914353,2.135121684902906,0.907724500760436
1783246094444215600,1.276215576171875,3.0952281148076057,3.1010803479671476,0.4929813778474927
1783246094454227500,1.2862275390625,3.6408278609037397,3.5621062063664195,0.10827157414853572
1783246094464238300,1.29623828125,4.77363303668201,4.516129516965151,0.1756128797546029
1783246094474250200,1.306250244140625,4.9933589066684245,4.269955200514197,0.12316811450719832
1783246094484262400,1.316262451171875,4.165824379432201,3.4708757833898067,-0.22212124069035052
1783246094494274300,1.3262744140625,4.802327216246724,4.3394189051017165,-0.7527084188327193
1783246094504286500,1.336286376953125,5.082194543462991,3.460563063690066,-0.04965893392115831
1783246094514298400,1.34629833984375,3.2654309522122142,1.1295379906758665,0.622941928973794
1783246094524309500,1.3563095703125,2.267597725981474,-0.3955471317946911,-0.7060457441180944
1783246094534321700,1.36632177734375,2.2427508694946763,0.5541951404839753,-1.4418699559062718
1783246094544333600,1.37633349609375,3.060489978903532,2.8094904342532154,-0.9053536799758672
1783246094554345500,1.386345458984375,2.989022825539112,2.4802628638014195,-1.0572636125817894
1783246094564357600,1.396357666015625,3.1174913845419883,1.843636692868173,-2.057599469283223
1783246094574368500,1.406368408203125,4.585176749706268,2.2346283533155917,-2.9487545280367136
1783246094584380400,1.41638037109375,5.615915051195025,2.4385578114941713,-3.443309438811242
1783246094594392600,1.426392578125,5.9921928343743085,2.1052572925150392,-3.9801811040505766
1783246094604404500,1.436404541015625,6.189831960237026,2.029958013641834,-3.8326495326593517
1783246094614416400,1.44641650390625,6.021811727568507,1.8256322496220467,-3.2777745932176705
1783246094624427300,1.45642724609375,5.4052381645828484,1.4245347902238368,-2.8917370480462905
1783246094634439400,1.466439453125,4.910437462353706,1.3560562972813843,-2.6774115757986903
1783246094644451300,1.476451416015625,4.1978579325526955,1.3367925016239284,-2.6550202957704663
1783246094654463500,1.48646337890625,3.565747777739167,1.292473175165057,-2.5159502632543442
1783246094664475400,1.496475341796875,3.44395738132596,1.2576619740247725,-2.4988532902419567
1783246094674487300,1.5064873046875,3.7694483955979345,1.2857637406542897,-2.6982164634183046
1783246094684498400,1.51649853515625,4.26387032764256,1.2681342682003973,-2.8476427625149485
1783246094694510300,1.52651025390625,4.7827930792152875,1.2307464945703743,-2.938883706885576
1783246094704522500,1.5365224609375,5.209804439809918,1.1097323432266712,-2.94937645932734
1783246094714534400,1.546534423828125,5.801847957172989,1.109857723172009,-2.9221050060421225
1783246094724546600,1.556546630859375,5.968230359506607,1.250754971115291,-2.4407807482406496
1783246094734557400,1.566557373046875,5.804409332093596,1.3369833480209112,-1.9900141257882118
1783246094744569600,1.576569580078125,5.7616176535934205,1.570956062285602,-1.661714776097238
1783246094754581500,1.58658154296875,5.381184504300355,1.7874319905653595,-0.9100888918042183
1783246094764593400,1.596593505859375,4.466313638916612,2.9170024222061035,0.9261439545482396
1783246094774605600,1.60660546875,4.050190752083063,2.4194509599640965,1.2901271965608
1783246094784616400,1.616616455078125,4.494155001044273,0.4330404116258025,-1.0155676203638315
1783246094794628400,1.62662841796875,4.635592931735515,-0.6603998452305794,-2.9741484970122576
1783246094804640500,1.636640625,4.211372663164139,-0.3849661165475845,-3.198828774535656
1783246094814652400,1.64665234375,3.63931628729701,0.9241954508289695,-1.4763582087025044
1783246094824664300,1.656664306640625,2.713123232910037,1.2184899473264812,-0.7326292151391506
1783246094834676500,1.666676513671875,0.5512970809549093,0.5553682759165763,-0.9143559015989303
1783246094844687400,1.676687255859375,-1.411880475834012,-0.4896925654351711,-0.872235254228115
1783246094854699300,1.68669921875,-3.625933658632636,-1.368366328278184,-0.4250771776616573
1783246094864711400,1.69671142578125,-6.657740563887358,-1.618151820963621,0.9274833864584565
1783246094874723300,1.706723388671875,-9.399726318666339,-2.5318024969026447,1.2570409195169805
1783246094884735200,1.7167353515625,-11.54925471458435,-4.041743241733313,0.15496756661087274
1783246094894746600,1.72674658203125,-13.713977757024765,-5.53349220405221,-0.5317471618324517
1783246094904758500,1.736758544921875,-16.068600270986558,-7.418543734109401,-0.12821794524267316
1783246094914770400,1.7467705078125,-18.786475082337855,-9.615403790044784,0.9351423767790198
1783246094924782600,1.756782470703125,-22.008114239096642,-10.358923817032576,2.646870891584456
1783246094934794500,1.76679443359375,-24.36296822372675,-9.754109080901742,4.681567916446924
1783246094944805400,1.776805419921875,-25.116868190431592,-9.199618172341584,6.814156283479929
1783246094954817500,1.786817626953125,-23.0933235509634,-9.012949937826395,8.000270440119504
1783246094964829400,1.796829345703125,-17.946121990060806,-9.128950644922256,7.372811910504102
1783246094974841300,1.80684130859375,-12.019299161219596,-9.004335254216194,5.896263439926504
1783246094984853500,1.816853515625,-7.601449401220679,-8.264753735721111,4.945535663741826
1783246094994864400,1.826864501953125,-5.126183907315134,-7.285453360524773,4.227863486976921
1783246095004876300,1.836876220703125,-3.5630911257505415,-6.397233186179399,3.764033092550933
1783246095014888400,1.846888427734375,-2.8927240132570264,-5.380339285647869,3.6995109360188243
1783246095024900400,1.856900390625,-2.400865209698677,-4.341403649178147,3.464921551160514
1783246095034912300,1.866912353515625,-1.091461357998848,-3.189281778511405,3.0991286293774842
1783246095044923600,1.876923583984375,0.8544763101756572,-2.0131272903501984,2.2994202666997907
1783246095054935600,1.886935546875,2.617067581734061,-0.972137936221063,1.1292229333773254
1783246095064947500,1.896947509765625,3.6810838834464548,-0.08255816396027803,-0.0017484511025249957
1783246095074959600,1.906959716796875,4.099008851265907,0.6517834080547094,-0.8813051342599093
1783246095084971500,1.916971435546875,4.334307553437352,1.2923776058360934,-1.3803985652469097
1783246095094983400,1.9269833984375,4.683232050266862,1.7117650474235415,-1.4968100451007484
1783246095104994600,1.93699462890625,5.42979685177803,1.8352216234833,-1.2262586816318333
1783246095115006500,1.94700634765625,6.70072338104546,1.6101038313254714,-0.8723021819844842
1783246095125018400,1.957018310546875,8.056793122330307,1.3986355020746588,-0.6543656796328723
1783246095135030500,1.967030517578125,9.096134416991472,1.2706512194573878,-0.6645670479126274
1783246095145042400,1.97704248046875,9.605250060299038,1.2579928134143352,-0.6031171384327113
1783246095155053300,1.98705322265625,9.038362026980518,1.7473618459835647,-0.42731808845624325
1783246095165065500,1.9970654296875,7.689819174069166,2.3887357959657907,-0.4747165300995111
1783246095175077400,2.007077392578125,6.547481030791998,2.895391478900611,-0.8398824060253799
1783246095185089300,2.01708935546875,5.821608888697624,3.2542578162908553,-1.3763788082115351
1783246095195101400,2.027101318359375,5.51338698913455,3.347968950167298,-1.9576457877553999
1783246095205112600,2.037112548828125,5.356903465002775,3.263208599987626,-2.3568875362843276
1783246095215124500,2.04712451171875,5.157952087497711,3.0528128684043883,-2.5005080717116592
1783246095225136600,2.05713671875,4.849808513867854,2.6364868602141738,-2.3850375259697434
1783246095235148500,2.0671484375,4.447334797680377,2.317920676769316,-1.9959611976243554
1783246095245160400,2.077160400390625,4.180244534450769,2.0190949665829536,-1.7325708118259906
1783246095255171600,2.087171630859375,4.041230031514168,1.8497408549621701,-1.7515815095052123
1783246095265183500,2.09718359375,3.9527018532335756,1.8325956588938832,-1.7893841475464403
1783246095275195400,2.1071953125,4.014820163494348,1.590402521033585,-1.7507504655085504
1783246095285207600,2.11720751953125,4.629036349698901,1.1407678252205251,-1.6828547408901153
1783246095295220000,2.127219970703125,5.510808078557252,0.8303399400457739,-1.592203286845237
1783246095305232100,2.137232177734375,5.802850412213802,0.9638049921616911,-1.0852752897750586
1783246095315243000,2.147242919921875,5.696950827893614,1.4204644720450044,-0.48125959506742655
1783246095325255000,2.1572548828125,5.398639496970176,1.7779346789017318,-0.5300481758948415
1783246095335266800,2.167266845703125,4.806408932602405,2.078713861243427,-1.0586504638303071
1783246095345279000,2.177279052734375,4.257345309787988,2.513464583918452,-1.1397794717703014
1783246095355291000,2.187290771484375,4.368413236656785,2.9710505309969184,-0.5547853614620865
1783246095365301800,2.1973017578125,4.705361464488506,3.2427760528117417,0.3103578886784613
1783246095375314000,2.20731396484375,4.656431137102842,3.0913024657964705,1.0035156557813285
1783246095385325800,2.217325927734375,4.184385872039199,3.283271729329228,1.3245163728967309
1783246095395337700,2.227337646484375,3.6731057441741224,3.7596331040263173,0.9752741884201764
1783246095405350000,2.237349853515625,3.1162878539711234,3.8539574013650415,0.6331099064406007
1783246095415361000,2.247361083984375,2.0228420441567896,3.9054561179339884,0.5889853719014674
1783246095425373000,2.257373046875,0.5049859961569308,3.7449919997334478,0.9328785235002637
1783246095435385000,2.267385009765625,-0.02120879224538803,3.219330879816413,2.0485241824239493
1783246095445397000,2.27739697265625,-0.9847481192082166,2.223881333851814,3.422561834336817
1783246095455409000,2.287408935546875,-2.806395975369215,0.745942870220542,3.943054903966188
1783246095465420000,2.297419921875,-4.327046622523665,-1.2099024439841508,4.044400478243827
1783246095475432000,2.307431884765625,-4.915065706676245,-2.858555786195397,3.855957050749659
1783246095485443800,2.31744384765625,-5.940103166174889,-4.179362490919232,2.9009616802483795
1783246095495456000,2.3274560546875,-7.495815189838409,-5.195242245972156,2.452645665818453
1783246095505468000,2.337468017578125,-9.153068018090725,-5.830876483258605,2.4318925083860754
1783246095515480000,2.34747998046875,-9.416521386122703,-7.693138089358806,0.6341370575312525
1783246095525491000,2.357490966796875,-8.628166192108392,-10.30816744326353,-2.0566296013377605
1783246095535502800,2.3675029296875,-8.021722977992892,-11.79924069827795,-2.78830473062247
1783246095545514800,2.3775146484375,-9.01424348476827,-12.74548811417818,-2.7333386302039027
1783246095555527000,2.38752685546875,-11.258942565721274,-13.89099202800989,-3.3617005383998153
1783246095565538800,2.397538818359375,-12.713519442987442,-13.743270487004517,-3.710155371890962
1783246095575550000,2.407550048828125,-11.989965514707565,-12.315142056202887,-3.4582962878018617
1783246095585562000,2.41756201171875,-9.885086992377042,-11.43535711724758,-3.565244796653092
1783246095595574000,2.427573974609375,-7.3021245093405245,-10.541616133654117,-3.5192414626300335
1783246095605586000,2.4375859375,-4.466421190944314,-9.279593626332282,-2.8831381465271115
1783246095615598000,2.44759814453125,-1.7742431309074163,-7.894678314313292,-2.2120256224937735
1783246095625609000,2.45760888671875,0.24249650472104547,-6.629262072899937,-1.8889438613206146
1783246095635620900,2.467620849609375,1.0149842675179241,-5.256752068945765,-1.6921448395438492
1783246095645633000,2.477633056640625,0.7100713463723659,-3.761237616613507,-0.587058276296407
1783246095655645000,2.48764501953125,0.549197478327155,-2.4747218885481357,1.1016969208091496
1783246095665657000,2.497656982421875,0.30097032099962234,-1.3204472237616776,2.801502065847814
1783246095675668000,2.50766796875,0.1649959164112806,-0.11217325776219367,3.9169390504568815
1783246095685679900,2.517679931640625,0.2828115639746189,0.9072066143661737,4.0696062311708925
1783246095695691800,2.52769189453125,0.7488859379351138,1.926086720278859,4.021620783419907
1783246095705704000,2.537703857421875,1.4731231723040341,3.421575453647971,3.806678056056797
1783246095715715800,2.5477158203125,2.310264901319146,4.461179783159494,2.774277958835661
1783246095725728000,2.55772802734375,2.4159558113247153,5.268520832672715,1.5884490488782523
1783246095735739000,2.56773876953125,2.2064988218963144,6.105303665247559,0.6081539635561406
1783246095745750800,2.577750732421875,2.194486897063255,6.791228996878862,-0.42944772089608013
1783246095755762700,2.5877626953125,2.8489281261503696,7.312212188112735,-1.6137657148338853
1783246095765774800,2.59777490234375,4.138012827920914,7.514452085769176,-2.4749919376611706
1783246095775786800,2.607786865234375,6.029593467485904,7.6112535868763915,-2.5191011285007
1783246095785798000,2.6177978515625,7.623254990315437,7.605881830710172,-1.9975056505873798
1783246095795810000,2.62781005859375,8.469279113966227,7.506022111076116,-1.2914664823405444
1783246095805822000,2.637822021484375,8.519334645989536,7.595010308083891,-0.3556071163985878
1783246095815834000,2.647834228515625,7.985650378614664,7.939633308327197,0.35381365711055696
1783246095825846000,2.657845947265625,7.2206240377396345,8.319221823489665,0.7280103962320834
1783246095835857000,2.66785693359375,6.334985112059116,8.431922319996357,0.35125396269038317
1783246095845868800,2.677868896484375,5.781366894680262,8.482580494087934,-0.24459727639257905
1783246095855881000,2.687880859375,6.0956140458822246,8.565735162636637,-0.8900189673956483
1783246095865892900,2.697892822265625,6.842320301690697,8.5714161308825,-1.756791791499406
1783246095875905000,2.707905029296875,7.204321722236275,8.547589849615097,-2.3636270736724136
1783246095885916000,2.717916015625,7.32654583389163,8.561070093435049,-2.5662477873399854
1783246095895927800,2.727927734375,7.272988431227207,8.684539821237324,-2.326078556522727
1783246095905939700,2.737939697265625,6.937723626437783,8.938739038711786,-1.6224012951016424
1783246095915951900,2.747951904296875,6.1840025234311815,9.087237409308552,-0.7678061808519064
1783246095925963800,2.7579638671875,5.48239096236825,8.840719978508353,-0.08443667118325829
1783246095935976000,2.767975830078125,5.620935509705543,8.74611218805313,-0.05124203839413821
1783246095945987000,2.777987060546875,6.148764036789536,8.755369845741987,-0.6015614334233105
1783246095955999000,2.7879990234375,6.434572444492578,8.686560513409972,-0.8815797864828259
1783246095966011100,2.79801123046875,6.2633215593397615,8.56265239419043,-0.4810876725666225
1783246095976023000,2.80802294921875,5.875826216575503,8.733318172931671,-0.2969242239465937
1783246095986035000,2.818034912109375,5.312982490211725,9.198873491454124,-0.7841900371588766
1783246095996045800,2.8280458984375,4.978860425716638,9.145433577689529,-0.8596790664505213
1783246096006058000,2.83805810546875,4.702350592234731,8.8563880877614,-0.7982933082479983
1783246096016070000,2.84806982421875,4.463367648592591,8.49640794391036,-0.9951164415527135
1783246096026082000,2.85808203125,4.2160640358507635,7.646153635343909,-1.2596135464839637
1783246096036094000,2.868093994140625,3.720845400470495,6.501935669669509,-1.1944327799126506
1783246096046104800,2.878104736328125,3.0850679553210734,5.11903169747293,-0.8144389718849211
1783246096056116700,2.88811669921875,2.1473498828351496,3.6089123812049624,-0.18373225412853061
1783246096066129000,2.89812890625,0.5506622901827096,2.1609552143394946,0.4320284215716645
1783246096076140800,2.908140869140625,-0.9835586171627044,0.7445669056922197,0.38947716423124074
1783246096086153000,2.918153076171875,-1.5871622239381074,-0.8360024958521127,0.5826342493090778
1783246096096164000,2.9281640625,-2.667960149103403,-2.2838819213062522,1.1632101047836243
1783246096106176000,2.938176025390625,-4.850253919547796,-4.1501644534856075,0.8932634292095899
1783246096116188000,2.94818798828125,-6.951514251381158,-6.632332566386461,-0.4974414625288918
1783246096126200000,2.958199951171875,-7.771618920877575,-8.826255984348059,-1.9696017446175216
1783246096136212000,2.9682119140625,-8.246264139306545,-10.440226135712862,-2.0862994940668345
1783246096146222800,2.978222900390625,-11.148990491139887,-12.40601767439246,-1.0961825413018464
1783246096156235000,2.988235107421875,-16.92017384545803,-14.348221416735647,0.5152003700487315
1783246096166247000,2.998246826171875,-22.73746662452221,-14.630052152979372,2.1897584072366354
1783246096176259000,3.008259033203125,-26.035701529705523,-13.885317489504814,2.73256969165802
1783246096186271000,3.01827099609375,-26.586117736172675,-13.095039218473433,2.2871996675521133
1783246096196283000,3.028282958984375,-24.31308980183601,-12.25810674829483,1.6822180504217743
1783246096206293800,3.038293701171875,-19.94346134417057,-11.538712277781963,1.5188932820931076
1783246096216306000,3.048305908203125,-13.769817133146523,-9.14440248107612,2.854837350194156
1783246096226317800,3.05831787109375,-10.38899629921317,-11.65716563872695,2.397877133798599
1783246096236330000,3.068330078125,-7.423221078270673,-12.400889079332352,1.7166778077758849
1783246096246342000,3.078341796875,-3.5830741755932567,-7.6304147989422075,1.594932857939601
1783246096256353000,3.08835302734375,-1.9591759199321268,-6.7564581277489655,1.7504596658684313
1783246096266365000,3.098364990234375,-3.4527976903855797,-6.146542269086837,1.5084018448255956
1783246096276377000,3.108377197265625,-4.7999447050243615,-4.2772579247429965,0.4593792602360248
1783246096286389000,3.118388916015625,-5.120127676016092,-3.5087241602689025,1.4492825702503322
1783246096296401000,3.12840087890625,-3.73760247400403,-3.2801468753069636,1.9695473840817808
1783246096306412000,3.138412109375,-0.8382558277368545,-0.9455527116343379,1.2762689132086933
1783246096316424200,3.148424072265625,2.1188409967094657,0.18119097214788196,2.235397730252892
1783246096326436000,3.15843603515625,4.358132081139088,-0.41843057925403115,1.5927574135966598
1783246096336448000,3.168447998046875,6.09077478915751,-0.016449030497670172,0.7777557663276791
1783246096346460200,3.178460205078125,7.354957104861736,0.4379173700124025,0.1640196187250316
1783246096356471000,3.188470947265625,8.204376131647825,1.1740092928260564,-0.7302227385193109
1783246096366483000,3.19848291015625,8.571540049523115,1.9650062335208056,-0.7191160919629037
1783246096376495000,3.2084951171875,8.230604213359952,2.2804428867682813,-0.5169381536267698
1783246096386507000,3.218507080078125,7.0155006936013695,2.43347860853374,-0.6655869655448943
1783246096396519000,3.228518798828125,6.086781335607171,2.7310648400530217,-0.8125225438043475
1783246096406531000,3.238531005859375,5.981859071886539,2.8689605680927635,-0.8970532499466091
1783246096416542000,3.2485419921875,6.070065178605914,2.8908441908597946,-0.9043789897248148
1783246096426553900,3.258553955078125,6.265676598033308,3.0864103098407387,-1.166833409847319
1783246096436566000,3.26856591796875,6.522808361828327,2.91068666318804,-1.52203128785789
1783246096446578000,3.278577880859375,6.894342749872803,2.672054140418768,-1.8109920221120117
1783246096456589800,3.28858984375,7.1097226996093985,2.669095582874119,-1.9186413727089762
1783246096466601000,3.29860107421875,6.776516580915451,2.904882653084397,-1.3653405507162213
1783246096476613000,3.308613037109375,6.517257157441973,3.148716251628101,-0.9625051616095006
1783246096486625000,3.318625,6.337600262993574,3.1914626296818254,-0.8929716797214001
1783246096496637200,3.32863720703125,6.179306474569439,3.5366713208585976,-0.6586232640121131
1783246096506649000,3.338649169921875,6.201091605398059,3.7183150052100418,-0.8277481699869036
1783246096516660000,3.348659912109375,6.561429476645588,3.47137262699604,-1.6133137332826852
1783246096526672100,3.358672119140625,6.664696958896517,3.513757478260994,-1.5697034318760037
1783246096536684000,3.36868408203125,6.819721516391635,2.956191400039196,-1.814379180332273
1783246096546696000,3.378696044921875,6.466431225568056,3.1502865696847437,-1.1688414617341012
1783246096556708000,3.3887080078125,6.568026390692591,3.519856964179873,-0.6208676799830048
1783246096566719000,3.398718994140625,6.79637921924889,3.7824294577240942,-0.7457953515086323
1783246096576731000,3.40873095703125,7.156821135392785,3.9523666299298403,-1.0244931234888732
1783246096586743000,3.418742919921875,7.7299430946648116,3.8177091531589626,-1.614333285588771
1783246096596755000,3.4287548828125,8.094960648161173,3.636919747549295,-1.8152055481538176
1783246096606766800,3.438766845703125,8.331349483656883,3.3819907544955607,-1.6835776483371854
1783246096616779000,3.448779052734375,8.139988122889399,3.0349402348443864,-1.4965274287670849
1783246096626790100,3.4587900390625,7.109803948152065,2.877626397368312,-0.9258381765346974
1783246096636802000,3.468802001953125,5.837573350548744,2.8763398646891116,0.1340618489652872
1783246096646814200,3.478814208984375,4.589202351960539,2.6581574247524142,0.7894055067848413
1783246096656826000,3.488826171875,2.9998505090236662,2.414826807294786,1.01266079300642
1783246096666838000,3.498838134765625,1.121377772834897,2.2030668016210195,1.3832941405579446
1783246096676849200,3.50884912109375,0.00731762953698635,1.5292460415422915,1.7092871130026877
1783246096686861000,3.518861083984375,-0.571242136874795,0.01595861663222313,1.8676041361719369
1783246096696873000,3.528873046875,-1.3525579337716103,-1.8677075965464114,1.4049924698859453
1783246096706885000,3.538885009765625,-2.8454268400311467,-3.66050286771059,0.5772384546801448
1783246096716897000,3.54889697265625,-5.567480398371815,-5.130882294264436,-0.5017266290348023
1783246096726908000,3.558907958984375,-10.118045853424071,-6.316071152752637,-1.4176535062775015
1783246096736920000,3.568920166015625,-14.582006791734695,-7.344021869349479,-1.0051240408260376
1783246096746932000,3.578931884765625,-18.148308111703393,-7.833335664600133,0.7369450325116514
1783246096756944000,3.58894384765625,-20.88957315099239,-8.079311828130484,3.1083138063520193
1783246096766956000,3.5989560546875,-22.240122667551038,-8.177772202360629,5.366569118970633
1783246096776967200,3.60896728515625,-22.014024924445152,-8.240605967414378,6.004041677600145
1783246096786979000,3.61897900390625,-20.456723001241684,-8.50189251280129,4.8288560344710945
1783246096796991200,3.6289912109375,-18.775581932401657,-8.295533489388227,3.218983673813939
1783246096807003100,3.639003173828125,-17.4115498339355,-7.472231485155224,2.275794914831966
1783246096817015000,3.64901513671875,-16.367861449980733,-6.867796688252687,1.7774258525967597
1783246096827027200,3.659027099609375,-14.734057301855087,-6.333405149391293,1.765603020595014
1783246096837038000,3.6690380859375,-12.610131549227237,-5.577422531193495,2.3932624796099957
1783246096847050000,3.679050048828125,-10.721083058488368,-4.574641911688447,2.829025740328431
1783246096857062100,3.689062255859375,-9.172473560306429,-3.216331698000431,2.622756733286381
1783246096867074000,3.699073974609375,-7.306000473991036,-1.6748770400092006,2.3213889374017715
1783246096877086000,3.7090859375,-4.73290004427731,-0.38318887774199245,1.7222519546464086
1783246096887097000,3.71909716796875,-1.8371417778909205,0.38104134431928394,1.0963177850540726
1783246096897109000,3.72910888671875,0.917088541433215,0.6952502093374728,0.46989524742290373
1783246096907121000,3.739120849609375,2.464433718767762,0.6192904207289218,0.24036723760738968
1783246096917133000,3.749133056640625,2.0655209099322556,0.06230535726547241,0.5739005424290895
1783246096927145000,3.75914501953125,0.5631161135643721,-0.19050006776303052,0.8466171211078762
1783246096937155800,3.76915576171875,-0.5699024127036333,0.2655231600433588,0.805103645849973
1783246096947168000,3.77916796875,-0.5329027616083621,0.8137111690670251,0.3352563292220235
1783246096957180000,3.789179931640625,0.8551198687762022,1.425080733668804,-0.4390071380104869
1783246096967191800,3.79919189453125,3.21002938298583,1.8885139454707502,-1.3006427453562617
1783246096977204000,3.809203857421875,5.8499780740916725,2.120375658930838,-1.788067073598504
1783246096987215000,3.819215087890625,8.336179972553253,2.048882202081382,-1.6907693134069441
1783246096997227000,3.82922705078125,10.60561894248724,1.8103955175235866,-1.1133278835006057
1783246097007239200,3.8392392578125,12.513283286368846,1.6675246314197778,-0.517622701824829
1783246097017251000,3.8492509765625,13.568971904718875,1.6245359690427779,-0.16914576609972864
1783246097027263000,3.859262939453125,13.334273506528138,1.6007386216089128,-0.08684128463957458
1783246097037274000,3.869274169921875,12.073019060969353,1.7456103261411189,-0.25931743727102874
1783246097047286000,3.8792861328125,10.609361051625013,2.2821289401590823,-0.16420279327221213
1783246097057298000,3.8892978515625,9.193365541687607,2.7753981950372455,-0.36912279685810206
1783246097067310000,3.89931005859375,7.7134981558203695,2.9246976528838275,-0.7093320723123848
1783246097077322000,3.909322021484375,6.553377103093266,3.1179581252709028,-0.792572007991746
1783246097087334000,3.919333984375,6.019764147388935,3.2658842489376663,-0.8755175638344138
1783246097097345000,3.929344970703125,6.105362117436528,3.284448371893167,-0.8875834108117967
1783246097107357000,3.93935693359375,6.686199181130528,3.1682126869976517,-0.8499939040645956
1783246097117368800,3.949368896484375,7.39931764011383,2.9090000252753496,-0.8970863484986126
1783246097127381000,3.959381103515625,7.937979111379384,2.635456640383601,-0.9169889535162598
1783246097137393000,3.969392822265625,8.44390852586627,2.515624684561789,-1.0334895729582756
1783246097147404000,3.979404052734375,8.667675780197978,2.4528943798825145,-1.1849803303040563
1783246097157416200,3.989416259765625,8.587954593229293,2.4932231754004954,-1.303521515662968
1783246097167428000,3.999427978515625,8.193519806590675,2.5255399293765426,-1.3835771952830254
1783246097177440000,4.00943994140625,7.972555334720015,2.578463710312545,-1.4749632472127676
1783246097187452200,4.0194521484375,7.770192102944851,2.5664219748631116,-1.410763454502821
1783246097197463000,4.029463134765625,7.482358911415934,2.5102301320418716,-1.2280267142176626
1783246097207475000,4.039474853515625,7.208292963954806,2.485769936785102,-1.1106110988225788
1783246097217487000,4.049487060546875,6.967015771895647,2.4375880896791813,-1.0109374032799154
1783246097227499000,4.0594990234375,6.920321825259924,2.3109917542889713,-0.8727314402472227
1783246097237511000,4.069510986328125,6.744768274477124,2.119045579370856,-0.5708829481735825
1783246097247522000,4.07952197265625,5.996624094820022,1.925141548383236,-0.40492330129668114
1783246097257534000,4.089533935546875,4.690813299176097,1.7832137883484362,-0.2625954360283911
1783246097267545900,4.0995458984375,3.2904309534341096,1.554200742317736,-0.29213315374515947
1783246097277558000,4.10955810546875,2.095274827682972,1.0890388070270418,-0.3473656500149518
1783246097287570000,4.11956982421875,0.9076689711809158,0.25086188974529505,-0.17864421027451752
1783246097297581600,4.12958154296875,-0.4350017748266458,-0.5972954465419054,-0.07454071559086442
1783246097307592700,4.1395927734375,-2.3896552488982676,-1.572088281185925,-0.5336128095738589
1783246097317604600,4.1496044921875,-4.955575411719083,-2.78017344661504,-1.064850560579449
1783246097327616800,4.15961669921875,-8.455550448343157,-3.873809226043522,-0.9145526662800461
1783246097337628700,4.169628662109375,-12.392773577415943,-4.9439972021281715,-0.14352094751037656
1783246097347640800,4.179640869140625,-15.50015507135391,-6.114494102919101,0.6919562823586165
1783246097357651700,4.189651611328125,-16.8364480990231,-7.3039645842492575,0.3152833623819053
1783246097367663600,4.19966357421875,-17.72969691518545,-7.779322334861755,-0.01826338644325733
1783246097377675500,4.209675537109375,-19.758200638365743,-7.708376575022935,0.6268707928553223
1783246097387687700,4.219687744140625,-21.645198626315594,-7.708765282079577,1.3083406063824892
1783246097397699600,4.229699462890625,-22.044312510681152,-7.057372334647178,2.1343805111467837
1783246097407710500,4.23971044921875,-20.554263338017464,-5.99519201619029,3.0967668686822054
1783246097417722600,4.24972265625,-17.299152119767665,-5.677025061196089,3.264530203980207
1783246097427734500,4.259734619140625,-12.918644540691375,-5.487207422739267,2.7847031989991664
1783246097437746400,4.269746337890625,-8.748214128768444,-4.9333577346920965,2.729842897042632
1783246097447758600,4.279758544921875,-5.9914364630490535,-4.271905457799137,2.728552857232094
1783246097457769700,4.289769775390625,-4.738436635616422,-3.1275390235647555,2.4622131201088426
1783246097467781600,4.29978173828125,-3.8062767817795273,-1.5414567038178444,2.0420167002260685
1783246097477793800,4.309793701171875,-2.415458967718482,-0.043212534260749814,1.4753136680856347
1783246097487805700,4.3198056640625,-0.7824135290056466,1.0657657757282257,0.9534026944823563
1783246097497817900,4.32981787109375,1.0330424867779016,1.780897620360553,0.30086320736333727
1783246097507828700,4.339828857421875,2.602705294382572,2.1977900302618743,-0.5026138601981103
1783246097517840600,4.349840576171875,3.6490848171174526,2.2718355096817016,-1.001395448756963
1783246097527852500,4.3598525390625,4.23354533200562,1.9909677732512354,-1.219874095161259
1783246097537864700,4.36986474609375,4.333941058212519,1.666768844616413,-1.1254821394138037
1783246097547876600,4.379876708984375,3.9113790782421827,1.2852378170840442,-0.44169630402922627
1783246097557888800,4.389888671875,3.5946097150862215,0.8916634466670453,0.29813188270330426
1783246097567899600,4.399899658203125,4.159550121468305,0.5499076724231243,0.6396066480487584
1783246097577911600,4.40991162109375,5.151327700921893,0.1793272241026163,0.6375888784855603
1783246097587923500,4.41992333984375,6.196197403615713,-0.18634265582263468,0.25713512479588385
1783246097597935600,4.429935546875,7.0970075949430464,-0.42387627743929623,-0.047183191457390784
1783246097607947500,4.439947509765625,7.76070122102201,-0.49850218709558247,-0.33196561711356043
1783246097617958700,4.449958740234375,7.99802236893177,-0.4482847425088286,-0.8058728766568004
1783246097627970800,4.459970703125,7.826486237096786,0.11597221165373921,-0.9328579191036522
1783246097637982700,4.469982666015625,7.6422449374675745,0.1616048126682639,-1.5634842651002108
1783246097647995000,4.479994873046875,7.270276249659061,-0.1957777159050107,-2.6150337378188966
1783246097658006800,4.4900068359375,7.05638040100038,0.38088425406143067,-2.8797102179050444
1783246097668017700,4.500017578125,7.2309770894497625,0.5901029046893119,-3.0495874766170976
1783246097678029600,4.510029541015625,7.529172100517154,0.575231206510961,-2.878064496524632
1783246097688041700,4.520041748046875,7.8649822642296545,0.651125820928812,-2.211676370664686
1783246097698053600,4.5300537109375,8.038779911255835,0.6758525581672787,-1.65777086077705
1783246097708065800,4.540065673828125,8.354643265482784,0.5012916716836393,-1.6805054012849927
1783246097718076700,4.55007666015625,8.718884573909639,0.34418037104234095,-1.861092416190356
1783246097728088600,4.560088623046875,8.942506866812705,0.3105205318942666,-1.9633952911928294
1783246097738100500,4.5701005859375,8.789086237382888,0.3754823950178921,-2.0013971050679684
1783246097748112600,4.580112548828125,8.379484861272573,0.6052545888528228,-1.9656834021300076
1783246097758124500,4.59012451171875,7.793919015491008,0.8709525209411978,-2.1131312407605347
1783246097768135400,4.600135498046875,7.195447510907053,0.8247542488679289,-2.4156008604072032
1783246097778147600,4.610147705078125,6.73492784846425,0.5768829192407429,-2.750307008400559
1783246097788159500,4.620159423828125,6.959276702076196,0.4889506610266864,-2.8218375823900104
1783246097798171600,4.630171630859375,7.568357863479852,0.24827903364524243,-2.710304960618913
1783246097808183600,4.64018359375,8.231115085491538,-0.1348733114786446,-2.141792394838482
1783246097818195500,4.650195556640625,8.927201161131261,0.5959723812445998,-1.673322504043579
1783246097828206600,4.66020654296875,9.283652546334267,1.3727423514053225,-2.1213681770995256
1783246097838218800,4.67021875,8.798181982508302,0.9719571728266775,-2.755981254644692
1783246097848230700,4.680230712890625,7.586478042060136,0.15419599771648645,-2.488046357284486
1783246097858242800,4.690242919921875,6.392793742427229,0.2815722314380109,-2.2625144313678143
1783246097868254700,4.700254638671875,4.749901447960734,0.32667598627284167,-2.101238704523444
1783246097878265600,4.710265625,3.535014201301336,0.1795513882473111,-1.659917079025507
1783246097888277500,4.720277587890625,2.712380890110135,0.5235829984687268,-1.1775769221797585
1783246097898289700,4.73028955078125,1.0741145018786191,0.6616378625929356,-0.6029933659225702
1783246097908301600,4.740301513671875,-1.3125403961598872,0.30473800297006964,0.19276772043406962
1783246097918313700,4.750313720703125,-4.040632065621018,-0.09647051558718085,1.4928072392001748
1783246097928324600,4.76032470703125,-6.351634049043059,-0.6223400175578891,3.3354970066070555
1783246097938336500,4.77033642578125,-7.968469526711106,-1.267323828600347,4.735653142377734
1783246097948348400,4.780348388671875,-10.395081172084808,-1.8612959759384393,5.713756416743993
1783246097958360600,4.790360595703125,-14.817249964326619,-2.3059143048942086,6.960204922837018
1783246097968372500,4.80037255859375,-20.2175950961709,-2.3504434747114775,8.058769390839338
1783246097978383600,4.810383544921875,-25.65397834060192,-2.2463003786697984,9.309766646277904
1783246097988395800,4.820395751953125,-29.057628261458873,-2.5520173096746204,10.522364320695399
1783246097998407700,4.83040771484375,-29.286842675280568,-2.7895556074663994,10.880620124971866
1783246098008419800,4.840419921875,-27.07512874908447,-2.6498960846245287,10.899922206813097
1783246098018431700,4.850431640625,-23.651941768586635,-2.4329801574923096,10.42986139356494
1783246098028443600,4.860443603515625,-20.05977652404308,-2.256471059550345,9.2277342597574
1783246098038454500,4.87045458984375,-17.07532232159376,-2.1297847077891228,7.595456298285722
1783246098048466700,4.880466796875,-14.694708457285165,-1.8858381503902375,5.893383500576019
1783246098058478600,4.890478515625,-12.937833225286006,-1.5085986825719475,4.246215720747411
1783246098068490800,4.90049072265625,-11.286107636022567,-0.8188631450027227,2.9436291478469965
1783246098078502700,4.910502685546875,-9.306022199052572,-0.3000609510697424,1.4890572390168904
1783246098088513500,4.920513427734375,-7.213707974740863,-0.566795971120894,0.18610738576203584
1783246098098525400,4.930525390625,-5.6327814303219315,-1.329142133001238,-0.0467316482976079
1783246098108537600,4.94053759765625,-5.290635049325227,-2.2862392980873585,0.7160387303441762
1783246098118549500,4.950549560546875,-4.9157998661696904,-2.8732033202290532,0.9696361825332045
1783246098128561700,4.960561767578125,-3.3802719678789375,-2.9967835226684807,0.3247676684334874
1783246098138572800,4.97057275390625,-1.5261013137757777,-2.939869795313477,-1.021303533667326
1783246098148584700,4.980584716796875,-0.056169046467542644,-2.688366977316141,-2.8027485587775707
1783246098158596900,4.990596923828125,1.1863491344392298,-2.3294863191396,-4.374979463304579
1783246098168608800,5.00060888671875,2.6247522910177707,-1.9232991353869437,-5.389267857512832
1783246098178620700,5.01062060546875,4.431913356664777,-1.4285688680455089,-6.183357795786857
1783246098188631600,5.020631591796875,6.291066475355625,-1.02063396384269,-6.579863543480634
1783246098198643700,5.030643798828125,8.134677156999707,-0.6730404233559966,-6.480699404895305
1783246098208655600,5.040655517578125,9.719227737134695,-0.17625859377961606,-5.717430721342564
1783246098218667800,5.050667724609375,10.364924518752098,0.29295305529329924,-4.473006706814467
1783246098228679700,5.0606796875,10.453234085845947,0.6164390498857945,-2.911438942860067
1783246098238690600,5.070690673828125,10.479668503785133,0.7530056482136249,-1.5844199394926428
1783246098248702500,5.080702392578125,10.265838706099986,0.9924006797879934,-0.514791935378313
1783246098258714600,5.090714599609375,9.761559981429576,0.8425242257710546,-0.31568536731153723
1783246098268726500,5.1007265625,9.002557723149657,0.5339508824218064,-0.6981961996614933
1783246098278738700,5.11073876953125,8.001504950350522,0.4287234982747584,-1.0327154467806219
1783246098288750600,5.12075048828125,7.088337381753325,0.43654498568065464,-1.4322338202938436
1783246098298763500,5.130763427734375,6.41118221655488,0.5859884551078081,-1.679843576375395
1783246098308775400,5.140775390625,5.799582350328564,0.6442981668658554,-2.0320764671005307
1783246098318787300,5.150787353515625,5.332810057231783,0.7187316226899624,-2.3566062351249157
1783246098328799500,5.160799560546875,5.22406852748394,0.8736933440819382,-2.3895721006594597
1783246098338811400,5.170811279296875,5.398461802315712,0.8549376440770924,-2.5440146204829213
1783246098348822300,5.180822265625,5.827888407358527,0.7689142882242799,-2.4070436060726643
1783246098358834400,5.19083447265625,6.579314677426218,0.7086597260087728,-2.3013946355126795
1783246098368846300,5.200846435546875,7.487919468152523,0.4384979463793337,-2.5426883403152227
1783246098378858200,5.210858154296875,7.413297650149464,0.09805413151681423,-2.3690252794541418
1783246098388870400,5.220870361328125,6.5365247524917125,0.056309039460122584,-1.2769383369028569
1783246098398881500,5.230881591796875,5.2694502224773165,-0.837011819025129,0.9972570337779819
1783246098408893400,5.2408935546875,3.8790474189579482,-1.8576069121621548,1.5056225893706083
1783246098418905600,5.250905517578125,2.471201897728443,-0.32851810700818895,0.8116509486015886
1783246098428917500,5.26091748046875,2.2216052056133746,0.3263371097072959,0.6062265756901353
1783246098438929400,5.270929443359375,2.0147054994523526,-0.4618244614310562,0.7831408934321255
1783246098448940500,5.2809404296875,2.6135809086620805,-0.2291359417580068,0.5041494722675531
1783246098458952400,5.290952392578125,3.4750814183861016,0.5318000610634684,0.3931582638967782
1783246098468964400,5.30096435546875,3.710824941715598,0.022335312057286498,0.13338051563762127
1783246098478976500,5.3109765625,3.447787753269076,-0.3648606093689799,0.02596614284031093
1783246098488988400,5.320988525390625,2.5921803932368754,-0.6368300229422748,0.1886129388421774
1783246098498999300,5.330999267578125,1.1598241156071423,-0.7375188868768513,0.44066338078491385
1783246098509011500,5.341011474609375,-1.5343483331173657,0.14491817402243615,1.4059884951859711
1783246098519023400,5.3510234375,-4.6374774303078645,0.6894163886174559,2.7096383134037256
1783246098529035300,5.36103515625,-5.13251603294611,-0.1895439360819757,3.48832609988451
1783246098539047400,5.37104736328125,-5.843892032176256,-0.71106605649814,3.6795933526277538
1783246098549059300,5.381059326171875,-6.145020174086094,-1.7342647562623024,1.304034433621168
1783246098559070500,5.391070556640625,-6.037645841038227,-2.114201061949134,-0.8077822174094617
1783246098569082600,5.40108251953125,-7.611333666375279,-0.8731035614952445,0.2602041569776833
1783246098579094500,5.411094482421875,-9.982758262056112,0.24088614691495894,1.8045695878490804
1783246098589106400,5.4211064453125,-10.809863750225304,-0.6872647635415196,1.0473330971326678
1783246098599118600,5.43111865234375,-11.207405270707607,-1.4428162968456744,1.2871744842350483
1783246098609129500,5.44112939453125,-12.188576700472831,-0.8281152497336268,3.0248490489408373
1783246098619141400,5.451141357421875,-12.977372623991965,-0.3172445794522762,3.69622738430351
1783246098629153500,5.461153564453125,-13.052912725883722,-0.28584172545075415,3.185473618400097
1783246098639165400,5.47116552734375,-11.732877590054272,-0.6560200227111578,2.3670002033673225
1783246098649177300,5.48117724609375,-10.235569824564456,-1.244440381141007,1.1363625759989022
1783246098659188500,5.4911884765625,-8.28055219335556,-1.7481284464418887,-0.25869908617697657
1783246098669200400,5.501200439453125,-5.759996774393319,-2.8837407885953783,-1.9048348195441067
1783246098679212300,5.51121240234375,-4.64468516972959,-3.4537083754897115,-1.620805550342798
1783246098689224400,5.521224365234375,-4.742614213562011,-3.258128227983415,0.192366866281908
1783246098699236400,5.531236328125,-5.08514287187457,-3.2223636716410518,1.3413457810141145
1783246098709247200,5.541247314453125,-4.878593878847361,-2.9859982170209287,1.9385186240896581
1783246098719259400,5.55125927734375,-4.438867413586378,-2.4441470098033546,2.0919035976842046
1783246098729271300,5.561271240234375,-3.22754165880084,-1.1012471312150358,1.3517225058607756
1783246098739283200,5.571283203125,-1.7958955752670764,0.3440063296496868,0.22163594139143825
1783246098749295400,5.58129541015625,-0.41201135986149307,1.256186056253314,-0.7611028107557445
1783246098759307300,5.591307373046875,1.0577052188694476,1.72251031332165,-1.1987125761236994
1783246098769318400,5.601318359375,2.547092712754011,1.785226881736517,-1.108149092623219
1783246098779330600,5.61133056640625,3.9188147812008856,1.652695311078429,-0.7052057130973786
1783246098789342500,5.621342529296875,4.162947947213054,1.4096078547269104,-0.032185017355158926
1783246098799354400,5.631354248046875,2.793023868098855,1.2417860672399401,0.8945493043016641
1783246098809366500,5.641366455078125,0.13957915108203886,1.9934096134454011,1.6053753414988516
1783246098819377400,5.65137744140625,-1.213309622079134,3.252747411727905,1.444419055867195
1783246098829389300,5.661389404296875,0.7595967170417308,3.0839222924172875,0.14374423487223684
1783246098839401500,5.6714013671875,2.198435342428088,2.6887951396003364,-1.0871374303851276
1783246098849413400,5.681413330078125,2.4924662195533513,2.5805861092939972,-1.798960223534703
1783246098859425500,5.691425537109375,2.7966853132158516,2.682544554772973,-1.8867834684163332
1783246098869436400,5.7014365234375,3.379610289099812,2.9055107218548653,-1.6098703148305415
1783246098879448300,5.7114482421875,4.21504521419704,3.2025057094827294,-1.1191977253820746
1783246098889460200,5.721460205078125,5.109104177698493,3.4826088912814854,-0.6745122494742274
1783246098899472400,5.731472412109375,5.97025748142004,3.793761875860393,-0.4592608580207452
1783246098909484300,5.741484375,6.650700582247972,4.234859044952691,-0.4142107330692932
1783246098919495400,5.751495361328125,7.030044767260551,4.72310930262506,-0.3115952484536916
1783246098929507600,5.761507568359375,7.205224808555841,5.195901002141833,-0.019562084484286604
1783246098939519500,5.77151953125,7.17898678997159,5.4562832921653985,0.2253938326202333
1783246098949531400,5.781531494140625,7.030159918072819,4.788037409609556,0.017808336152136325
1783246098959543600,5.79154345703125,7.117613160598277,3.7897692990928884,-0.5754660381801426
1783246098969554400,5.801554443359375,7.509415845167636,3.3884704719036813,-1.243083267443627
1783246098979566300,5.81156640625,7.78356537925899,3.5497692873626945,-1.679730909781158
1783246098989578500,5.82157861328125,7.310033090507984,3.751207220986485,-1.8056620592609047
1783246098999590400,5.83159033203125,6.5406316032886505,4.044316891613603,-1.6189005935043095
1783246099009602600,5.8416025390625,5.775229999360442,4.349099464377761,-1.2721632314555347
1783246099019613400,5.851613525390625,5.543026925116777,4.3483729036688805,-0.6804843096211552
1783246099029625300,5.861625244140625,5.778606782317161,4.405938372930884,0.06386709015686065
1783246099039637200,5.87163720703125,6.398141533195972,4.704059149718284,0.5677789177436381
1783246099049649400,5.8816494140625,6.616847997006774,4.82885515768826,0.644438744380325
1783246099059661300,5.891661376953125,6.659904463922977,5.0247284429222345,0.6259755975812673
1783246099069673500,5.901673583984375,6.8868912648230785,5.440440410867333,0.6525671788435429
1783246099079684600,5.9116845703125,6.964074457746744,5.821289739745855,0.7287974549565464
1783246099089696500,5.921696533203125,6.405724535670876,5.615155757260323,1.0076159307070076
1783246099099708400,5.93170849609375,5.449689300727844,4.93825602812767,1.3115953703947365
1783246099109720600,5.941720458984375,4.615241633102298,4.260300067940354,1.2581006577029823
1783246099119732500,5.951732421875,4.140866463786363,3.562092177841067,1.06408637127392
1783246099129743400,5.961743408203125,3.7978187500357627,2.6731758379250765,1.023052423161268
1783246099139755500,5.971755615234375,3.0323218690395355,1.3398580266743898,1.3943870508499443
1783246099149767400,5.981767333984375,1.3208353462964295,-0.5056295547574758,2.2179100043572486
1783246099159779600,5.991779541015625,-0.7728226938396692,-1.8931646938860416,2.715520941701531
1783246099169791500,6.00179150390625,-2.43937175822556,-2.194327322587371,2.637055307751894
1783246099179802400,6.01180224609375,-3.9026445676445958,-2.915978047594428,2.258020627079904
1783246099189814300,6.021814208984375,-5.713262495747208,-4.654966325247288,1.5993243708968161
1783246099199826400,6.031826416015625,-7.745375057074427,-6.740789433974027,1.3252774203971027
1783246099209838300,6.04183837890625,-9.441792020979523,-8.119508813962339,1.5879840617150067
1783246099219850500,6.0518505859375,-10.61738653717041,-8.450524144613743,1.5555388590537012
1783246099229861400,6.061861328125,-11.548967129814624,-8.643665374535322,0.6802204710531979
1783246099239873500,6.07187353515625,-12.257269712948798,-9.92358594211936,-0.7415737882908433
1783246099249885400,6.081885498046875,-12.890048560804129,-11.53194585238695,-2.399895195622742
1783246099259897300,6.0918974609375,-12.77232702126503,-11.95015840497613,-3.2625416605114936
1783246099269909500,6.101909423828125,-12.138992877614497,-11.321917785072326,-2.6853078820064664
1783246099279920400,6.11192041015625,-10.944559805440901,-10.3938630284667,-1.9449730609260498
1783246099289932500,6.1219326171875,-10.116005872029065,-9.522807339411973,-2.0878854480840263
1783246099299942400,6.1319423828125,-10.170776742136479,-9.152287681367993,-2.5573420118287205
1783246099309954300,6.141954345703125,-10.675451772648096,-8.807906673187016,-2.5450059696078298
1783246099319966500,6.151966552734375,-11.080631825184822,-7.617596233901381,-2.039712953328341
1783246099329978400,6.161978271484375,-10.851757603102921,-6.300560279887915,-1.6837180797211826
1783246099339989500,6.171989501953125,-9.667345574206113,-5.256607692039013,-1.4633819688819347
1783246099350001700,6.182001708984375,-6.715899907389283,-3.5584663885593413,-0.7108098897799849
1783246099360013600,6.192013671875,-3.1224615741699933,-1.7369968115746974,-0.31093693067543204
1783246099370025500,6.202025390625,-0.3494780390590429,-0.6714087305009365,-0.857490031973645
1783246099380037600,6.21203759765625,1.1478098526865244,-0.2206242801308632,-1.6192098055839537
1783246099390048500,6.222048583984375,1.2029413727998732,0.23195406791865825,-1.6937711255714296
1783246099400060400,6.232060302734375,0.22753274434506893,1.0033400069534777,-0.7755483194112778
1783246099410072600,6.242072509765625,-0.6437444785058498,1.7809698088139294,0.4174783930957317
1783246099420084500,6.25208447265625,-0.5037970786333084,2.2733476678103206,1.4593848620697856
1783246099430096600,6.2620966796875,0.524797781085968,2.7241005539983507,2.196864293719083
1783246099440107500,6.272107421875,1.7319798601955174,3.153728234571218,2.350931258228421
1783246099450119400,6.282119384765625,2.405120529055595,3.5293069295704362,1.713698061312735
1783246099460131300,6.29213134765625,2.491327570912242,3.781047647976875,0.4077043833825737
1783246099470143500,6.3021435546875,2.442201428693533,3.8271348608911033,-1.0290859311718492
1783246099480155400,6.3121552734375,2.7258699017584322,3.9793759251475334,-2.0374201662160454
1783246099490166500,6.32216650390625,3.5395950993508096,4.273130323418974,-2.2016493360385296
1783246099500178700,6.3321787109375,4.849876318407058,4.558290496346355,-1.795481295377761
1783246099510190600,6.342190673828125,5.895493040075898,4.76695428957045,-0.9706354227036237
1783246099520202500,6.352202392578125,6.043983227366208,5.046967747259139,-0.4617401441484689
1783246099530214700,6.362214599609375,6.191991184097528,4.629793890067934,-0.21834764043577015
1783246099540226600,6.3722265625,7.257438395395875,4.513875600558519,0.08298983337581158
1783246099550237400,6.382237548828125,8.06965728007853,5.042393863472342,0.219449683393538
1783246099560249600,6.39224951171875,7.9473127569139,5.528375299429893,-0.07209324937351047
1783246099570261500,6.402261474609375,7.522015214499831,5.6234547990500925,-0.30346166289132087
1783246099580273700,6.412273681640625,6.438865173250436,5.682960880985855,-0.2855876045592129
