time,seconds_elapsed,z,y,x
1783246269448855000,0.05185498046875,0.5080008506774902,0.3160213828086853,0.12380705028772354
1783246269458867200,0.0618671875,0.5384383797645569,0.353292852640152,0.032369017601013184
1783246269468878000,0.071878173828125,0.5453246831893921,0.38010597229003906,-0.04788079112768173
1783246269478890200,0.08189013671875,0.5529922246932983,0.4835982918739319,-0.10974069684743881
1783246269488902100,0.091902099609375,0.5362247228622437,0.45267584919929504,-0.11929286271333694
1783246269498913000,0.1019130859375,0.4809204936027527,0.2936563491821289,-0.07939418405294418
1783246269508925000,0.111925048828125,0.48779237270355225,0.08549532294273376,-0.034087132662534714
1783246269518937000,0.12193701171875,0.5210259556770325,0.008611462078988552,-0.019066905602812767
1783246269528949000,0.131948974609375,0.5334829092025757,0.13068221509456635,-0.025657299906015396
1783246269538960000,0.1419599609375,0.43157681822776794,0.6437114477157593,-0.06892168521881104
1783246269548972000,0.151971923828125,0.40091344714164734,1.1205376386642456,-0.14049440622329712
1783246269558984000,0.16198388671875,0.2929370701313019,1.7317363023757935,-0.17065834999084473
1783246269568995800,0.171995849609375,0.3137754201889038,2.163638114929199,-0.20105284452438354
1783246269579007200,0.18200732421875,0.414328932762146,2.3539650440216064,-0.18752211332321167
1783246269589019100,0.19201904296875,0.5297397375106812,2.444957971572876,-0.13965466618537903
1783246269599031000,0.202031005859375,0.6613481044769287,2.402682065963745,-0.11891157925128937
1783246269609042200,0.212042236328125,0.7847184538841248,2.144200563430786,-0.13169707357883453
1783246269619054000,0.22205419921875,0.8227761387825012,1.8073794841766357,-0.08008181303739548
1783246269629066000,0.23206591796875,0.8138765692710876,1.4521749019622803,-0.024516671895980835
1783246269639078100,0.242078125,0.8051400184631348,1.028082251548767,-0.056780338287353516
1783246269649089000,0.252089111328125,0.7979369759559631,0.5900557041168213,-0.12713144719600677
1783246269659101000,0.262100830078125,0.7915970683097839,0.22975851595401764,-0.1990935206413269
1783246269669113000,0.272113037109375,0.8086119294166565,-0.09541990607976913,-0.300944983959198
1783246269679125000,0.282125,0.8240872621536255,-0.36151444911956787,-0.40084308385849
1783246269689136000,0.29213623046875,0.8446927070617676,-0.570209264755249,-0.4851042330265045
1783246269699148300,0.302148193359375,0.8772138953208923,-0.7584814429283142,-0.5434884428977966
1783246269709160200,0.31216015625,0.9127702713012695,-0.9474000334739685,-0.5827226042747498
1783246269719171000,0.322171142578125,0.8897008895874023,-1.0017695426940918,-0.5801241397857666
1783246269729183000,0.332182861328125,0.7608754634857178,-0.7575833797454834,-0.553788423538208
1783246269739195100,0.342195068359375,0.5509621500968933,-0.2717610001564026,-0.49903354048728943
1783246269749207000,0.35220703125,0.3254068195819855,0.16833515465259552,-0.3916146755218506
1783246269759218000,0.362218017578125,0.17921602725982666,0.1701410561800003,-0.2880376875400543
1783246269769230000,0.37222998046875,0.16673703491687775,-0.07412267476320267,-0.2414870262145996
1783246269779242000,0.382241943359375,0.22577984631061554,-0.2542780637741089,-0.2701610326766968
1783246269789254000,0.39225390625,0.24124039709568024,-0.5705011487007141,-0.36276954412460327
1783246269799265000,0.40226513671875,0.1457120031118393,-0.7250441312789917,-0.5224958062171936
1783246269809277200,0.412277099609375,0.038571275770664215,-0.6811942458152771,-0.7262120842933655
1783246269819289000,0.4222890625,0.022799771279096603,-0.562468409538269,-0.9368316531181335
1783246269829301000,0.432301025390625,0.03384583070874214,-0.5038902759552002,-1.1026190519332886
1783246269839312100,0.44231201171875,-0.04240020364522934,-0.49896693229675293,-1.211305856704712
1783246269849324000,0.452323974609375,-0.26161304116249084,-0.580846905708313,-1.238828420639038
1783246269859336200,0.462336181640625,-0.5709860920906067,-0.7418968081474304,-1.1870330572128296
1783246269869347000,0.47234716796875,-0.8805767297744751,-0.952018141746521,-1.0909042358398438
1783246269879359000,0.48235888671875,-1.1016994714736938,-1.1458741426467896,-0.9574172496795654
1783246269889371100,0.49237109375,-1.2423956394195557,-1.2154927253723145,-0.7994109392166138
1783246269899383000,0.502383056640625,-1.347110629081726,-1.0434602499008179,-0.6154189705848694
1783246269909394000,0.512393798828125,-1.4374029636383057,-0.7086954116821289,-0.3988801836967468
1783246269919406000,0.522406005859375,-1.5073686838150024,-0.2984040379524231,-0.14262628555297852
1783246269929418000,0.53241796875,-1.5652109384536743,0.15667647123336792,0.135508731007576
1783246269939430000,0.542429931640625,-1.6006962060928345,0.5867817997932434,0.416578471660614
1783246269949441000,0.55244091796875,-1.588323712348938,0.8994677662849426,0.6969689726829529
1783246269959453200,0.562453125,-1.51637601852417,1.1016610860824585,0.9765928983688354
1783246269969465000,0.572465087890625,-1.3764163255691528,1.1372209787368774,1.2677505016326904
1783246269979477200,0.582477294921875,-1.1456483602523804,1.2024497985839844,1.5497167110443115
1783246269989488000,0.592488037109375,-0.8022243976593018,1.494726538658142,1.7556238174438477
1783246269999500000,0.6025,-0.33656829595565796,2.1154797077178955,1.710675835609436
1783246270009512200,0.61251220703125,0.11897396296262741,2.744109630584717,1.4534366130828857
1783246270019523000,0.622523193359375,0.4141520857810974,3.033583879470825,1.2361583709716797
1783246270029535000,0.632534912109375,0.518937885761261,3.1051528453826904,1.1550886631011963
1783246270039547000,0.642546875,0.5074306726455688,3.1335980892181396,1.1649751663208008
1783246270049559000,0.65255908203125,0.38734906911849976,2.44553804397583,1.049498200416565
1783246270059570200,0.662570068359375,0.11533433198928833,1.3156349658966064,0.5921562314033508
1783246270069582000,0.67258203125,-0.15788578987121582,0.030342500656843185,-0.21538591384887695
1783246270079594200,0.68259423828125,-0.23083457350730896,-0.5564121007919312,-0.4629235565662384
1783246270089606100,0.692606201171875,-0.263062983751297,-0.639555811882019,-0.7298417091369629
1783246270099617000,0.702616943359375,-0.33944642543792725,-0.15168577432632446,-0.9648137092590332
1783246270109629200,0.712629150390625,-0.5306306481361389,0.4178745150566101,-0.990528404712677
1783246270119641000,0.72264111328125,-0.7494825720787048,0.9287899732589722,-0.8305760025978088
1783246270129652000,0.73265185546875,-0.8921777009963989,1.4017521142959595,-0.45596814155578613
1783246270139664100,0.7426640625,-0.9745144248008728,1.907726526260376,0.1884971261024475
1783246270149676000,0.752676025390625,-1.101212739944458,2.2621545791625977,0.9657782316207886
1783246270159688000,0.76268798828125,-1.2175540924072266,2.233102560043335,1.7464568614959717
1783246270169699000,0.772698974609375,-1.3395906686782837,2.043567180633545,2.2971725463867188
1783246270179711000,0.7827109375,-1.568717360496521,1.8930554389953613,2.47961163520813
1783246270189723100,0.79272314453125,-1.9648993015289307,1.9138058423995972,2.449977397918701
1783246270199735000,0.802735107421875,-2.555349826812744,2.218961715698242,2.3706893920898438
1783246270209746200,0.81274609375,-3.0665149688720703,2.5590121746063232,2.1249616146087646
1783246270219758000,0.822758056640625,-3.343142032623291,3.0752222537994385,1.9088010787963867
1783246270229770200,0.832770263671875,-3.371448040008545,3.532836437225342,1.8908134698867798
1783246270239781000,0.842781005859375,-3.216862678527832,3.825345277786255,1.9727230072021484
1783246270249793000,0.85279296875,-2.949836492538452,3.8025896549224854,1.9464954137802124
1783246270259805000,0.862804931640625,-2.637291669845581,3.3750953674316406,1.7857283353805542
1783246270269817000,0.872817138671875,-2.2649521827697754,2.5748305320739746,1.5783811807632446
1783246270279828000,0.882827880859375,-1.8815385103225708,1.456520676612854,1.340152382850647
1783246270289839900,0.89283984375,-1.4630744457244873,0.23058265447616577,1.0310509204864502
1783246270299852000,0.90285205078125,-1.0461832284927368,-0.854559063911438,0.6134201884269714
1783246270309864000,0.912864013671875,-0.6603079438209534,-1.7709271907806396,0.08894442021846771
1783246270319875000,0.922875,-0.29138022661209106,-2.454575300216675,-0.47246456146240234
1783246270329887200,0.93288720703125,0.006465280428528786,-2.8421013355255127,-0.9852429628372192
1783246270339899100,0.942899169921875,0.18916451930999756,-2.9404773712158203,-1.4320894479751587
1783246270349911000,0.9529111328125,0.2910745143890381,-2.7834129333496094,-1.8044397830963135
1783246270359922200,0.962922119140625,0.3493812084197998,-2.444783926010132,-2.0850155353546143
1783246270369934000,0.97293408203125,0.39687684178352356,-2.01596736907959,-2.263104200363159
1783246270379946000,0.982946044921875,0.44585075974464417,-1.5737922191619873,-2.3000662326812744
1783246270389956900,0.992956787109375,0.4939626455307007,-1.1623284816741943,-2.180925130844116
1783246270399969000,1.002968994140625,0.5190826654434204,-0.8175079822540283,-1.9294766187667847
1783246270409981000,1.01298095703125,0.4977058470249176,-0.5515006184577942,-1.5899522304534912
1783246270419993000,1.0229931640625,0.4333244860172272,-0.43136703968048096,-1.2267076969146729
1783246270430004200,1.033004150390625,0.3476383090019226,-0.455402672290802,-0.9219633936882019
1783246270440016100,1.04301611328125,0.2507293224334717,-0.5438480973243713,-0.7402854561805725
1783246270450027500,1.053027587890625,0.12191158533096313,-0.673555314540863,-0.7009796500205994
1783246270460039700,1.063039794921875,-0.019422106444835663,-0.7978746294975281,-0.7884581089019775
1783246270470050600,1.073050537109375,-0.16945931315422058,-0.8351829648017883,-0.9461292028427124
1783246270480062500,1.0830625,-0.32072871923446655,-0.7876988053321838,-1.1263681650161743
1783246270490074600,1.09307470703125,-0.45039239525794983,-0.6589490175247192,-1.2826718091964722
1783246270500085500,1.10308544921875,-0.5328720808029175,-0.4900928735733032,-1.3486950397491455
1783246270510097400,1.113097412109375,-0.53779137134552,-0.2720605731010437,-1.29423189163208
1783246270520109600,1.123109619140625,-0.4535537362098694,-0.04332856833934784,-1.1260861158370972
1783246270530121500,1.13312158203125,-0.35021308064460754,0.12242542207241058,-0.8999582529067993
1783246270540132600,1.143132568359375,-0.27219659090042114,0.20594829320907593,-0.6909693479537964
1783246270550144800,1.153144775390625,-0.25548437237739563,0.26512327790260315,-0.5619503259658813
1783246270560156700,1.16315673828125,-0.3041800260543823,0.33348342776298523,-0.5510169863700867
1783246270570168600,1.17316845703125,-0.3786921203136444,0.3660338222980499,-0.6389266848564148
1783246270580179500,1.183179443359375,-0.4292197525501251,0.3157309889793396,-0.7516505718231201
1783246270590191600,1.193191650390625,-0.42774543166160583,0.24119071662425995,-0.8324756026268005
1783246270600203500,1.20320361328125,-0.3861580193042755,0.20987726747989655,-0.8569180965423584
1783246270610214400,1.21321435546875,-0.3267112970352173,0.2701079547405243,-0.8206586241722107
1783246270620226600,1.2232265625,-0.26663440465927124,0.41771793365478516,-0.7261358499526978
1783246270630238500,1.233238525390625,-0.22034627199172974,0.7013933658599854,-0.5966917872428894
1783246270640250600,1.243250732421875,-0.2137184739112854,1.160629153251648,-0.4657828211784363
1783246270650261800,1.25326171875,-0.22674664855003357,1.6805176734924316,-0.34104061126708984
1783246270660273700,1.263273681640625,-0.25448161363601685,2.1511545181274414,-0.17780564725399017
1783246270670285600,1.27328564453125,-0.25831830501556396,2.385587692260742,0.046576038002967834
1783246270680297700,1.283297607421875,-0.1809324473142624,2.3588767051696777,0.32721835374832153
1783246270690308600,1.29330859375,-0.0026636794209480286,2.0701687335968018,0.5896123647689819
1783246270700320500,1.303320556640625,0.2923509180545807,1.3634536266326904,0.7160587310791016
1783246270710332700,1.313332763671875,0.6252027153968811,0.11910983175039291,0.7030202746391296
1783246270720343600,1.323343505859375,0.8445497155189514,-1.456474781036377,0.6934211254119873
1783246270730355500,1.33335546875,0.7938690185546875,-2.817164182662964,0.8426365852355957
1783246270740367600,1.34336767578125,0.4252776503562927,-3.6054816246032715,1.1683145761489868
1783246270750379500,1.353379638671875,-0.11771011352539062,-3.570972442626953,1.6044517755508423
1783246270760390400,1.363390380859375,-0.6411432027816772,-2.469919443130493,2.0450599193573
1783246270770402600,1.373402587890625,-1.2272018194198608,-0.19350610673427582,2.280129909515381
1783246270780414500,1.38341455078125,-1.6893996000289917,2.7948503494262695,2.192636251449585
1783246270790425600,1.393425537109375,-1.5702475309371948,4.857337951660156,2.225370407104492
1783246270800437500,1.4034375,-0.6759103536605835,4.475497245788574,2.8581953048706055
1783246270810449700,1.41344970703125,0.6563351154327393,1.8194353580474854,3.5662665367126465
1783246270820461600,1.423461669921875,1.5132031440734863,-1.532652735710144,3.503373622894287
1783246270830472400,1.433472412109375,1.4468812942504883,-3.9736075401306152,2.525602102279663
1783246270840484600,1.443484619140625,1.082138180732727,-5.080358505249023,1.3401225805282593
1783246270850496500,1.45349658203125,0.9838562607765198,-5.092220783233643,0.5421625971794128
1783246270860508700,1.4635087890625,1.2512049674987793,-4.431284427642822,0.24463395774364471
1783246270870519600,1.47351953125,1.695512294769287,-3.4924817085266113,0.255611389875412
1783246270880531500,1.483531494140625,1.9991661310195923,-2.480379343032837,0.3500630557537079
1783246270890543400,1.49354345703125,1.9866068363189697,-1.5085725784301758,0.49183544516563416
1783246270900554800,1.5035546875,1.7626310586929321,-0.6975465416908264,0.6779046654701233
1783246270910566700,1.513566650390625,1.4259672164916992,-0.12481314688920975,0.7405635118484497
1783246270920578600,1.52357861328125,1.018036961555481,0.2727627158164978,0.49331143498420715
1783246270930590700,1.5335908203125,0.6184458136558533,0.46243956685066223,-0.09619710594415665
1783246270940601600,1.5436015625,0.44959765672683716,0.5379271507263184,-0.9642943739891052
1783246270950613500,1.553613525390625,0.5334303975105286,0.5120428800582886,-1.9564932584762573
1783246270960625700,1.563625732421875,0.8330655694007874,0.5116508603096008,-2.8826661109924316
1783246270970637600,1.573637451171875,1.3642985820770264,0.5658829212188721,-3.6009020805358887
1783246270980648400,1.5836484375,1.8624870777130127,0.6377677917480469,-4.070799827575684
1783246270990660600,1.59366064453125,2.029266119003296,0.6852224469184875,-4.26516580581665
1783246271000672500,1.603672607421875,1.8355320692062378,0.7392148375511169,-4.096721649169922
1783246271010683600,1.61368359375,1.4584474563598633,0.6260491609573364,-3.588047981262207
1783246271020695800,1.62369580078125,0.9928628206253052,0.2948262691497803,-2.886216163635254
1783246271030707700,1.633707763671875,0.4607851207256317,-0.09658142179250717,-2.1477158069610596
1783246271040719600,1.6437197265625,-0.0516241192817688,-0.3818741738796234,-1.4661438465118408
1783246271050730500,1.65373046875,-0.5598334670066833,-0.5206387042999268,-1.0098134279251099
1783246271060742700,1.66374267578125,-1.0520923137664795,-0.521885097026825,-0.8502077460289001
1783246271070754600,1.673754638671875,-1.3928310871124268,-0.48533138632774353,-0.9072549939155579
1783246271080766700,1.6837666015625,-1.5553749799728394,-0.3996865153312683,-1.0016272068023682
1783246271090777600,1.693777587890625,-1.5686978101730347,-0.19477292895317078,-1.0287927389144897
1783246271100789500,1.70378955078125,-1.4568171501159668,0.08494766056537628,-1.0441317558288574
1783246271110801400,1.713801513671875,-1.2090849876403809,0.39334213733673096,-1.0186580419540405
1783246271120812500,1.7238125,-0.9020141959190369,0.7105706930160522,-0.8847540020942688
1783246271130824400,1.733824462890625,-0.6242071986198425,0.97847980260849,-0.6601661443710327
1783246271140836400,1.74383642578125,-0.4323514401912689,1.1003692150115967,-0.42398640513420105
1783246271150848500,1.7538486328125,-0.33171677589416504,1.0635937452316284,-0.26595795154571533
1783246271160859600,1.763859619140625,-0.3148499131202698,0.8969050049781799,-0.18655630946159363
1783246271170871600,1.77387158203125,-0.37504494190216064,0.6577117443084717,-0.14738571643829346
1783246271180883700,1.7838837890625,-0.4781779646873474,0.4161111116409302,-0.11772635579109192
1783246271190895600,1.7938955078125,-0.5616437792778015,0.25480717420578003,-0.06496194005012512
1783246271200906500,1.803906494140625,-0.6240701675415039,0.20687372982501984,0.01204416062682867
1783246271210918700,1.813918701171875,-0.6834956407546997,0.26141780614852905,0.12002720683813095
1783246271220930600,1.8239306640625,-0.7288468480110168,0.3698907494544983,0.2620360255241394
1783246271230941400,1.83394140625,-0.7725639343261719,0.49540042877197266,0.43888920545578003
1783246271240953600,1.84395361328125,-0.8125361204147339,0.6720910668373108,0.6236217617988586
1783246271250965500,1.853965576171875,-0.8278746604919434,0.891836941242218,0.7988776564598083
1783246271260977400,1.863977294921875,-0.808540940284729,1.1047449111938477,0.9635457396507263
1783246271270988500,1.873988525390625,-0.790526270866394,1.1841509342193604,1.079836130142212
1783246271281000700,1.884000732421875,-0.7796754837036133,1.1675347089767456,1.141308069229126
1783246271291012600,1.8940126953125,-0.7713319659233093,1.1000500917434692,1.1731183528900146
1783246271301024800,1.904024658203125,-0.7048937678337097,1.01675283908844,1.157017707824707
1783246271311035600,1.91403564453125,-0.558149516582489,0.8866443037986755,1.0827703475952148
1783246271321047600,1.924047607421875,-0.3276854157447815,0.7279441356658936,0.991464376449585
1783246271331059500,1.9340595703125,-0.0695103257894516,0.5148574113845825,0.9463256001472473
1783246271341070600,1.944070556640625,0.13936246931552887,0.03654357045888901,0.948447048664093
1783246271351082500,1.95408251953125,0.22118741273880005,-0.8139535784721375,0.9867329001426697
1783246271361094400,1.964094482421875,0.1554451435804367,-1.6893666982650757,1.0278453826904297
1783246271371106600,1.9741064453125,-0.056689418852329254,-2.3704488277435303,1.0955876111984253
1783246271381117700,1.98411767578125,-0.3278340995311737,-2.6488592624664307,1.0660161972045898
1783246271391129600,1.994129638671875,-0.5813195109367371,-2.019015073776245,0.8917322754859924
1783246271401141800,2.004141845703125,-0.7976698875427246,-0.19601237773895264,0.6934652328491211
1783246271411152600,2.014152587890625,-1.0639525651931763,2.2677292823791504,0.5048051476478577
1783246271421164500,2.02416455078125,-1.2157737016677856,3.602513313293457,0.6310943365097046
1783246271431176700,2.0341767578125,-0.9789936542510986,2.72392201423645,1.174293875694275
1783246271441188600,2.044188720703125,-0.32594239711761475,0.3764200508594513,1.941906452178955
1783246271451200000,2.054199951171875,0.37044188380241394,-1.8798010349273682,2.5651724338531494
1783246271461212000,2.0642119140625,0.6759645342826843,-3.1748805046081543,2.6375503540039062
1783246271471224000,2.07422412109375,0.6641998291015625,-3.3629186153411865,2.162034511566162
1783246271481236000,2.084236083984375,0.5822365283966064,-2.524627447128296,1.4667006731033325
1783246271491246800,2.094246826171875,0.5246884822845459,-1.109215259552002,0.9816458225250244
1783246271501259000,2.104259033203125,0.4700239300727844,0.349252849817276,0.9857454895973206
1783246271511271000,2.11427099609375,0.3371390998363495,1.6277480125427246,1.4518580436706543
1783246271521282000,2.124281982421875,0.053695421665906906,2.4953346252441406,2.1836743354797363
1783246271531294200,2.134294189453125,-0.38292810320854187,2.8854427337646484,2.8822133541107178
1783246271541306000,2.14430615234375,-0.8904237747192383,2.9241890907287598,3.290463447570801
1783246271551318000,2.154318115234375,-1.279745101928711,2.65750789642334,3.3021535873413086
1783246271561329200,2.1643291015625,-1.3526924848556519,2.2209534645080566,3.0308892726898193
1783246271571341000,2.174341064453125,-1.1336493492126465,1.63522469997406,2.640092134475708
1783246271581353000,2.18435302734375,-0.6890876889228821,1.2070437669754028,2.1373891830444336
1783246271591365000,2.194365234375,-0.09937210381031036,0.9948886036872864,1.5960924625396729
1783246271601376000,2.2043759765625,0.46504947543144226,0.9212681651115417,1.0069682598114014
1783246271611388000,2.214387939453125,0.8858421444892883,0.8982046246528625,0.3702240288257599
1783246271621400000,2.224400146484375,1.0974910259246826,0.8495635986328125,-0.24277307093143463
1783246271631411200,2.2344111328125,1.1488455533981323,0.7223900556564331,-0.7217551469802856
1783246271641423000,2.244423095703125,1.0563862323760986,0.5577739477157593,-0.9457491040229797
1783246271651435300,2.254435302734375,0.832034170627594,0.4824601113796234,-0.8367056250572205
1783246271661447200,2.264447265625,0.5150223970413208,0.40042439103126526,-0.539360761642456
1783246271671458000,2.2744580078125,0.23368823528289795,0.4831154942512512,-0.40327855944633484
1783246271681470000,2.284469970703125,0.034355420619249344,0.6248060464859009,-0.36448562145233154
1783246271691482000,2.294482177734375,-0.19005580246448517,0.810592532157898,-0.42310893535614014
1783246271701493000,2.304492919921875,-0.42642760276794434,1.0124046802520752,-0.5986282229423523
1783246271711505000,2.3145048828125,-0.6325291395187378,1.1335642337799072,-0.8857740163803101
1783246271721517000,2.32451708984375,-0.7976565957069397,1.169672966003418,-1.2282437086105347
1783246271731529000,2.334529052734375,-0.918231189250946,1.1453722715377808,-1.556149959564209
1783246271741539800,2.344539794921875,-0.9788442254066467,1.0853300094604492,-1.7965139150619507
1783246271751552000,2.354552001953125,-0.9764546751976013,1.0641292333602905,-1.8845995664596558
1783246271761564000,2.36456396484375,-0.8958996534347534,1.1011353731155396,-1.835205078125
1783246271771575800,2.374575927734375,-0.7595513463020325,1.1459083557128906,-1.6780065298080444
1783246271781587200,2.384587158203125,-0.6253724694252014,1.110647201538086,-1.4685624837875366
1783246271791599000,2.39459912109375,-0.5400124192237854,0.9661861062049866,-1.2696150541305542
1783246271801611000,2.404611083984375,-0.49642524123191833,0.7580919861793518,-1.1195589303970337
1783246271811622100,2.4146220703125,-0.4847106337547302,0.5607980489730835,-1.0212064981460571
1783246271821634000,2.424634033203125,-0.49765118956565857,0.46187546849250793,-0.9537361264228821
1783246271831646000,2.43464599609375,-0.5355151891708374,0.4632677435874939,-0.8708316087722778
1783246271841658000,2.444658203125,-0.5895795226097107,0.5649645328521729,-0.7605141997337341
1783246271851669000,2.4546689453125,-0.6719773411750793,0.7707276344299316,-0.6435316801071167
1783246271861681000,2.464680908203125,-0.7715731859207153,1.0460278987884521,-0.5379522442817688
1783246271871693000,2.474693115234375,-0.8721227049827576,1.298301100730896,-0.42064186930656433
1783246271881705000,2.484705078125,-0.9495375752449036,1.5120179653167725,-0.2561629116535187
1783246271891716000,2.494716064453125,-0.9841771125793457,1.7372416257858276,-0.035544902086257935
1783246271901728000,2.50472802734375,-0.99110347032547,1.9491815567016602,0.19534823298454285
1783246271911740200,2.514740234375,-0.9779728055000305,2.126052141189575,0.3668347895145416
1783246271921751000,2.5247509765625,-0.8859485983848572,2.1700732707977295,0.4363536834716797
1783246271931763000,2.534762939453125,-0.6366192698478699,1.9848597049713135,0.40818655490875244
1783246271941775000,2.544775146484375,-0.2228226363658905,1.5519464015960693,0.2744242548942566
1783246271951787000,2.554787109375,0.2197612076997757,0.7835303544998169,0.007696667220443487
1783246271961798000,2.5647978515625,0.5098260641098022,-0.3763881325721741,-0.4368586838245392
1783246271971810000,2.57481005859375,0.535728931427002,-1.797186255455017,-1.0779151916503906
1783246271981822000,2.584822021484375,0.34312406182289124,-3.28747820854187,-1.7447580099105835
1783246271991833900,2.594833740234375,0.09638572484254837,-4.16101598739624,-1.9995166063308716
1783246272001845200,2.60484521484375,-0.04277802258729935,-3.865355968475342,-1.5108296871185303
1783246272011857200,2.614857177734375,0.04773774743080139,-2.384060859680176,-0.4081953465938568
1783246272021869000,2.624869140625,0.23882701992988586,-0.4844445288181305,0.7814464569091797
1783246272031880200,2.634880126953125,0.28133517503738403,0.8274651765823364,1.7182791233062744
1783246272041892000,2.64489208984375,0.38913193345069885,0.9792011976242065,2.2787508964538574
1783246272051904000,2.654904052734375,0.6676567792892456,-0.3014346659183502,2.3340718746185303
1783246272061916200,2.664916259765625,0.9999678730964661,-2.212674379348755,2.0155253410339355
1783246272071927000,2.674927001953125,1.3633623123168945,-3.7679805755615234,1.5681374073028564
1783246272081939000,2.68493896484375,1.713225245475769,-4.490443229675293,1.1670032739639282
1783246272091951000,2.694951171875,1.910245418548584,-4.188525199890137,0.8418512940406799
1783246272101962000,2.7049619140625,1.8847161531448364,-3.1172401905059814,0.5350210070610046
1783246272111974000,2.714973876953125,1.7052600383758545,-1.8769830465316772,0.21238255500793457
1783246272121985800,2.72498583984375,1.5030120611190796,-1.1193956136703491,-0.08090850710868835
1783246272131998000,2.734998046875,1.387391209602356,-0.9127786755561829,-0.2965267598628998
1783246272142009000,2.745009033203125,1.331640362739563,-1.0675270557403564,-0.3508741557598114
1783246272152021000,2.75502099609375,1.2714815139770508,-1.3899058103561401,-0.20952045917510986
1783246272162033200,2.765033203125,1.1594221591949463,-1.6937354803085327,0.09116507321596146
1783246272172044000,2.7750439453125,0.9855422973632812,-1.8077037334442139,0.4764614701271057
1783246272182056000,2.785055908203125,0.8412085175514221,-1.6777231693267822,0.890809178352356
1783246272192068000,2.795068115234375,0.7724508047103882,-1.230464220046997,1.22188138961792
1783246272202080000,2.805080078125,0.7297483682632446,-0.4912005662918091,1.3013384342193604
1783246272212091000,2.8150908203125,0.6446215510368347,0.3245161771774292,0.9344697594642639
1783246272222103000,2.82510302734375,0.5726696252822876,0.8685054779052734,0.04760783910751343
1783246272232115000,2.835114990234375,0.5339951515197754,1.0409578084945679,-1.1970162391662598
1783246272242126800,2.845126953125,0.5880730152130127,0.9024595618247986,-2.3793864250183105
1783246272252138200,2.85513818359375,0.7028160095214844,0.6691412329673767,-3.20307993888855
1783246272262150100,2.865150146484375,0.802506148815155,0.42604923248291016,-3.6268675327301025
1783246272272162000,2.875162109375,0.8089849352836609,0.2248259335756302,-3.7121405601501465
1783246272282173000,2.8851728515625,0.7641543745994568,0.11340460181236267,-3.4716672897338867
1783246272292185000,2.89518505859375,0.6886440515518188,0.00641717528924346,-2.86702299118042
1783246272302197000,2.905197021484375,0.5858575105667114,-0.290798544883728,-2.077880382537842
1783246272312209200,2.915209228515625,0.5001983046531677,-0.48285794258117676,-1.4526233673095703
1783246272322220000,2.925219970703125,0.46334657073020935,-0.4244212508201599,-1.002303957939148
1783246272332232000,2.93523193359375,0.4189123809337616,-0.18610845506191254,-0.6787998080253601
1783246272342243800,2.945243896484375,0.31806647777557373,0.18293535709381104,-0.4779929220676422
1783246272352256000,2.955256103515625,0.16205325722694397,0.5780971646308899,-0.4081876277923584
1783246272362267100,2.96526708984375,-0.025755252689123154,0.903850793838501,-0.4414837956428528
1783246272372279000,2.975279052734375,-0.2039065808057785,1.1477646827697754,-0.5392186045646667
1783246272382291200,2.985291259765625,-0.34433209896087646,1.2693192958831787,-0.6926249265670776
1783246272392302000,2.995302001953125,-0.442671537399292,1.3017113208770752,-0.8624923229217529
1783246272402314000,3.00531396484375,-0.5249951481819153,1.2957903146743774,-0.9955779314041138
1783246272412326100,3.015326171875,-0.5884488821029663,1.2740099430084229,-1.066120982170105
1783246272422338000,3.025338134765625,-0.6150528192520142,1.26949143409729,-1.0669044256210327
1783246272432349000,3.035348876953125,-0.58714759349823,1.2896543741226196,-1.026908278465271
1783246272442361000,3.045361083984375,-0.509533703327179,1.299720048904419,-0.9659030437469482
1783246272452373000,3.055373046875,-0.39848148822784424,1.2662321329116821,-0.9125164747238159
1783246272462385000,3.065385009765625,-0.28141799569129944,1.2136725187301636,-0.8655452728271484
1783246272472395800,3.075395751953125,-0.17048367857933044,1.1279791593551636,-0.8127791881561279
1783246272482408000,3.085407958984375,-0.08012502640485764,1.0162081718444824,-0.7292448878288269
1783246272492419800,3.095419921875,-0.033170413225889206,0.9037260413169861,-0.6033692359924316
1783246272502431000,3.105430908203125,0.015185138210654259,0.8168412446975708,-0.43872618675231934
1783246272512443000,3.11544287109375,0.1099172905087471,0.747111439704895,-0.2576014995574951
1783246272522455000,3.125455078125,0.23277130722999573,0.6336469054222107,-0.10259728133678436
1783246272532467000,3.135467041015625,0.360358864068985,0.45169851183891296,0.012846553698182106
1783246272542477800,3.145477783203125,0.47826099395751953,0.3109954595565796,0.10097295045852661
1783246272552490000,3.155489990234375,0.5511886477470398,0.3028319478034973,0.16076412796974182
1783246272562502000,3.165501953125,0.5673093199729919,0.3822724521160126,0.1824640929698944
1783246272572512800,3.1755126953125,0.5240075588226318,0.4177645742893219,0.17005446553230286
1783246272582525000,3.18552490234375,0.45107391476631165,0.1721217930316925,0.147141695022583
1783246272592536800,3.195536865234375,0.4638980031013489,-0.5239567756652832,0.10191444307565689
1783246272602548700,3.205548828125,0.6755316853523254,-1.626806616783142,0.05119666829705238
1783246272612560100,3.21556005859375,0.909034013748169,-2.652310609817505,-0.1324930638074875
1783246272622572000,3.225572021484375,0.8665440678596497,-2.8836710453033447,-0.5252594947814941
1783246272632584000,3.235583984375,0.5144691467285156,-1.9281082153320312,-0.7493777275085449
1783246272642596000,3.24559619140625,-0.033442649990320206,-0.37613460421562195,-0.45113831758499146
1783246272652607000,3.25560693359375,-0.40656694769859314,1.005663514137268,0.3541494905948639
1783246272662619000,3.265618896484375,-0.28409722447395325,1.2490897178649902,1.3736352920532227
1783246272672631000,3.275631103515625,0.5050932168960571,-0.4182767868041992,2.160313367843628
1783246272682642000,3.285641845703125,1.5307068824768066,-2.8567607402801514,2.4593544006347656
1783246272692653800,3.29565380859375,2.2236483097076416,-4.736140727996826,2.366773843765259
1783246272702666000,3.305666015625,2.4457497596740723,-5.576950550079346,2.11663818359375
1783246272712678000,3.315677978515625,2.324077606201172,-5.34256649017334,1.88479483127594
1783246272722689000,3.32568896484375,2.074093818664551,-4.329571723937988,1.791465163230896
1783246272732701000,3.335700927734375,1.8089386224746704,-3.201486825942993,1.8414514064788818
1783246272742713000,3.345713134765625,1.616274356842041,-2.5046162605285645,2.0136778354644775
1783246272752724000,3.355723876953125,1.526472806930542,-2.2622995376586914,2.2246572971343994
1783246272762735900,3.36573583984375,1.4784533977508545,-2.2427961826324463,2.3314476013183594
1783246272772748000,3.375748046875,1.4314950704574585,-2.2590110301971436,2.2835090160369873
1783246272782760000,3.385760009765625,1.388871669769287,-2.1854209899902344,2.1665337085723877
1783246272792770800,3.395770751953125,1.3561761379241943,-1.8921011686325073,2.0079782009124756
1783246272802783000,3.405782958984375,1.4043782949447632,-1.330979824066162,1.8135950565338135
1783246272812795000,3.415794921875,1.4812688827514648,-0.724064826965332,1.5755481719970703
1783246272822806800,3.425806884765625,1.5683995485305786,-0.2948751449584961,1.235001802444458
1783246272832818000,3.43581787109375,1.67341148853302,-0.10470850020647049,0.802871584892273
1783246272842829800,3.445829833984375,1.749450922012329,-0.23430858552455902,0.33483222126960754
1783246272852841700,3.455841796875,1.6919372081756592,-0.5994649529457092,-0.04426618292927742
1783246272862853000,3.46585302734375,1.5496472120285034,-0.9017537236213684,-0.18862390518188477
1783246272872865000,3.475864990234375,1.3179422616958618,-0.9094629287719727,0.04761534184217453
1783246272882877000,3.485876953125,1.028937816619873,-0.6636810898780823,0.48020005226135254
1783246272892889000,3.49588916015625,0.7675438523292542,-0.19817300140857697,0.9652621150016785
1783246272902900000,3.50589990234375,0.4926505386829376,0.29109522700309753,1.4498873949050903
1783246272912912000,3.515911865234375,0.1727607101202011,0.6932556629180908,1.855612874031067
1783246272922924000,3.525924072265625,-0.11735900491476059,1.0153652429580688,2.1239616870880127
1783246272932936000,3.53593603515625,-0.3318157196044922,1.2035961151123047,2.2228052616119385
1783246272942946800,3.54594677734375,-0.4610823690891266,1.1783491373062134,2.1317145824432373
1783246272952959000,3.555958984375,-0.503548264503479,0.9814115762710571,1.8518399000167847
1783246272962971000,3.565970947265625,-0.48934295773506165,0.6780676245689392,1.3967409133911133
1783246272972982000,3.57598193359375,-0.402238130569458,0.3438175320625305,0.8635260462760925
1783246272982994000,3.585993896484375,-0.2286786139011383,0.1702854186296463,0.38233599066734314
1783246272993006000,3.596006103515625,0.04213014990091324,0.1832253336906433,0.01864941045641899
1783246273003018000,3.60601806640625,0.3528240919113159,0.33700424432754517,-0.2045770287513733
1783246273013028900,3.61602880859375,0.6091039180755615,0.5384731888771057,-0.26569560170173645
1783246273023041000,3.626041015625,0.7338013648986816,0.6871617436408997,-0.10471442341804504
1783246273033053000,3.636052978515625,0.7017726898193359,0.7248344421386719,0.13603296875953674
1783246273043064800,3.64606494140625,0.5835731029510498,0.6742000579833984,0.3081730306148529
1783246273053076000,3.656075927734375,0.41960591077804565,0.546497106552124,0.3964868187904358
1783246273063087900,3.666087890625,0.23145678639411926,0.3468252718448639,0.39516720175743103
1783246273073099800,3.676099853515625,0.08658694475889206,0.1405078023672104,0.2880137264728546
1783246273083111200,3.686111083984375,0.05837394669651985,0.017051376402378082,0.15407884120941162
1783246273093123000,3.696123046875,0.16171444952487946,0.01910838857293129,0.018483860418200493
1783246273103135000,3.706135009765625,0.33241721987724304,0.06505723297595978,-0.1330001950263977
1783246273113147100,3.716147216796875,0.49059638381004333,0.08351098001003265,-0.3276279866695404
1783246273123158000,3.726157958984375,0.5929253697395325,0.05414377152919769,-0.5429890155792236
1783246273133170000,3.736169921875,0.6362845301628113,0.013254658319056034,-0.7439507842063904
1783246273143182000,3.74618212890625,0.6304196715354919,-0.04617804288864136,-0.8471823334693909
1783246273153193000,3.75619287109375,0.599892795085907,-0.03232182189822197,-0.8316677808761597
1783246273163204900,3.766204833984375,0.5900412201881409,0.12088663876056671,-0.7676552534103394
1783246273173217000,3.776217041015625,0.556953489780426,0.28299447894096375,-0.5849100351333618
1783246273183229000,3.78622900390625,0.47062525153160095,0.42874395847320557,-0.26443666219711304
1783246273193239800,3.79623974609375,0.3214776813983917,0.5231204032897949,0.12673825025558472
1783246273203251700,3.806251708984375,0.09451271593570709,0.48018357157707214,0.6109930872917175
1783246273213264000,3.816263916015625,-0.1632421314716339,0.3490940034389496,1.2200475931167603
1783246273223275800,3.82627587890625,-0.32313087582588196,0.2507525086402893,1.9266300201416016
1783246273233287000,3.836286865234375,-0.3403642773628235,0.2289258986711502,2.5449483394622803
1783246273243299000,3.846299072265625,-0.09919453412294388,0.24737389385700226,2.84631085395813
1783246273253311000,3.85631103515625,0.34011131525039673,-0.045268792659044266,2.8847086429595947
1783246273263321900,3.86632177734375,0.8436644673347473,-0.4997377395629883,2.5861620903015137
1783246273273334000,3.876333984375,1.3164277076721191,-0.8110958933830261,2.005096435546875
1783246273283346000,3.886345947265625,1.5773240327835083,-0.9858381152153015,1.197738528251648
1783246273293357800,3.89635791015625,1.6184126138687134,-1.177200198173523,0.4428781569004059
1783246273303369000,3.906368896484375,1.4701035022735596,-1.2717711925506592,0.07772014290094376
1783246273313380900,3.916380859375,1.1378947496414185,-1.2724815607070923,0.16435106098651886
1783246273323392800,3.926392822265625,0.7622982859611511,-1.1936224699020386,0.5727736949920654
1783246273333404000,3.93640380859375,0.3798966407775879,-1.005829930305481,0.9857355356216431
1783246273343416000,3.946416015625,0.0026907618157565594,-0.6749267578125,1.1120233535766602
1783246273353428000,3.956427978515625,-0.19600118696689606,-0.2797641456127167,0.9058375954627991
1783246273363440000,3.966440185546875,-0.03235047683119774,0.13465699553489685,0.46471530199050903
1783246273373451000,3.976450927734375,0.4145774245262146,0.39957332611083984,-0.17784811556339264
1783246273383463000,3.986462890625,0.9427222609519958,0.43661096692085266,-0.9915359616279602
1783246273393475000,3.99647509765625,1.2261910438537598,0.16303375363349915,-1.7955915927886963
1783246273403487000,4.006487060546875,1.0975842475891113,-0.12837013602256775,-2.3703627586364746
1783246273413497900,4.016497802734375,0.5106367468833923,-0.07738383114337921,-2.4710352420806885
1783246273423509800,4.026509765625,-0.40674346685409546,0.11889860033988953,-1.988722801208496
1783246273433522000,4.03652197265625,-1.1867493391036987,0.40232813358306885,-1.3999574184417725
1783246273443533000,4.046532958984375,-1.491821050643921,0.7070140242576599,-0.8850797414779663
1783246273453545200,4.056545166015625,-1.444468379020691,0.9448841214179993,-0.47301211953163147
1783246273463557000,4.06655712890625,-1.1192628145217896,1.1849526166915894,-0.25793468952178955
1783246273473569300,4.0765693359375,-0.6946162581443787,1.257959246635437,-0.3114282488822937
1783246273483580200,4.086580078125,-0.30485406517982483,1.0367860794067383,-0.612210214138031
1783246273493592000,4.096592041015625,0.02471211738884449,0.6690166592597961,-1.0502746105194092
1783246273503604200,4.106604248046875,0.28455808758735657,0.32477086782455444,-1.495461106300354
1783246273513616100,4.1166162109375,0.3931368291378021,0.04280000552535057,-1.8535130023956299
1783246273523627000,4.126626953125,0.3714160919189453,-0.18229544162750244,-2.064378023147583
1783246273533639000,4.136638916015625,0.26827406883239746,-0.28374743461608887,-2.099539279937744
1783246273543651000,4.146651123046875,0.08589015156030655,-0.25532910227775574,-1.939483404159546
1783246273553662000,4.156661865234375,-0.15698449313640594,-0.09242694079875946,-1.5931103229522705
1783246273563673900,4.166673828125,-0.45550915598869324,0.14242976903915405,-1.0939955711364746
1783246273573686000,4.17668603515625,-0.6882593035697937,0.40071749687194824,-0.528172492980957
1783246273583698000,4.186697998046875,-0.7420692443847656,0.6981915235519409,0.01949780248105526
1783246273593709000,4.196708984375,-0.6654028296470642,0.9526860117912292,0.4410768747329712
1783246273603721200,4.20672119140625,-0.5173129439353943,1.107207179069519,0.6827161908149719
1783246273613733000,4.216733154296875,-0.3859066069126129,1.1288312673568726,0.739952027797699
1783246273623745000,4.2267451171875,-0.29134389758110046,0.9893660545349121,0.6355403661727905
1783246273633756200,4.236756103515625,-0.22329658269882202,0.732063353061676,0.419796347618103
1783246273643768000,4.24676806640625,-0.16360928118228912,0.4405103325843811,0.141123965382576
1783246273653780000,4.256780029296875,-0.0964781790971756,0.17002396285533905,-0.1250910758972168
1783246273663791000,4.266791015625,-0.028651461005210876,-0.013077416457235813,-0.3194376528263092
1783246273673803000,4.276802978515625,0.055542074143886566,-0.05684048309922218,-0.4068761467933655
1783246273683815000,4.28681494140625,0.14702777564525604,0.028067748993635178,-0.39475104212760925
1783246273693827000,4.2968271484375,0.2070511430501938,0.15521281957626343,-0.31449663639068604
1783246273703838200,4.306838134765625,0.21758607029914856,0.2838067412376404,-0.19257047772407532
1783246273713850000,4.31685009765625,0.1979164034128189,0.3663441240787506,-0.07308228313922882
1783246273723862300,4.3268623046875,0.1670924425125122,0.3424992561340332,0.012905336916446686
1783246273733873200,4.336873046875,0.1474330723285675,0.25486302375793457,0.05599328875541687
1783246273743885000,4.346885009765625,0.1806245744228363,0.15977884829044342,0.06311405450105667
1783246273753897000,4.35689697265625,0.266043096780777,0.09283226728439331,0.02606319636106491
1783246273763909000,4.3669091796875,0.3692893385887146,0.03582464158535004,-0.059418682008981705
1783246273773920000,4.376919921875,0.4240179657936096,0.012602576985955238,-0.18080340325832367
1783246273783932000,4.386931884765625,0.3822830319404602,0.07206590473651886,-0.3221767842769623
1783246273793944000,4.396944091796875,0.251144140958786,0.21361234784126282,-0.4576258659362793
1783246273803956000,4.4069560546875,0.00748699065297842,0.25268492102622986,-0.43059396743774414
1783246273813967000,4.416967041015625,-0.3281897008419037,0.10076151043176651,-0.11953280866146088
1783246273823979300,4.426979248046875,-0.669665515422821,-0.1280767321586609,0.5001000761985779
1783246273833991200,4.4369912109375,-0.9935576915740967,-0.1023346334695816,1.2049216032028198
1783246273844002000,4.447001953125,-1.1972111463546753,0.11140188574790955,1.8153218030929565
1783246273854014200,4.45701416015625,-1.1370102167129517,0.3232227563858032,2.3557932376861572
1783246273864026000,4.467026123046875,-0.7841132879257202,0.5242775082588196,2.7234716415405273
1783246273874038000,4.4770380859375,-0.12766613066196442,0.5923027992248535,2.7568960189819336
1783246273884049200,4.487049072265625,0.5746847987174988,0.38114050030708313,2.4745213985443115
1783246273894061000,4.49706103515625,1.0220251083374023,0.2085943967103958,1.5566902160644531
1783246273904073000,4.507072998046875,1.2041105031967163,0.04401529207825661,-0.0997333750128746
1783246273914083800,4.517083740234375,1.0774513483047485,-0.10803448408842087,-1.8611621856689453
1783246273924096000,4.527095947265625,0.82114177942276,-0.3553164303302765,-2.8493940830230713
1783246273934108000,4.53710791015625,0.709252655506134,-0.8368412256240845,-2.8313071727752686
1783246273944120000,4.5471201171875,0.7017430663108826,-1.1113412380218506,-2.0308010578155518
1783246273954131200,4.557131103515625,0.7481938600540161,-0.8355439901351929,-0.8499808311462402
1783246273964143000,4.56714306640625,0.7620345950126648,-0.07346738129854202,0.19748619198799133
1783246273974155000,4.577155029296875,0.7835116386413574,0.639531672000885,0.8597174286842346
1783246273984167200,4.587167236328125,0.9331464171409607,1.0565242767333984,1.1693692207336426
1783246273994178000,4.597177978515625,1.142953872680664,1.1633820533752441,1.1358740329742432
1783246274004190000,4.60718994140625,1.177457571029663,0.9862639904022217,0.814527153968811
1783246274014202000,4.6172021484375,0.9284361004829407,0.7104460597038269,0.3050805628299713
1783246274024213000,4.627212890625,0.45460325479507446,0.44345271587371826,-0.32180118560791016
1783246274034225000,4.637224853515625,-0.09979929029941559,0.2455126941204071,-0.9910786151885986
1783246274044237000,4.647237060546875,-0.5883950591087341,0.12237850576639175,-1.677775263786316
1783246274054249000,4.6572490234375,-0.8816866278648376,-0.1139209121465683,-2.3053088188171387
1783246274064260000,4.667260009765625,-0.9856210350990295,-0.4381972551345825,-2.7571284770965576
1783246274074272300,4.677272216796875,-0.9421048760414124,-0.726471483707428,-2.927522897720337
1783246274084284200,4.6872841796875,-0.8140597939491272,-0.823893666267395,-2.694272518157959
1783246274094295000,4.697294921875,-0.5837113261222839,-0.627298891544342,-2.0841152667999268
1783246274104307200,4.70730712890625,-0.32729339599609375,-0.2495878040790558,-1.3045804500579834
1783246274114319000,4.717319091796875,-0.08152728527784348,0.1333206743001938,-0.5704883933067322
1783246274124331000,4.7273310546875,0.10501144081354141,0.5243507623672485,-0.005325648933649063
1783246274134342000,4.737341796875,0.19319221377372742,0.860236406326294,0.367294043302536
1783246274144354000,4.74735400390625,0.14624573290348053,1.1144566535949707,0.5580956935882568
1783246274154366000,4.757365966796875,0.011062733829021454,1.1512407064437866,0.5708637833595276
1783246274164378000,4.767378173828125,-0.14415428042411804,1.000654935836792,0.48424527049064636
1783246274174389200,4.77738916015625,-0.29469558596611023,0.7906795144081116,0.3621956706047058
1783246274184401200,4.787401123046875,-0.4180974066257477,0.5436593294143677,0.23963087797164917
1783246274194413300,4.797413330078125,-0.47799062728881836,0.26865437626838684,0.12345441430807114
1783246274204424200,4.807424072265625,-0.4579892158508301,0.012015672400593758,0.014172667637467384
1783246274214436000,4.81743603515625,-0.3571217358112335,-0.1578412801027298,-0.07236023247241974
1783246274224448000,4.827447998046875,-0.18383251130580902,-0.2294456958770752,-0.13193035125732422
1783246274234460200,4.837460205078125,0.03216709569096565,-0.223231241106987,-0.1482570320367813
1783246274244471000,4.847470947265625,0.25314342975616455,-0.11987635493278503,-0.13556839525699615
1783246274254483000,4.85748291015625,0.41840338706970215,-0.017059780657291412,-0.11529065668582916
1783246274264495000,4.8674951171875,0.4903494715690613,0.013034737668931484,-0.08891364932060242
1783246274274506000,4.877506103515625,0.47529739141464233,0.004032847471535206,-0.06469034403562546
1783246274284518000,4.887517822265625,0.40194833278656006,-0.019821617752313614,-0.030193351209163666
1783246274294530000,4.897530029296875,0.2851792871952057,-0.027960659936070442,0.008480802178382874
1783246274304542000,4.9075419921875,0.14015896618366241,-0.03148215636610985,0.02831203304231167
1783246274314553000,4.917552978515625,0.008524890057742596,-0.06120879575610161,0.01837787590920925
1783246274324565200,4.927565185546875,-0.06599780917167664,-0.11278623342514038,0.021223464980721474
1783246274334577200,4.9375771484375,-0.06399676948785782,-0.12708452343940735,0.061146330088377
1783246274344589000,4.947589111328125,0.008363177999854088,-0.03423288092017174,0.08756010234355927
1783246274354600000,4.957599853515625,0.13496555387973785,0.06181607395410538,0.06732839345932007
1783246274364612000,4.967612060546875,0.2805541753768921,0.08966714143753052,-0.04284418374300003
1783246274374624000,4.9776240234375,0.39302968978881836,0.034785110503435135,-0.2596140503883362
1783246274384635000,4.987634765625,0.45317745208740234,-0.08659404516220093,-0.5454010963439941
1783246274394647000,4.99764697265625,0.41952115297317505,-0.1816798746585846,-0.8079174757003784
1783246274404659000,5.007658935546875,0.30082887411117554,-0.22410829365253448,-1.001650094985962
1783246274414671000,5.017671142578125,0.2055455893278122,-0.35142457485198975,-1.050599217414856
1783246274424682200,5.02768212890625,0.2449590414762497,-0.5470811724662781,-0.8342413306236267
1783246274434694100,5.037694091796875,0.3505736291408539,-0.6841586232185364,-0.25203996896743774
1783246274444706000,5.0477060546875,0.452108770608902,-0.6074851155281067,0.5904505252838135
1783246274454718200,5.05771826171875,0.5632193088531494,-0.2863377630710602,1.4734617471694946
1783246274464729000,5.06772900390625,0.6474186182022095,0.021895986050367355,2.31894588470459
1783246274474741200,5.0777412109375,0.6875032782554626,0.1901078075170517,3.102858304977417
1783246274484753200,5.087753173828125,0.7383874654769897,0.26243579387664795,3.6786961555480957
1783246274494764000,5.097763916015625,0.7934660911560059,0.3403053879737854,3.859671115875244
1783246274504776200,5.107776123046875,0.7675005793571472,0.7764771580696106,3.408710479736328
1783246274514788000,5.1177880859375,0.6654418110847473,1.3607062101364136,2.2261643409729004
1783246274524800000,5.127800048828125,0.5880234837532043,1.4113030433654785,0.642867386341095
1783246274534811100,5.13781103515625,0.5724315047264099,0.7344106435775757,-0.7836191654205322
1783246274544823300,5.1478232421875,0.6397777795791626,-0.33661073446273804,-1.5574991703033447
1783246274554835200,5.157835205078125,0.6999834775924683,-1.3304604291915894,-1.751440167427063
1783246274564846000,5.16784619140625,0.6637058854103088,-1.8852347135543823,-1.6706795692443848
1783246274574858200,5.177858154296875,0.5424702167510986,-2.035249948501587,-1.4233338832855225
1783246274584870100,5.1878701171875,0.3465859591960907,-1.7965391874313354,-1.1693851947784424
1783246274594882300,5.19788232421875,0.11504291743040085,-1.3303042650222778,-1.0395194292068481
1783246274604893200,5.20789306640625,-0.16298790276050568,-0.778959333896637,-1.0476974248886108
1783246274614905000,5.217905029296875,-0.5393159985542297,-0.1143544465303421,-1.2563610076904297
1783246274624917200,5.227917236328125,-1.0213497877120972,0.532639741897583,-1.7445669174194336
1783246274634928000,5.23792822265625,-1.5698782205581665,0.917884349822998,-2.464029550552368
1783246274644940000,5.24793994140625,-2.111453056335449,0.9991083741188049,-3.1755356788635254
1783246274654952000,5.257951904296875,-2.5554163455963135,0.8747873902320862,-3.448038101196289
1783246274664964000,5.267964111328125,-2.879366874694824,0.47714337706565857,-3.035539150238037
1783246274674975200,5.277975341796875,-3.0147273540496826,-0.10950226336717606,-2.1314101219177246
1783246274684987100,5.287987060546875,-2.900265693664551,-0.6066168546676636,-1.1268060207366943
1783246274694999300,5.297999267578125,-2.597404956817627,-0.8862441778182983,-0.2649216949939728
1783246274705011200,5.30801123046875,-2.174664258956909,-0.8741411566734314,0.39488258957862854
1783246274715022000,5.31802197265625,-1.8352526426315308,-0.5973768830299377,0.8601548671722412
1783246274725034200,5.3280341796875,-1.619991421699524,-0.17189137637615204,1.0544588565826416
1783246274735046100,5.338046142578125,-1.5328890085220337,0.24849869310855865,0.9684020280838013
1783246274745057000,5.34805712890625,-1.5596556663513184,0.4359642267227173,0.5944284200668335
1783246274755069200,5.358069091796875,-1.653334140777588,0.32976627349853516,-0.00011805864050984383
1783246274765081000,5.3680810546875,-1.777219533920288,0.05684500187635422,-0.6697941422462463
1783246274775093000,5.378093017578125,-1.8879457712173462,-0.20868563652038574,-1.2384389638900757
1783246274785104100,5.388104248046875,-1.9449323415756226,-0.41434478759765625,-1.6500201225280762
1783246274795116300,5.3981162109375,-1.9722764492034912,-0.5410651564598083,-1.834679126739502
1783246274805128200,5.408128173828125,-1.9721572399139404,-0.4808689057826996,-1.760850429534912
1783246274815139000,5.41813916015625,-1.935845971107483,-0.30917590856552124,-1.4747883081436157
1783246274825151200,5.428151123046875,-1.839866280555725,-0.1768396943807602,-1.1366955041885376
1783246274835163100,5.4381630859375,-1.7215923070907593,-0.03848661109805107,-0.8840434551239014
1783246274845175300,5.44817529296875,-1.614625334739685,0.20141999423503876,-0.7094095945358276
1783246274855186200,5.458186279296875,-1.5720051527023315,0.48594629764556885,-0.5768065452575684
1783246274865198000,5.468197998046875,-1.5917186737060547,0.7789456844329834,-0.4825303852558136
1783246274875210000,5.4782099609375,-1.6747394800186157,0.9813225865364075,-0.4337206780910492
1783246274885222100,5.48822216796875,-1.8121018409729004,1.1257703304290771,-0.4445251226425171
1783246274895233300,5.4982333984375,-1.9695721864700317,1.2051728963851929,-0.5281369090080261
1783246274905245200,5.5082451171875,-2.0931577682495117,1.163708209991455,-0.6833552718162537
1783246274915257000,5.518257080078125,-2.1675186157226562,1.034218430519104,-0.8956035375595093
1783246274925268200,5.528268310546875,-2.20697283744812,0.8873629570007324,-1.1398006677627563
1783246274935280000,5.538280029296875,-2.1373648643493652,0.9276561737060547,-1.3872960805892944
1783246274945292300,5.548292236328125,-2.0513317584991455,0.8005813360214233,-1.6057155132293701
1783246274955304200,5.55830419921875,-1.981360912322998,0.7554479241371155,-1.6783809661865234
1783246274965315000,5.568315185546875,-1.7948062419891357,0.8723737001419067,-1.4859817028045654
1783246274975327200,5.5783271484375,-1.4604130983352661,1.1513971090316772,-1.1148806810379028
1783246274985339100,5.588339111328125,-1.095728874206543,1.3765026330947876,-0.8034154176712036
1783246274995350000,5.59835009765625,-0.7847193479537964,1.5332295894622803,-0.7125174403190613
1783246275005362000,5.60836181640625,-0.526157021522522,1.5619914531707764,-0.771651029586792
1783246275015374000,5.6183740234375,-0.35085374116897583,1.5532506704330444,-0.8361893892288208
1783246275025386000,5.628385986328125,-0.31226322054862976,1.7214909791946411,-0.8455027341842651
1783246275035397000,5.638397216796875,-0.3597506582736969,1.8903191089630127,-0.6901100873947144
1783246275045409300,5.6484091796875,-0.4100053012371063,1.6818349361419678,-0.2621355950832367
1783246275055421200,5.658421142578125,-0.2504558265209198,1.0386234521865845,0.3996264636516571
1783246275065432000,5.66843212890625,0.1639336496591568,0.06402984261512756,1.1017427444458008
1783246275075444200,5.6784443359375,0.5646619200706482,-0.9562733173370361,1.5463695526123047
1783246275085456100,5.6884560546875,0.8009854555130005,-1.7161990404129028,1.5537081956863403
1783246275095468000,5.698468017578125,0.7927172780036926,-1.7433786392211914,1.1137412786483765
1783246275105479200,5.708479248046875,0.49515509605407715,-1.0002524852752686,0.5172725319862366
1783246275115491000,5.718490966796875,0.22459016740322113,-0.0016675656661391258,0.07391982525587082
1783246275125503000,5.7285029296875,0.22976548969745636,0.853691816329956,0.015228549018502235
1783246275135515100,5.73851513671875,0.3198826014995575,1.2010940313339233,0.4605175852775574
1783246275145526300,5.7485263671875,0.4400548040866852,0.6589265465736389,1.1669178009033203
1783246275155538200,5.7585380859375,0.5837817788124084,-0.6471343040466309,1.8242404460906982
1783246275165550300,5.76855029296875,0.6793099045753479,-2.0927658081054688,2.1753549575805664
1783246275175561200,5.778561279296875,0.7264131903648376,-3.2015349864959717,2.1348745822906494
1783246275185573000,5.788572998046875,0.7459429502487183,-3.746729850769043,1.8239729404449463
1783246275195585300,5.798585205078125,0.8155811429023743,-3.6541733741760254,1.3711204528808594
1783246275205597200,5.80859716796875,0.9466962814331055,-3.1586718559265137,0.8370073437690735
1783246275215608000,5.818608154296875,1.1000131368637085,-2.5120790004730225,0.3315076231956482
1783246275225620200,5.8286201171875,1.2319629192352295,-1.9062774181365967,-0.04517496004700661
1783246275235632000,5.838632080078125,1.2554713487625122,-1.2944873571395874,-0.35088226199150085
1783246275245643300,5.848643310546875,1.1903624534606934,-0.6862596869468689,-0.6819352507591248
1783246275255655200,5.8586552734375,1.0870572328567505,-0.3226499855518341,-1.082490086555481
1783246275265667300,5.868667236328125,0.9950484037399292,-0.299089252948761,-1.5285327434539795
1783246275275679200,5.87867919921875,0.9336565136909485,-0.5282315611839294,-1.9498589038848877
1783246275285690000,5.888690185546875,0.8821470141410828,-0.8781259059906006,-2.2859749794006348
1783246275295702300,5.898702392578125,0.8641506433486938,-1.1834523677825928,-2.484027862548828
1783246275305714200,5.908714111328125,0.9343523979187012,-1.4598090648651123,-2.570141315460205
1783246275315725000,5.91872509765625,1.0991581678390503,-1.619521975517273,-2.518531560897827
1783246275325737200,5.9287373046875,1.3285735845565796,-1.6163771152496338,-2.2971603870391846
1783246275335749000,5.9387490234375,1.585175633430481,-1.6853586435317993,-1.9739108085632324
1783246275345761000,5.948760986328125,1.64663827419281,-1.5793938636779785,-1.5438579320907593
1783246275355772200,5.958772216796875,1.622591257095337,-1.371760368347168,-1.0782945156097412
1783246275365784000,5.9687841796875,1.5141745805740356,-1.1998602151870728,-0.6512268781661987
1783246275375796000,5.9787958984375,1.2922013998031616,-1.2053247690200806,-0.31855130195617676
1783246275385807000,5.98880712890625,1.0493205785751343,-1.4974361658096313,-0.1211538091301918
1783246275395819300,5.9988193359375,0.770952582359314,-1.665948510169983,-0.012907193042337894
1783246275405831200,6.0088310546875,0.5845430493354797,-1.6264317035675049,0.005989266559481621
1783246275415843300,6.01884326171875,0.5533087253570557,-1.573768138885498,-0.1314089596271515
1783246275425854200,6.028854248046875,0.6093730926513672,-1.6788700819015503,-0.37405622005462646
1783246275435866000,6.0388662109375,0.7114953398704529,-1.7543615102767944,-0.6209049224853516
1783246275445878300,6.048878173828125,0.8651914000511169,-1.7715892791748047,-0.8149857521057129
1783246275455890400,6.058890380859375,1.0053126811981201,-1.6330249309539795,-0.9070751667022705
1783246275465901300,6.0689013671875,1.1497247219085693,-1.482882022857666,-0.915261447429657
1783246275475913200,6.078913330078125,1.1919054985046387,-1.1905577182769775,-0.8826708793640137
1783246275485925400,6.08892529296875,1.1875879764556885,-0.8024712204933167,-0.7990910410881042
1783246275495936500,6.0989365234375,1.1319332122802734,-0.40467357635498047,-0.6667175889015198
1783246275505948400,6.108948486328125,1.033398151397705,-0.03529420495033264,-0.536162793636322
1783246275515960600,6.118960693359375,0.9755702018737793,0.22281648218631744,-0.3476387858390808
1783246275525972500,6.128972412109375,0.880623459815979,0.3948209881782532,-0.045076269656419754
1783246275535983400,6.1389833984375,0.7457665801048279,0.6140790581703186,0.41478997468948364
1783246275545995500,6.14899560546875,0.6032869219779968,0.9546989798545837,0.9000844955444336
1783246275556007400,6.15900732421875,0.4515118896961212,1.394375205039978,1.2225314378738403
1783246275566018300,6.169018310546875,0.3382588326931,1.8516383171081543,1.3519128561019897
1783246275576030500,6.179030517578125,0.29234373569488525,2.265259265899658,1.3327085971832275
1783246275586042400,6.18904248046875,0.2961195707321167,2.5804531574249268,1.1490577459335327
1783246275596054300,6.19905419921875,0.3200315237045288,2.680375814437866,0.7881562113761902
1783246275606065400,6.2090654296875,0.33411431312561035,2.547476291656494,0.2782442569732666
1783246275616077300,6.219077392578125,0.30005159974098206,2.4774558544158936,-0.07174304127693176
1783246275626089200,6.229089111328125,0.3802628219127655,2.3848800659179688,-0.1196005791425705
1783246275636100400,6.239100341796875,0.6981637477874756,2.005634069442749,0.033373355865478516
1783246275646112500,6.249112548828125,1.2422398328781128,1.1829758882522583,0.5048974752426147
1783246275656124400,6.25912451171875,1.7859258651733398,0.21845756471157074,1.3806737661361694
1783246275666136600,6.269136474609375,2.1981241703033447,-0.3590198755264282,2.3581793308258057
1783246275676147500,6.2791474609375,2.4558701515197754,-0.005372285842895508,3.165964365005493
1783246275686159400,6.289159423828125,2.5455751419067383,1.0466444492340088,3.757662773132324
1783246275696171300,6.299171142578125,2.352966547012329,1.5649338960647583,4.3307576179504395
1783246275706182400,6.309182373046875,1.8287829160690308,0.9814605712890625,5.021387100219727
1783246275716194300,6.3191943359375,1.104610800743103,0.010928806848824024,5.326116561889648
1783246275726206200,6.329206298828125,0.4996413290500641,-0.6057722568511963,4.910507678985596
1783246275736218400,6.33921826171875,0.24032919108867645,-0.660750150680542,3.840444564819336
1783246275746229500,6.3492294921875,0.27285197377204895,-0.4825790822505951,2.501199245452881
1783246275756241400,6.359241455078125,0.3955000936985016,-0.6349606513977051,1.288321852684021
1783246275766253600,6.369253662109375,0.28683939576148987,-1.1677526235580444,0.5536076426506042
1783246275776265500,6.379265380859375,0.036069583147764206,-1.891821026802063,0.23317983746528625
1783246275786276400,6.3892763671875,-0.17410069704055786,-2.606898784637451,0.0866260826587677
1783246275796288500,6.39928857421875,-0.1902492195367813,-3.3913755416870117,0.04028812795877457
1783246275806300400,6.409300537109375,-0.05237763002514839,-4.050081253051758,-0.007021329831331968
1783246275816311300,6.419311279296875,0.14427095651626587,-3.855304718017578,-0.012711393646895885
1783246275826323500,6.429323486328125,0.45534786581993103,-2.41200590133667,-0.16847194731235504
1783246275836335400,6.43933544921875,0.8773736357688904,-0.03275425359606743,-0.4842744767665863
1783246275846347300,6.44934716796875,1.2291905879974365,2.135087251663208,-0.7508746981620789
1783246275856358400,6.4593583984375,1.3423727750778198,3.154104471206665,-0.933623731136322
1783246275866370600,6.46937060546875,1.2552474737167358,2.7931361198425293,-1.0756064653396606
1783246275876382500,6.479382568359375,1.0547291040420532,2.116349935531616,-1.0434757471084595
1783246275886393300,6.489393310546875,0.6831853985786438,1.128783106803894,-0.9176644086837769
1783246275896405500,6.499405517578125,0.36431050300598145,0.22957760095596313,-0.8301357626914978
1783246275906417400,6.50941748046875,0.11811807006597519,-0.4171433746814728,-0.783793032169342
1783246275916429600,6.5194296875,-0.028729349374771118,-0.8713112473487854,-0.7191498279571533
1783246275926440400,6.5294404296875,-0.09934226423501968,-1.0477770566940308,-0.5210023522377014
1783246275936452400,6.539452392578125,-0.04370611160993576,-0.9451955556869507,-0.15447603166103363
1783246275946464300,6.54946435546875,0.05484576150774956,-0.6803079843521118,0.3025663495063782
1783246275956475400,6.559475341796875,0.13379915058612823,-0.2678958773612976,0.6795121431350708
1783246275966487300,6.5694873046875,0.20742836594581604,0.35106271505355835,0.8557279109954834
1783246275976499200,6.579499267578125,0.24924197793006897,1.109385371208191,0.8471618294715881
1783246275986511400,6.589511474609375,0.2447177916765213,1.7821859121322632,0.7512816786766052
1783246275996522500,6.5995224609375,0.20635783672332764,2.134791612625122,0.6202690005302429
1783246276006534400,6.609534423828125,0.13910502195358276,2.112318992614746,0.5076705813407898
1783246276016546600,6.619546630859375,0.013038024306297302,1.8408255577087402,0.4629066586494446
1783246276026557400,6.629557373046875,-0.17176298797130585,1.4612689018249512,0.4949681758880615
1783246276036569300,6.6395693359375,-0.3746665120124817,1.029105544090271,0.5705459117889404
1783246276046581500,6.64958154296875,-0.5476963520050049,0.5293577909469604,0.6340734958648682
1783246276056593400,6.659593505859375,-0.6792428493499756,-0.21242552995681763,0.5916787981987
1783246276066604300,6.669604248046875,-0.7180730700492859,-0.6625482439994812,0.4991195797920227
1783246276076616200,6.6796162109375,-0.6930477023124695,-0.7861174941062927,0.37360692024230957
1783246276086628400,6.68962841796875,-0.6299960017204285,-0.7186761498451233,0.2565234303474426
1783246276096640300,6.69964013671875,-0.5369606018066406,-0.5127595067024231,0.19564290344715118
1783246276106651400,6.7096513671875,-0.42293524742126465,-0.2931637465953827,0.2341732531785965
1783246276116663600,6.71966357421875,-0.2952041029930115,-0.16153591871261597,0.362844318151474
1783246276126675500,6.729675537109375,-0.1509140431880951,-0.052014220505952835,0.5578076839447021
1783246276136686300,6.739686279296875,-0.017841484397649765,0.04493683949112892,0.7667471766471863
1783246276146698500,6.749698486328125,0.06242645904421806,-0.018170755356550217,0.8747308850288391
1783246276156710400,6.75971044921875,0.13326740264892578,0.04893801733851433,0.9499815106391907
1783246276166722300,6.769722412109375,0.14369314908981323,0.06690529733896255,0.9704788327217102
1783246276176733400,6.7797333984375,0.12466393411159515,0.04252824932336807,0.9309189319610596
1783246276186745300,6.789745361328125,0.1079171746969223,0.07605744898319244,0.8140743374824524
1783246276196757200,6.79975732421875,0.09104099124670029,0.25498804450035095,0.6000544428825378
1783246276206768600,6.8097685546875,0.07130031287670135,0.5954899787902832,0.352692574262619
1783246276216780500,6.819780517578125,0.07656290382146835,1.0251160860061646,0.18273016810417175
1783246276226792400,6.82979248046875,0.1056816428899765,1.137076735496521,0.11340302228927612
1783246276236804600,6.8398046875,0.21940180659294128,0.6940963268280029,0.07942165434360504
1783246276246815500,6.8498154296875,0.45123448967933655,0.21167373657226562,0.06573832780122757
1783246276256827400,6.859827392578125,0.7935390472412109,-0.15014848113059998,-0.07945025712251663
1783246276266839600,6.869839599609375,1.181099772453308,-0.4673277735710144,-0.41339465975761414
1783246276276850400,6.879850341796875,1.3244224786758423,-0.7615616321563721,-0.8907984495162964
1783246276286862300,6.8898623046875,1.1075692176818848,-0.9430022239685059,-1.3049333095550537
1783246276296874200,6.899874267578125,0.6484232544898987,-1.0278191566467285,-1.379136085510254
1783246276306886400,6.909886474609375,0.2713273763656616,-1.3622709512710571,-0.945616602897644
1783246276316897300,6.919897216796875,0.20227687060832977,-1.8479050397872925,-0.11855868995189667
1783246276326909200,6.9299091796875,0.41344505548477173,-1.763421654701233,0.7085352540016174
1783246276336921300,6.93992138671875,0.6983975768089294,-0.8561610579490662,1.1925746202468872
1783246276346932500,6.949932373046875,0.9320883750915527,0.2784430682659149,1.2376550436019897
1783246276356944400,6.9599443359375,1.0020545721054077,0.983940601348877,1.0918192863464355
1783246276366956500,6.96995654296875,0.8978626132011414,1.1676281690597534,0.9572829008102417
1783246276376968400,6.979968505859375,0.6751155257225037,0.8212597966194153,0.9807990789413452
1783246276386979300,6.989979248046875,0.3826338052749634,0.27980664372444153,1.0510807037353516
1783246276396991500,6.999991455078125,0.12018290162086487,0.052552107721567154,1.0296049118041992
1783246276407003400,7.01000341796875,0.05105656385421753,0.27103012800216675,0.8511916995048523
1783246276417014300,7.02001416015625,0.3208104968070984,0.8157886862754822,0.44839534163475037
1783246276427026400,7.0300263671875,0.868004322052002,1.4256725311279297,-0.2606784999370575
1783246276437038300,7.040038330078125,1.3681745529174805,1.754976511001587,-1.2050913572311401
1783246276447050200,7.05005029296875,1.533400297164917,1.625108242034912,-2.247814178466797
1783246276457061000,7.06006103515625,1.301101565361023,1.0042718648910522,-3.068537473678589
1783246276467073000,7.070072998046875,0.8384212255477905,-0.07727774977684021,-3.367436408996582
1783246276477085000,7.0800849609375,0.3932686746120453,-1.1355060338974,-3.0908000469207764
1783246276487095800,7.090095703125,0.08704880625009537,-1.679224967956543,-2.3866114616394043
1783246276497108000,7.10010791015625,-0.09972517937421799,-1.2503162622451782,-1.292331337928772
1783246276507119900,7.110119873046875,-0.05370815098285675,-0.2746099531650543,0.14406900107860565
1783246276517132000,7.120132080078125,0.30402061343193054,0.732475221157074,1.4112324714660645
1783246276527143000,7.130142822265625,0.6764940619468689,1.5384494066238403,2.0434765815734863
1783246276537154800,7.14015478515625,0.8321091532707214,1.7370693683624268,2.013305902481079
1783246276547166700,7.150166748046875,0.8290350437164307,1.3088597059249878,1.4681756496429443
1783246276557179000,7.160178955078125,0.763680636882782,0.5507077574729919,0.624336302280426
1783246276567190000,7.17018994140625,0.661916971206665,-0.2576434016227722,-0.3331044912338257
1783246276577202000,7.180201904296875,0.498937726020813,-0.9535219073295593,-1.2113667726516724
1783246276587214000,7.190214111328125,0.30505800247192383,-1.2569854259490967,-1.8257551193237305
1783246276597225000,7.200224853515625,0.16342735290527344,-1.0708106756210327,-2.0652568340301514
1783246276607236900,7.21023681640625,0.0535365454852581,-0.5449943542480469,-1.9446971416473389
1783246276617249000,7.2202490234375,-0.07003530859947205,0.12834432721138,-1.6061174869537354
1783246276627261000,7.230260986328125,-0.18920645117759705,0.6761627197265625,-1.1744136810302734
1783246276637271800,7.240271728515625,-0.2687056064605713,0.9369475245475769,-0.7003899216651917
1783246276647284000,7.250283935546875,-0.31320303678512573,0.7951531410217285,-0.21671006083488464
1783246276657296000,7.2602958984375,-0.32216504216194153,0.3711879849433899,0.25143948197364807
1783246276667307000,7.27030712890625,-0.29837051033973694,-0.029638774693012238,0.6362460255622864
1783246276677319200,7.280319091796875,-0.2328508198261261,-0.2838006913661957,0.8856441378593445
1783246276687331000,7.2903310546875,-0.10516076534986496,-0.3684609830379486,0.9901471138000488
1783246276697343000,7.300343017578125,0.07208125293254852,-0.27911144495010376,0.9852144718170166
1783246276707353900,7.310353759765625,0.24306604266166687,-0.16999667882919312,0.866308331489563
1783246276717366000,7.320365966796875,0.2950388193130493,-0.19477678835391998,0.672915518283844
1783246276727378000,7.3303779296875,0.17890875041484833,-0.44820424914360046,0.4760251045227051
1783246276737388800,7.340388916015625,-0.023086098954081535,-0.7981702089309692,0.3856944441795349
1783246276747401000,7.35040087890625,-0.04080037772655487,-0.833969235420227,0.7299914360046387
1783246276757412900,7.360412841796875,0.020579751580953598,-0.31196677684783936,0.8753425478935242
1783246276767425000,7.370425048828125,0.02071583829820156,0.04730696603655815,0.7437871694564819
1783246276777436000,7.380435791015625,-0.11338808387517929,0.09396418929100037,0.5996579527854919
1783246276787447800,7.39044775390625,-0.2485022246837616,0.12101231515407562,0.5888140797615051
1783246276797460000,7.4004599609375,-0.3617284297943115,0.17295591533184052,0.6154736280441284
1783246276807471000,7.41047119140625,-0.4512290358543396,0.19057777523994446,0.6170886158943176
1783246276817483000,7.42048291015625,-0.48745620250701904,0.1843125820159912,0.6002874970436096
1783246276827495000,7.430494873046875,-0.4874085485935211,0.1214984655380249,0.5904159545898438
1783246276837507000,7.440507080078125,-0.39673706889152527,0.10912255942821503,0.6768256425857544
1783246276847518000,7.45051806640625,-0.18345090746879578,0.4338572323322296,0.7059235572814941
