time,seconds_elapsed,z,y,x
1783246128352867000,0.0688671875,-0.6161242127418518,-0.04769818112254143,0.6958025097846985
1783246128362879000,0.07887890625,-0.6787548661231995,0.17069514095783234,0.8676648139953613
1783246128372890000,0.08889013671875,-0.658094048500061,-0.05968485772609711,0.9057884216308594
1783246128382902300,0.09890234375,-0.42541876435279846,-0.6025454998016357,0.7624909281730652
1783246128392914200,0.1089140625,-0.028537265956401825,-0.8497611880302429,0.3369998335838318
1783246128402926000,0.118926025390625,0.3735417425632477,-0.6371716856956482,-0.39482855796813965
1783246128412937200,0.128937255859375,0.6149999499320984,-0.4527589678764343,-1.2755502462387085
1783246128422949000,0.13894921875,0.6216112375259399,-0.4586498737335205,-1.8697034120559692
1783246128432961000,0.1489609375,0.522840678691864,-0.7030439376831055,-1.9304563999176025
1783246128442973200,0.15897314453125,0.4504961669445038,-1.065704345703125,-1.6893892288208008
1783246128452985000,0.168985107421875,0.3979675769805908,-1.189992904663086,-1.4232527017593384
1783246128462996000,0.178995849609375,0.26486945152282715,-1.0014355182647705,-1.3100148439407349
1783246128473008000,0.189008056640625,-0.026947593316435814,-0.6003745198249817,-1.4840196371078491
1783246128483020000,0.19902001953125,-0.4674901068210602,-0.1571619212627411,-1.9416447877883911
1783246128493032000,0.209031982421875,-0.9171290397644043,-0.07182695716619492,-2.509580373764038
1783246128503043000,0.21904296875,-0.981859028339386,-0.3127836585044861,-2.8080594539642334
1783246128513055000,0.229054931640625,-0.5547353029251099,-0.573306143283844,-2.735393524169922
1783246128523067000,0.23906689453125,0.1641853302717209,-0.8529982566833496,-2.3664910793304443
1783246128533079000,0.2490791015625,0.7494945526123047,-0.9719582200050354,-1.6983461380004883
1783246128543091000,0.259091064453125,0.9951570630073547,-0.8095117807388306,-0.8573774099349976
1783246128553102000,0.26910205078125,1.0633114576339722,-0.5509434938430786,-0.12037275731563568
1783246128563114200,0.2791142578125,1.0308191776275635,-0.1937158852815628,0.4157426059246063
1783246128573126100,0.289126220703125,0.8892338275909424,0.17613022029399872,0.7355167865753174
1783246128583138000,0.299137939453125,0.6911534667015076,0.4322938323020935,0.8857587575912476
1783246128593149200,0.309149169921875,0.48821955919265747,0.5559238791465759,0.9236992001533508
1783246128603161000,0.3191611328125,0.31151217222213745,0.5671666860580444,0.8717442154884338
1783246128613173000,0.329173095703125,0.19092115759849548,0.5459887981414795,0.7373781800270081
1783246128623185200,0.33918505859375,0.14963789284229279,0.5084041357040405,0.5000010132789612
1783246128633197000,0.349197021484375,0.18024790287017822,0.48917388916015625,0.2162078619003296
1783246128643208000,0.3592080078125,0.2419690489768982,0.37963753938674927,-0.1174289658665657
1783246128653220000,0.36922021484375,0.36601749062538147,0.3656511604785919,-0.31940144300460815
1783246128663232000,0.37923193359375,0.5411880016326904,0.6178660988807678,-0.32399192452430725
1783246128673244000,0.389243896484375,0.6446117162704468,0.774486780166626,-0.301532119512558
1783246128683256000,0.399256103515625,0.6540206670761108,0.8354480862617493,-0.12384682148694992
1783246128693267200,0.40926708984375,0.6220133304595947,0.7923039793968201,0.18627019226551056
1783246128703279000,0.419279052734375,0.5935649275779724,0.6090326905250549,0.5525632500648499
1783246128713291300,0.429291259765625,0.5427749752998352,0.3987475633621216,0.9110530614852905
1783246128723303200,0.43930322265625,0.48231613636016846,0.27541524171829224,1.1860159635543823
1783246128733314000,0.44931396484375,0.48824357986450195,0.26866525411605835,1.3501629829406738
1783246128743326200,0.459326171875,0.5758671164512634,0.33632367849349976,1.4253493547439575
1783246128753338000,0.469338134765625,0.6918280124664307,0.435761958360672,1.4179933071136475
1783246128763350000,0.47935009765625,0.8213271498680115,0.5484887957572937,1.3348912000656128
1783246128773362200,0.489362060546875,0.9503564834594727,0.49639153480529785,1.2036629915237427
1783246128783373000,0.499373046875,1.024135947227478,0.2569078207015991,1.0968393087387085
1783246128793385000,0.509385009765625,0.9499123096466064,-0.04247966408729553,1.0786103010177612
1783246128803397000,0.519397216796875,0.7844117283821106,-0.364585816860199,1.0285357236862183
1783246128813409000,0.529408935546875,0.6120556592941284,-0.6811898946762085,0.8153269290924072
1783246128823420200,0.539420166015625,0.39633211493492126,-0.7927302718162537,0.5114482641220093
1783246128833432300,0.549432373046875,0.2648908197879791,-0.6979362964630127,0.2825661599636078
1783246128843444200,0.5594443359375,0.26946213841438293,-0.6546546220779419,0.09173788130283356
1783246128853456100,0.5694560546875,0.3651712238788605,-0.6901863813400269,-0.01719740778207779
1783246128863468300,0.57946826171875,0.4714862108230591,-0.2857512831687927,0.0035038767382502556
1783246128873479200,0.589479248046875,0.5254716277122498,0.9760394096374512,0.32479703426361084
1783246128883491000,0.599490966796875,0.4830740988254547,1.1347670555114746,0.7233481407165527
1783246128893503200,0.609503173828125,0.20758825540542603,1.016073226928711,1.1617987155914307
1783246128903515100,0.61951513671875,-0.16934064030647278,0.38377514481544495,1.440639853477478
1783246128913526000,0.629526123046875,-0.43135392665863037,-0.48412859439849854,1.6787928342819214
1783246128923538000,0.639537841796875,-0.5496368408203125,-1.0817162990570068,1.9314285516738892
1783246128933550000,0.649550048828125,-0.4940778315067291,-1.2578331232070923,2.128328561782837
1783246128943562000,0.65956201171875,-0.4139217436313629,-1.216069221496582,2.107074737548828
1783246128953574100,0.66957421875,-0.17649127542972565,-0.9700391292572021,1.8419036865234375
1783246128963585000,0.6795849609375,0.46874791383743286,-0.7247215509414673,1.3175848722457886
1783246128973597000,0.689596923828125,1.1569275856018066,-0.8875101804733276,0.5235230922698975
1783246128983609000,0.699609130859375,1.4049028158187866,-1.2660800218582153,-0.20370234549045563
1783246128993621000,0.70962109375,1.223844051361084,-1.2094956636428833,-0.45296528935432434
1783246129003633000,0.7196328125,0.9745421409606934,-0.8293512463569641,-0.5076847076416016
1783246129013644000,0.72964404296875,0.8344927430152893,-0.5525754690170288,-0.8517780900001526
1783246129023656200,0.73965625,0.6249387264251709,-0.5767372250556946,-1.4029089212417603
1783246129033668000,0.749668212890625,0.25133106112480164,-0.897174596786499,-1.9985010623931885
1783246129043680300,0.75968017578125,-0.18854166567325592,-1.4734666347503662,-2.734893560409546
1783246129053691100,0.769691162109375,-0.5555517077445984,-1.996213674545288,-3.40480637550354
1783246129063703000,0.779703125,-0.857224702835083,-1.8364503383636475,-3.904186964035034
1783246129073715000,0.78971484375,-0.8193405270576477,-0.8717588782310486,-3.9683942794799805
1783246129083727000,0.79972705078125,-0.5095254182815552,0.22762729227542877,-3.5867507457733154
1783246129093739000,0.809739013671875,0.10595431923866272,1.0428051948547363,-2.814631462097168
1783246129103750000,0.81975,0.589841365814209,0.933268129825592,-1.8066636323928833
1783246129113762000,0.829761962890625,0.6888977289199829,0.23746995627880096,-0.6566744446754456
1783246129123774000,0.83977392578125,0.47688028216362,-0.5295553207397461,0.43194612860679626
1783246129133785900,0.849785888671875,0.24653276801109314,-0.9648447632789612,1.183527946472168
1783246129143797200,0.85979736328125,0.09811320155858994,-1.0231966972351074,1.3891927003860474
1783246129153809200,0.86980908203125,0.09068573266267776,-0.757236659526825,1.115304708480835
1783246129163821000,0.879821044921875,0.13755230605602264,-0.1275562196969986,0.6802421808242798
1783246129173833200,0.889833251953125,0.2905368506908417,0.3322276771068573,0.24580419063568115
1783246129183845000,0.89984521484375,0.4916505217552185,0.38294756412506104,-0.17075519263744354
1783246129193856000,0.90985595703125,0.5949373841285706,0.2642165720462799,-0.39047691226005554
1783246129203868200,0.9198681640625,0.5186063647270203,0.17081177234649658,-0.410131573677063
1783246129213880000,0.929880126953125,0.39532679319381714,-0.05362025275826454,-0.27576497197151184
1783246129223892000,0.93989208984375,0.26925086975097656,-0.43454840779304504,-0.02498123049736023
1783246129233903000,0.949903076171875,0.18166233599185944,-0.7323240041732788,0.24909402430057526
1783246129243915000,0.9599150390625,0.3677818775177002,-0.46905964612960815,0.5173856616020203
1783246129253927000,0.969927001953125,0.8763465285301208,0.2928680181503296,0.7604854702949524
1783246129263939000,0.97993896484375,1.4076772928237915,0.8363227844238281,0.8930845260620117
1783246129273951000,0.989950927734375,1.6431649923324585,0.8520416617393494,0.8333680033683777
1783246129283962000,0.999962158203125,1.5660978555679321,0.9708375334739685,0.668067991733551
1783246129293974300,1.009974365234375,1.4293208122253418,1.28876531124115,0.5368582010269165
1783246129303986200,1.019986083984375,1.4159977436065674,1.5544952154159546,0.4347286522388458
1783246129313998000,1.029998046875,1.4889123439788818,1.6045188903808594,0.33687129616737366
1783246129324009500,1.040009521484375,1.4998427629470825,1.1846950054168701,0.3988928496837616
1783246129334020400,1.050020263671875,1.3407602310180664,0.41969242691993713,0.7165645360946655
1783246129344032300,1.0600322265625,1.0765451192855835,-0.25538453459739685,1.1334235668182373
1783246129354044400,1.07004443359375,0.7884724736213684,-0.40654289722442627,1.3931562900543213
1783246129364056300,1.080056396484375,0.6523183584213257,-0.1466394066810608,1.2560434341430664
1783246129374067200,1.090067138671875,0.655252993106842,0.16974769532680511,0.9253050684928894
1783246129384079000,1.1000791015625,0.6165727376937866,0.4880811870098114,0.8262884616851807
1783246129394091300,1.11009130859375,0.5056138038635254,0.7017804980278015,0.8539873957633972
1783246129404103200,1.120103271484375,0.3889598846435547,0.5746845602989197,0.9287253022193909
1783246129414115300,1.130115234375,0.2997921109199524,0.30150601267814636,1.0032179355621338
1783246129424126500,1.14012646484375,0.20296384394168854,0.22064761817455292,1.0502392053604126
1783246129434138400,1.150138427734375,0.18433918058872223,0.4671694040298462,1.0337860584259033
1783246129444150500,1.160150634765625,-0.1684281826019287,0.5531362295150757,0.893262505531311
1783246129454162400,1.170162353515625,-0.42336034774780273,0.7901085615158081,0.898539125919342
1783246129464173300,1.18017333984375,-0.2214152216911316,0.7877181172370911,0.7767517566680908
1783246129474185200,1.190185302734375,0.03378179296851158,0.6226693987846375,0.4206591248512268
1783246129484197400,1.200197265625,0.17031699419021606,0.42461493611335754,0.09341759979724884
1783246129494209300,1.210209228515625,0.4704802334308624,0.2773601710796356,-0.06244632974267006
1783246129504221400,1.220221435546875,1.0017536878585815,-0.39592981338500977,-0.2754129469394684
1783246129514232300,1.230232421875,1.553519606590271,-1.306326150894165,-0.4264566898345947
1783246129524244200,1.240244140625,2.092745065689087,-1.6669740676879883,-0.12267310172319412
1783246129534256000,1.250256103515625,2.5954864025115967,-1.099840760231018,0.7371820211410522
1783246129544268300,1.260268310546875,2.8240389823913574,0.21188592910766602,1.9429665803909302
1783246129554280200,1.2702802734375,2.7236931324005127,1.6279380321502686,2.906202793121338
1783246129564291300,1.280291259765625,2.5949461460113525,2.4565327167510986,3.0036873817443848
1783246129574303500,1.290303466796875,2.614750862121582,2.4633290767669678,2.2600438594818115
1783246129584315400,1.3003154296875,2.6133484840393066,1.8423625230789185,1.1227798461914062
1783246129594327300,1.310327392578125,2.3908560276031494,0.9517069458961487,0.019214443862438202
1783246129604338400,1.32033837890625,1.9878660440444946,0.16747015714645386,-0.8662652969360352
1783246129614350300,1.330350341796875,1.5820729732513428,-0.3474842607975006,-1.5271320343017578
1783246129624362200,1.3403623046875,1.1360774040222168,-0.46166515350341797,-2.046389579772949
1783246129634374400,1.35037451171875,0.6305258274078369,-0.13838274776935577,-2.4234328269958496
1783246129644386300,1.36038623046875,0.15597444772720337,0.46245595812797546,-2.5984981060028076
1783246129654397200,1.370397216796875,-0.19242453575134277,1.1333717107772827,-2.508166551589966
1783246129664409300,1.380409423828125,-0.4073762893676758,1.6368529796600342,-2.1625876426696777
1783246129674421200,1.390421142578125,-0.45494744181632996,1.8322526216506958,-1.6452020406723022
1783246129684433200,1.40043310546875,-0.3269508481025696,1.6679491996765137,-1.0810773372650146
1783246129694444500,1.410444580078125,-0.09888095408678055,1.201690673828125,-0.48920512199401855
1783246129704456400,1.42045654296875,0.14017368853092194,0.5903628468513489,0.0991809144616127
1783246129714468400,1.43046826171875,0.36834466457366943,-0.06192271411418915,0.6019088625907898
1783246129724480500,1.44048046875,0.5951676964759827,-0.5859084129333496,0.9573854804039001
1783246129734492400,1.450492431640625,0.8444736003875732,-0.865006685256958,1.13916015625
1783246129744503300,1.46050341796875,1.0948560237884521,-0.9138876795768738,1.2055351734161377
1783246129754515500,1.470515380859375,1.3217501640319824,-0.784706711769104,1.1785129308700562
1783246129764527400,1.48052734375,1.398586392402649,-0.5252512097358704,1.1277883052825928
1783246129774539300,1.490539306640625,1.3489940166473389,-0.2453242838382721,1.0798923969268799
1783246129784551400,1.500551513671875,1.2486878633499146,-0.043193019926548004,0.9776491522789001
1783246129794562300,1.510562255859375,1.1361544132232666,0.10509540885686874,0.8005644679069519
1783246129804574200,1.52057421875,0.9862604737281799,0.19706101715564728,0.5721749663352966
1783246129814586400,1.53058642578125,0.8161220550537109,0.23033086955547333,0.31687819957733154
1783246129824598300,1.540598388671875,0.696567177772522,0.23859679698944092,0.07486210763454437
1783246129834609200,1.550609130859375,0.6350770592689514,0.2583083510398865,-0.10304464399814606
1783246129844621300,1.560621337890625,0.6477180123329163,0.22461910545825958,-0.17785604298114777
1783246129854633200,1.57063330078125,0.6613749265670776,-0.0702807754278183,-0.1829213798046112
1783246129864645000,1.58064501953125,0.6048762202262878,-0.6190491318702698,-0.16079823672771454
1783246129874657300,1.5906572265625,0.6439357995986938,-0.7617518901824951,-0.0831182673573494
1783246129884668400,1.60066845703125,0.8317895531654358,-0.7703746557235718,0.03138727322220802
1783246129894680300,1.610680419921875,0.9428213238716125,-0.8071704506874084,0.20558342337608337
1783246129904692500,1.6206923828125,0.9987330436706543,-0.9316405057907104,0.3996061682701111
1783246129914704400,1.630704345703125,1.0622406005859375,-1.0692994594573975,0.5988650918006897
1783246129924715300,1.64071533203125,1.1092398166656494,-1.1320312023162842,0.8077298998832703
1783246129934727400,1.6507275390625,1.142401933670044,-1.1272180080413818,0.9927433133125305
1783246129944739300,1.6607392578125,1.14761221408844,-1.076610803604126,1.1297938823699951
1783246129954751200,1.670751220703125,1.1205260753631592,-0.9224880337715149,1.2323719263076782
1783246129964763400,1.680763427734375,1.0813027620315552,-0.6251527667045593,1.2691205739974976
1783246129974774300,1.690774169921875,1.005845069885254,-0.31515270471572876,1.246253252029419
1783246129984786200,1.7007861328125,0.8707706928253174,-0.0665828213095665,1.1963860988616943
1783246129994798300,1.71079833984375,0.6539088487625122,0.1835763156414032,1.1434110403060913
1783246130004810200,1.720810302734375,0.42208701372146606,0.5465121865272522,1.0910780429840088
1783246130014822100,1.730822265625,0.16778722405433655,0.9979828000068665,1.012831687927246
1783246130024833500,1.74083349609375,-0.060639820992946625,1.7210512161254883,0.8859169483184814
1783246130034845400,1.750845458984375,-0.14163199067115784,2.7030060291290283,0.5779580473899841
1783246130044857300,1.760857421875,-0.022595079615712166,4.004894733428955,-0.06304564327001572
1783246130054869500,1.770869384765625,0.46184682846069336,4.906236171722412,-1.2048062086105347
1783246130064880400,1.78088037109375,1.1195000410079956,3.7529172897338867,-2.7176005840301514
1783246130074892300,1.790892333984375,1.3118563890457153,0.2942429184913635,-3.9600560665130615
1783246130084904400,1.800904541015625,1.1327213048934937,-3.1957902908325195,-4.0659565925598145
1783246130094916400,1.810916259765625,0.85079425573349,-3.5901951789855957,-2.6802713871002197
1783246130104928300,1.82092822265625,0.302148699760437,-1.0212368965148926,-0.8095975518226624
1783246130114939100,1.830939208984375,-0.010777633637189865,2.2456843852996826,0.7051445245742798
1783246130124951300,1.840951416015625,0.2341863214969635,4.361816883087158,1.5317109823226929
1783246130134963200,1.850963134765625,0.5142137408256531,4.710277557373047,1.5126028060913086
1783246130144975400,1.860975341796875,0.5624856352806091,3.7219531536102295,1.0802936553955078
1783246130154987300,1.8709873046875,0.5363606214523315,1.8983279466629028,0.5656678080558777
1783246130164998400,1.880998291015625,0.5467245578765869,0.09956610202789307,0.14439833164215088
1783246130175010600,1.891010498046875,0.6379854083061218,-1.0353907346725464,-0.12695097923278809
1783246130185022500,1.9010224609375,0.6999409198760986,-1.374104619026184,-0.3245077133178711
1783246130195034400,1.911034423828125,0.5818101167678833,-1.1029748916625977,-0.5584186315536499
1783246130205045200,1.921045166015625,0.35604172945022583,-0.5743857026100159,-0.9098754525184631
1783246130215057400,1.931057373046875,0.15329596400260925,-0.03996153920888901,-1.2675820589065552
1783246130225069300,1.9410693359375,0.07020694017410278,0.3756694793701172,-1.4926543235778809
1783246130235081500,1.95108154296875,0.07187050580978394,0.5102514028549194,-1.4931102991104126
1783246130245093400,1.96109326171875,0.08525502681732178,0.3978303372859955,-1.241133213043213
1783246130255104300,1.971104248046875,0.1291174739599228,0.15017201006412506,-0.834670901298523
1783246130265116200,1.9811162109375,0.2320728898048401,-0.14019270241260529,-0.43462252616882324
1783246130275128300,1.99112841796875,0.43668898940086365,-0.4298792779445648,-0.19340527057647705
1783246130285140200,2.00114013671875,0.7087582945823669,-0.5927081108093262,-0.17226989567279816
1783246130295152400,2.01115234375,1.0268908739089966,-0.6867620944976807,-0.34570562839508057
1783246130305163300,2.021163330078125,1.3181192874908447,-0.8048464059829712,-0.6089876294136047
1783246130315175200,2.031175048828125,1.4949009418487549,-0.8919147253036499,-0.807697594165802
1783246130325187300,2.041187255859375,1.6308197975158691,-0.9083147644996643,-0.9623119235038757
1783246130335199200,2.05119921875,1.742620587348938,-0.931022584438324,-1.056599736213684
1783246130345210400,2.06121044921875,1.7553356885910034,-1.1791263818740845,-1.010503888130188
1783246130355222300,2.07122216796875,1.541449785232544,-1.5245208740234375,-0.8136871457099915
1783246130365234400,2.081234375,1.254514455795288,-1.8516020774841309,-0.591600239276886
1783246130375246300,2.091246337890625,0.9059656262397766,-2.0254783630371094,-0.4589300751686096
1783246130385258500,2.101258544921875,0.6734764575958252,-1.9094892740249634,-0.45807304978370667
1783246130395269400,2.111269287109375,0.5670883655548096,-1.6331696510314941,-0.6411310434341431
1783246130405281300,2.12128125,0.5781559348106384,-1.260039210319519,-0.9480757713317871
1783246130415293200,2.131293212890625,0.647667407989502,-0.8309999108314514,-1.2818396091461182
1783246130425305300,2.141305419921875,0.7065658569335938,-0.4007430672645569,-1.5600637197494507
1783246130435316200,2.151316162109375,0.720973014831543,-0.06844990700483322,-1.716694712638855
1783246130445328100,2.161328125,0.7067615389823914,0.18712274730205536,-1.7505626678466797
1783246130455340300,2.17134033203125,0.6759980320930481,0.2796236574649811,-1.6859431266784668
1783246130465352200,2.181352294921875,0.6418190598487854,0.23276293277740479,-1.5092003345489502
1783246130475364400,2.1913642578125,0.6092259883880615,0.1628795564174652,-1.2337367534637451
1783246130485375500,2.20137548828125,0.5780225396156311,0.08643538504838943,-0.9434018731117249
1783246130495387400,2.211387451171875,0.579278290271759,0.11486942321062088,-0.7208059430122375
1783246130505399300,2.2213994140625,0.6564888954162598,0.256296843290329,-0.6278395056724548
1783246130515411500,2.231411376953125,0.784763514995575,0.4758763313293457,-0.684803307056427
1783246130525423400,2.24142333984375,0.8588343262672424,0.6219052076339722,-0.8539811372756958
1783246130535434200,2.251434326171875,0.7869080901145935,0.5748803019523621,-1.0142009258270264
1783246130545446400,2.2614462890625,0.6568888425827026,0.45912763476371765,-0.9415660500526428
1783246130555458300,2.271458251953125,0.5771211385726929,0.37912747263908386,-0.5684409141540527
1783246130565470200,2.28147021484375,0.5288862586021423,0.3797812759876251,0.08907277882099152
1783246130575481300,2.2914814453125,0.495888352394104,0.6298776865005493,0.9142176508903503
1783246130585493200,2.3014931640625,0.4397433400154114,1.2427030801773071,1.6333051919937134
1783246130595505200,2.311505126953125,0.3216583728790283,1.902360439300537,1.9605870246887207
1783246130605517300,2.321517333984375,0.2636246383190155,2.3795688152313232,1.9921939373016357
1783246130615529200,2.331529296875,0.3176526427268982,2.0885426998138428,1.9091542959213257
1783246130625540400,2.341540283203125,0.289275586605072,1.1846141815185547,1.8287113904953003
1783246130635552500,2.351552490234375,0.1269329935312271,0.3843311071395874,1.7438645362854004
1783246130645564400,2.361564453125,-0.03333444148302078,-0.0864310935139656,1.5079166889190674
1783246130655576300,2.371576416015625,-0.1177036315202713,-0.364595890045166,1.2108142375946045
1783246130665588500,2.38158837890625,-0.1053905114531517,-0.4324180781841278,0.9128384590148926
1783246130675599400,2.391599365234375,-0.09092769026756287,-0.4002143144607544,0.6863614916801453
1783246130685611300,2.401611328125,-0.16431748867034912,-0.3746357262134552,0.5642099976539612
1783246130695623400,2.41162353515625,-0.29619261622428894,-0.3489002287387848,0.5216377973556519
1783246130705635300,2.42163525390625,-0.3894607722759247,-0.3953321576118469,0.49356991052627563
1783246130715646200,2.431646240234375,-0.44740551710128784,-0.53911292552948,0.5110233426094055
1783246130725658400,2.441658447265625,-0.5305073857307434,-0.7455694675445557,0.6113547682762146
1783246130735670300,2.451670166015625,-0.5855151414871216,-0.9803712368011475,0.7477361559867859
1783246130745682200,2.46168212890625,-0.5697785019874573,-1.2014845609664917,0.8326499462127686
1783246130755694300,2.4716943359375,-0.47966068983078003,-1.3069976568222046,0.8659355640411377
1783246130765705500,2.48170556640625,-0.3756546676158905,-1.109206199645996,0.8819752931594849
1783246130775717400,2.49171728515625,-0.3666762113571167,-0.6564067006111145,0.9037063121795654
1783246130785729500,2.5017294921875,-0.4738500714302063,-0.20940740406513214,0.9360410571098328
1783246130795741400,2.511741455078125,-0.6086511015892029,0.0818781852722168,0.9484369158744812
1783246130805753300,2.52175341796875,-0.7372948527336121,0.138440802693367,0.9001173377037048
1783246130815764500,2.531764404296875,-0.9018035531044006,-0.01646937057375908,0.7500980496406555
1783246130825776400,2.5417763671875,-1.0370967388153076,-0.29180267453193665,0.468156099319458
1783246130835788300,2.551788330078125,-1.0832644701004028,-0.5673711895942688,0.04500454664230347
1783246130845800400,2.561800537109375,-1.0413870811462402,-0.7369069457054138,-0.3856664001941681
1783246130855811300,2.571811279296875,-0.9336143136024475,-0.7954347729682922,-0.6919845938682556
1783246130865823200,2.5818232421875,-0.8028304576873779,-0.7703019976615906,-0.8556302189826965
1783246130875835400,2.59183544921875,-0.6951974630355835,-0.7208867073059082,-0.9130398035049438
1783246130885847300,2.601847412109375,-0.6142860651016235,-0.6768044829368591,-0.8874108791351318
1783246130895859200,2.611859130859375,-0.5317747592926025,-0.6309645771980286,-0.8220171928405762
1783246130905870300,2.621870361328125,-0.4223257601261139,-0.5734096765518188,-0.7680982947349548
1783246130915882200,2.63188232421875,-0.2928604483604431,-0.4677799344062805,-0.7568764090538025
1783246130925894100,2.64189404296875,-0.15151555836200714,-0.3310149013996124,-0.7908884286880493
1783246130935906300,2.65190625,0.016747312620282173,-0.25390589237213135,-0.8829987645149231
1783246130945918200,2.661918212890625,0.17330336570739746,-0.18384531140327454,-1.0067065954208374
1783246130955929300,2.671929443359375,0.31038859486579895,-0.11719139665365219,-1.1332714557647705
1783246130965941500,2.68194140625,0.45441100001335144,-0.02048562653362751,-1.2473479509353638
1783246130975953400,2.691953369140625,0.5645223259925842,0.16621309518814087,-1.3306292295455933
1783246130985965300,2.70196533203125,0.5942908525466919,0.32607465982437134,-1.3394248485565186
1783246130995976400,2.7119765625,0.5785340070724487,0.4258790910243988,-1.2165683507919312
1783246131005988400,2.72198828125,0.5611268281936646,0.42161428928375244,-0.9737542271614075
1783246131016000300,2.732000244140625,0.5840880274772644,0.31201961636543274,-0.6553837656974792
1783246131026012400,2.742012451171875,0.613551914691925,0.1940642148256302,-0.29874709248542786
1783246131036024300,2.7520244140625,0.6420378684997559,0.12473228573799133,0.05881207436323166
1783246131046035200,2.76203515625,0.649722695350647,0.10649069398641586,0.35236138105392456
1783246131056047400,2.77204736328125,0.5987263321876526,0.03954627737402916,0.5986875295639038
1783246131066059300,2.782059326171875,0.5189934372901917,-0.12513774633407593,0.8441678881645203
1783246131076071200,2.7920712890625,0.45987874269485474,-0.33129942417144775,1.086482286453247
1783246131086083300,2.802083251953125,0.41283348202705383,-0.4909053146839142,1.29868483543396
1783246131096094500,2.812094482421875,0.36249348521232605,-0.6015949249267578,1.4048402309417725
1783246131106106400,2.8221064453125,0.28429803252220154,-0.5588639974594116,1.3440266847610474
1783246131116118500,2.832118408203125,0.13251593708992004,-0.32524165511131287,1.1194905042648315
1783246131126130400,2.84213037109375,0.014432712458074093,-0.2103440910577774,0.753322184085846
1783246131136141300,2.852141357421875,0.004573133774101734,-0.1689053475856781,0.33036428689956665
1783246131146153200,2.8621533203125,0.04428938776254654,0.022603362798690796,-0.1464342176914215
1783246131156165400,2.872165283203125,0.021900493651628494,0.33723512291908264,-0.7748283743858337
1783246131166177300,2.88217724609375,-0.11989419162273407,0.8507580757141113,-1.4363517761230469
1783246131176189400,2.892189453125,-0.29924869537353516,1.646887183189392,-1.8016365766525269
1783246131186200300,2.902200439453125,-0.3460574746131897,2.021432399749756,-2.0399725437164307
1783246131196212200,2.912212158203125,-0.13668787479400635,1.6453773975372314,-2.5702648162841797
1783246131206224400,2.922224365234375,0.43522515892982483,1.0369547605514526,-2.9719700813293457
1783246131216236300,2.932236328125,0.8250316977500916,0.5625964403152466,-2.775305986404419
1783246131226248200,2.942248291015625,0.6626046895980835,0.425605833530426,-1.5827826261520386
1783246131236259300,2.95225927734375,0.3039592206478119,0.25058960914611816,-0.011404800228774548
1783246131246271500,2.962271484375,0.0385214239358902,0.1598551720380783,1.1509102582931519
1783246131256283400,2.972283447265625,-0.09808597713708878,0.17137381434440613,1.6919642686843872
1783246131266295600,2.982295654296875,-0.1115461215376854,0.17906635999679565,1.722766399383545
1783246131276306400,2.992306396484375,-0.04119892790913582,0.10659918934106827,1.38352632522583
1783246131286318300,3.002318359375,0.008482342585921288,0.0027319160290062428,0.8327164649963379
1783246131296330200,3.012330322265625,0.005493557546287775,-0.0614483468234539,0.15565530955791473
1783246131306342400,3.02234228515625,-0.040301624685525894,0.04138508811593056,-0.5251466631889343
1783246131316354300,3.032354248046875,-0.03115205653011799,0.26430872082710266,-1.0329965353012085
1783246131326366000,3.042365966796875,0.0828448235988617,0.4621213972568512,-1.2143000364303589
1783246131336377900,3.0523779296875,0.10744794458150864,0.900009036064148,-0.768186628818512
1783246131346389800,3.0623896484375,-0.11084950715303421,1.3452650308609009,0.09201940894126892
1783246131356402000,3.07240185546875,-0.3817860782146454,1.7115862369537354,1.082629680633545
1783246131366413800,3.082413818359375,-0.5257768034934998,1.862694263458252,2.0062663555145264
1783246131376424700,3.0924248046875,-0.4815434515476227,1.7432819604873657,2.8038759231567383
1783246131386436900,3.102436767578125,-0.23753932118415833,1.3698673248291016,3.4019947052001953
1783246131396448800,3.11244873046875,0.10975669324398041,0.7822433114051819,3.73635196685791
1783246131406460700,3.122460693359375,0.4400957226753235,0.15140356123447418,3.716839551925659
1783246131416471800,3.132471923828125,0.7394863963127136,-0.36990514397621155,3.3324942588806152
1783246131426484000,3.14248388671875,0.977807879447937,-0.7998456358909607,2.627012014389038
1783246131436496000,3.152495849609375,1.0942314863204956,-1.012915015220642,1.7830557823181152
1783246131446508000,3.162508056640625,1.0692683458328247,-1.012641191482544,0.9714084267616272
1783246131456520000,3.17252001953125,0.9234940409660339,-0.8645561933517456,0.32236915826797485
1783246131466530800,3.18253076171875,0.7110576629638672,-0.6427854299545288,-0.1570589244365692
1783246131476543000,3.19254296875,0.4732663929462433,-0.39093005657196045,-0.4542279541492462
1783246131486555000,3.202554931640625,0.28230923414230347,-0.11892303824424744,-0.560685932636261
1783246131496566800,3.21256689453125,0.17986683547496796,0.03481416031718254,-0.5178702473640442
1783246131506579000,3.222578857421875,0.14822103083133698,0.0272811446338892,-0.3560246229171753
1783246131516589800,3.23258984375,0.16279764473438263,-0.07153352349996567,-0.0987878069281578
1783246131526601700,3.242601806640625,0.2335439771413803,-0.2606717646121979,0.19432342052459717
1783246131536614000,3.25261376953125,0.3465838134288788,-0.45771199464797974,0.4693838655948639
1783246131546625800,3.262625732421875,0.507021427154541,-0.6256037950515747,0.6902585029602051
1783246131556637700,3.2726376953125,0.665952742099762,-0.7169414162635803,0.8220110535621643
1783246131566648800,3.28264892578125,0.7835627198219299,-0.6476401090621948,0.8747610449790955
1783246131576661000,3.292660888671875,0.8484717607498169,-0.4368641972541809,0.8804806470870972
1783246131586673000,3.3026728515625,0.8538981676101685,-0.2309536635875702,0.8822636604309082
1783246131596685000,3.31268505859375,0.8382458686828613,-0.15835386514663696,0.8996251821517944
1783246131606696000,3.322696044921875,0.7437803745269775,-0.21062053740024567,0.8974426984786987
1783246131616707800,3.332707763671875,0.5599578619003296,-0.2844342291355133,0.8731198906898499
1783246131626719700,3.3427197265625,0.3253847658634186,-0.2445712387561798,0.848598837852478
1783246131636732000,3.35273193359375,0.04792536422610283,-0.05580782890319824,0.872228741645813
1783246131646743800,3.362743896484375,-0.3387616276741028,0.11521291732788086,0.9662729501724243
1783246131656754700,3.372754638671875,-0.46324390172958374,0.2671630382537842,0.9222404956817627
1783246131666766800,3.382766845703125,-0.3197666108608246,0.539901614189148,0.6741809248924255
1783246131676778800,3.39277880859375,-0.1645462065935135,0.7032585144042969,0.424418181180954
1783246131686791000,3.402791015625,-0.18176114559173584,0.731192409992218,0.2832099199295044
1783246131696801800,3.4128017578125,-0.30863112211227417,0.5103724598884583,0.36930206418037415
1783246131706813700,3.422813720703125,-0.2431115210056305,0.1666918247938156,0.5413097739219666
1783246131716825600,3.43282568359375,0.06846518069505692,0.3782055675983429,0.566677987575531
1783246131726837800,3.442837646484375,0.3176182806491852,0.8713960647583008,0.45773446559906006
1783246131736849700,3.452849609375,0.33979642391204834,1.204585075378418,0.1032295897603035
1783246131746860800,3.46286083984375,0.3303121030330658,1.028312087059021,-0.21495211124420166
1783246131756873000,3.472873046875,0.5322820544242859,0.7691138982772827,-0.4441964328289032
1783246131766884900,3.482884765625,0.9639407992362976,0.7677817940711975,-0.692310094833374
1783246131776896800,3.492896728515625,1.367466926574707,0.6448976397514343,-0.8309335708618164
1783246131786909000,3.502908935546875,1.7085456848144531,0.18677696585655212,-0.8705382347106934
1783246131796919800,3.512919921875,1.778867244720459,-0.3363812267780304,-0.5911684632301331
1783246131806931700,3.522931640625,1.5534077882766724,-0.6810019612312317,-0.045861728489398956
1783246131816943900,3.53294384765625,1.4325523376464844,-0.8794280290603638,0.42316552996635437
1783246131826955800,3.542955810546875,1.5232139825820923,-0.9416980743408203,0.599488377571106
1783246131836968000,3.552968017578125,1.618972897529602,-0.752568244934082,0.6603770852088928
1783246131846978800,3.562978759765625,1.6258769035339355,-0.5316339731216431,0.7742080092430115
1783246131856990700,3.57299072265625,1.57607901096344,-0.3814406991004944,0.9200462698936462
1783246131867002600,3.583002685546875,1.4392417669296265,-0.17301024496555328,0.960856020450592
1783246131877014800,3.593014892578125,1.2438138723373413,0.03428344801068306,0.7920310497283936
1783246131887026000,3.60302587890625,0.900431215763092,0.06755539029836655,0.5010913610458374
1783246131897037800,3.613037841796875,0.483854204416275,-0.0934489443898201,0.20076029002666473
1783246131907050000,3.623050048828125,0.09443908929824829,-0.38144105672836304,-0.05213215574622154
1783246131917062000,3.633061767578125,-0.1676630973815918,-0.6647883653640747,-0.22447463870048523
1783246131927073800,3.64307373046875,-0.27650943398475647,-0.892211377620697,-0.328016459941864
1783246131937085000,3.6530849609375,-0.2907729148864746,-0.993355393409729,-0.30865249037742615
1783246131947096800,3.663096923828125,-0.22233790159225464,-0.9474108219146729,-0.1532818228006363
1783246131957108700,3.673108642578125,-0.16334384679794312,-0.9773082733154297,0.06551145762205124
1783246131967121000,3.683120849609375,-0.15746945142745972,-1.0462309122085571,0.24661387503147125
1783246131977132800,3.6931328125,-0.15455619990825653,-1.0858768224716187,0.3200605809688568
1783246131987143700,3.703143798828125,-0.1372416615486145,-1.0217785835266113,0.2676149606704712
1783246131997155800,3.71315576171875,-0.14204153418540955,-0.8458741307258606,0.11232385039329529
1783246132007167700,3.723167724609375,-0.13421796262264252,-0.6172539591789246,-0.12672148644924164
1783246132017179600,3.7331796875,-0.04773733392357826,-0.37216323614120483,-0.4376518726348877
1783246132027191800,3.74319189453125,0.10449773818254471,-0.0853213518857956,-0.7592131495475769
1783246132037203000,3.753202880859375,0.210783451795578,0.11856626719236374,-0.9873912334442139
1783246132047214800,3.76321484375,0.25371572375297546,0.26229628920555115,-1.050066351890564
1783246132057227000,3.77322705078125,0.29315316677093506,0.2960047721862793,-1.0379971265792847
1783246132067239000,3.783239013671875,0.3369262218475342,0.23210512101650238,-1.0258698463439941
1783246132077249800,3.793249755859375,0.4007978141307831,0.12372720241546631,-1.043531060218811
1783246132087262000,3.803261962890625,0.48204952478408813,0.03234988451004028,-1.1045891046524048
1783246132097273900,3.81327392578125,0.5616305470466614,-0.12368834763765335,-1.1863867044448853
1783246132107285800,3.82328564453125,0.6418673396110535,-0.3099551498889923,-1.2268768548965454
1783246132117298000,3.8332978515625,0.7164647579193115,-0.45895346999168396,-1.166361927986145
1783246132127308800,3.843308837890625,0.7662914395332336,-0.5107250809669495,-1.015507698059082
1783246132137320700,3.85332080078125,0.7902170419692993,-0.4195559620857239,-0.820795476436615
1783246132147332900,3.863332763671875,0.8281218409538269,-0.21927106380462646,-0.5925812125205994
1783246132157344800,3.8733447265625,0.9139392971992493,0.0006826105527579784,-0.37915197014808655
1783246132167355600,3.883355712890625,1.004082202911377,0.18425242602825165,-0.22686150670051575
1783246132177367800,3.893367919921875,1.0079429149627686,0.3329658508300781,-0.09460970014333725
1783246132187379700,3.903379638671875,0.9598965048789978,0.4705929458141327,0.05510682240128517
1783246132197392000,3.913391845703125,0.8656986355781555,0.5587750673294067,0.22787059843540192
1783246132207403800,3.92340380859375,0.7071689367294312,0.6119291186332703,0.3860333263874054
1783246132217415000,3.933414794921875,0.5099495649337769,0.6911553740501404,0.5287374258041382
1783246132227426800,3.9434267578125,0.2682117223739624,0.6793330907821655,0.6636523604393005
1783246132237439000,3.95343896484375,-0.03880339115858078,0.5651342868804932,0.7832746505737305
1783246132247451000,3.963450927734375,-0.3035748600959778,0.5179188251495361,0.8916791677474976
1783246132257462800,3.973462890625,-0.30736836791038513,0.5363816022872925,1.0042140483856201
1783246132267474000,3.983473876953125,-0.0283199455589056,0.7894506454467773,1.1481465101242065
1783246132277485800,3.99348583984375,0.2777026295661926,1.2542964220046997,1.383352279663086
1783246132287497700,4.003497802734375,0.3275761902332306,1.7262983322143555,1.6615164279937744
1783246132297510000,4.013510009765625,-0.020624712109565735,1.999895691871643,1.8964362144470215
1783246132307521800,4.023521728515625,-0.44017964601516724,1.7145047187805176,1.8858219385147095
1783246132317532700,4.03353271484375,-0.361887663602829,0.9989054799079895,1.582883596420288
1783246132327544800,4.043544921875,0.1943787783384323,0.040400516241788864,1.210806131362915
1783246132337556700,4.053556640625,0.8682286143302917,-1.195961594581604,1.0543392896652222
1783246132347569000,4.06356884765625,1.3356086015701294,-2.406956195831299,1.3238639831542969
1783246132357580000,4.073580078125,1.4052050113677979,-3.184945583343506,1.9429144859313965
1783246132367592000,4.083592041015625,0.8665799498558044,-2.879697561264038,2.6334381103515625
1783246132377604000,4.09360400390625,-0.009212116710841656,-1.4764440059661865,2.9652509689331055
1783246132387616000,4.103615966796875,-0.6219157576560974,0.13330493867397308,2.6364822387695312
1783246132397628200,4.113628173828125,-0.9239150285720825,1.2618958950042725,1.8622549772262573
1783246132407639000,4.12363916015625,-1.1273504495620728,1.665031909942627,1.0916876792907715
1783246132417651000,4.13365087890625,-1.3415061235427856,1.4501901865005493,0.5969601273536682
1783246132427662800,4.143662841796875,-1.5483007431030273,0.7339122295379639,0.4379222095012665
1783246132437675000,4.153675048828125,-1.7396000623703003,-0.30599716305732727,0.5064914226531982
1783246132447687000,4.16368701171875,-1.8786298036575317,-1.269609808921814,0.6204156279563904
1783246132457697800,4.17369775390625,-1.9051977396011353,-1.7676987648010254,0.6760024428367615
1783246132467710000,4.1837099609375,-1.6978402137756348,-1.6860969066619873,0.6301015019416809
1783246132477721900,4.193721923828125,-1.3571666479110718,-1.1315456628799438,0.48339009284973145
1783246132487733800,4.203733642578125,-1.0898497104644775,-0.5581135153770447,0.39980465173721313
1783246132497745200,4.2137451171875,-0.946487307548523,-0.22973281145095825,0.40709272027015686
1783246132507757000,4.223757080078125,-0.8581436276435852,-0.1372942179441452,0.4454723298549652
1783246132517769000,4.23376904296875,-0.8379252552986145,-0.08603034168481827,0.5064863562583923
1783246132527781000,4.243781005859375,-0.858883798122406,-0.014127122238278389,0.568520188331604
1783246132537793000,4.25379296875,-0.8663275241851807,0.07508589327335358,0.5654013752937317
1783246132547804000,4.263803955078125,-0.8456501960754395,0.21970407664775848,0.4690468907356262
1783246132557816000,4.273816162109375,-0.7964385747909546,0.42805051803588867,0.27640464901924133
1783246132567828000,4.283827880859375,-0.7403577566146851,0.7479161024093628,-0.024250540882349014
1783246132577839900,4.29383984375,-0.6933385133743286,1.2014808654785156,-0.424978107213974
1783246132587852000,4.30385205078125,-0.6360270380973816,1.6429933309555054,-0.8962305784225464
1783246132597863000,4.31386279296875,-0.5953056812286377,1.8372375965118408,-1.320862889289856
1783246132607874800,4.323874755859375,-0.6768349409103394,1.7750052213668823,-1.610848307609558
1783246132617887000,4.333886962890625,-0.8217872977256775,1.6421973705291748,-1.716132402420044
1783246132627899000,4.34389892578125,-0.9899198412895203,1.506479263305664,-1.7238558530807495
1783246132637910800,4.353910888671875,-1.191413164138794,1.4295367002487183,-1.664089560508728
1783246132647922000,4.363921875,-1.3606765270233154,1.448469638824463,-1.6177328824996948
1783246132657933800,4.373933837890625,-1.338563084602356,1.498892903327942,-1.6231640577316284
1783246132667946000,4.383946044921875,-1.1561570167541504,1.5149617195129395,-1.6429364681243896
1783246132677958000,4.3939580078125,-0.8859250545501709,1.5338571071624756,-1.5431426763534546
1783246132687969000,4.403968994140625,-0.5739098787307739,1.481013536453247,-1.3193113803863525
1783246132697981000,4.41398095703125,-0.33315160870552063,1.1935313940048218,-1.0063655376434326
1783246132707993000,4.4239931640625,-0.23576514422893524,0.8496158123016357,-0.6395826935768127
1783246132718005000,4.4340048828125,-0.27943432331085205,0.5034741759300232,-0.28647348284721375
1783246132728017000,4.444016845703125,-0.4379318356513977,0.14271090924739838,-0.022845037281513214
1783246132738028000,4.454028076171875,-0.6417458057403564,-0.09822595864534378,0.15412813425064087
1783246132748040000,4.4640400390625,-0.7773507833480835,-0.36247119307518005,0.28843507170677185
1783246132758051800,4.4740517578125,-0.7246029376983643,-0.5155196785926819,0.42459532618522644
1783246132768064000,4.48406396484375,-0.5474861860275269,-0.5347192287445068,0.6263785362243652
1783246132778076000,4.494075927734375,-0.21383006870746613,-0.813387393951416,0.8523241877555847
1783246132788086800,4.504086669921875,0.08497527241706848,-0.9343204498291016,1.2124611139297485
1783246132798099000,4.514098876953125,0.26053497195243835,-1.177801489830017,1.6229019165039062
1783246132808110800,4.52411083984375,0.1550000011920929,-1.665576696395874,1.9771243333816528
1783246132818122800,4.534122802734375,-0.22308140993118286,-1.950522780418396,2.287071704864502
1783246132828134100,4.544134033203125,-0.6412443518638611,-1.6002625226974487,2.738431453704834
1783246132838146000,4.55414599609375,-0.97097247838974,-1.0174211263656616,3.246695041656494
1783246132848158000,4.564157958984375,-1.1884264945983887,-0.36148908734321594,3.5685300827026367
1783246132858170000,4.574170166015625,-1.2278436422348022,-0.34300529956817627,3.382723569869995
1783246132868182000,4.58418212890625,-1.1016937494277954,-1.2660901546478271,2.52984881401062
1783246132878193000,4.59419287109375,-1.121240496635437,-1.3910870552062988,1.696621298789978
1783246132888205000,4.604205078125,-1.0534121990203857,-0.8762085437774658,1.1220383644104004
1783246132898217000,4.614217041015625,-0.7527685165405273,-0.25146642327308655,0.9166973829269409
1783246132908228900,4.624228759765625,-0.7177996039390564,0.5358971357345581,1.0432502031326294
1783246132918241000,4.634240966796875,-0.8371818661689758,1.4321882724761963,1.2664551734924316
1783246132928252000,4.644251953125,-0.8642707467079163,2.3862950801849365,1.3369886875152588
1783246132938263800,4.654263916015625,-0.7326246500015259,2.8627350330352783,1.11509108543396
1783246132948276000,4.66427587890625,-0.6137965321540833,2.864912986755371,0.5929930210113525
1783246132958288000,4.674287841796875,-0.6196402311325073,2.513091564178467,-0.057878442108631134
1783246132968299000,4.684299072265625,-0.7430745959281921,1.749611735343933,-0.6673151850700378
1783246132978311200,4.694311279296875,-0.9660792946815491,0.3031703531742096,-1.3287400007247925
1783246132988323000,4.704322998046875,-1.3744547367095947,-1.3926126956939697,-2.033287286758423
1783246132998335000,4.7143349609375,-1.8333191871643066,-2.2830522060394287,-2.4635770320892334
1783246133008347100,4.72434716796875,-1.9155453443527222,-1.6668405532836914,-2.481182098388672
1783246133018358000,4.73435791015625,-1.6233617067337036,0.08984146267175674,-2.2841169834136963
1783246133028370000,4.744369873046875,-1.3429228067398071,1.8316795825958252,-2.0717685222625732
1783246133038382000,4.754382080078125,-1.279112458229065,2.6587016582489014,-1.9852070808410645
1783246133048394000,4.76439404296875,-1.4338778257369995,2.566465377807617,-1.9765020608901978
1783246133058406000,4.774406005859375,-1.6292188167572021,1.863939642906189,-1.938031554222107
1783246133068417000,4.7844169921875,-1.7459502220153809,0.9934127330780029,-1.8276690244674683
1783246133078429000,4.794428955078125,-1.7035616636276245,0.2074064463376999,-1.7427000999450684
1783246133088440800,4.80444091796875,-1.5340349674224854,-0.352212131023407,-1.7403531074523926
1783246133098453000,4.814452880859375,-1.4422765970230103,-0.7234163284301758,-1.725645899772644
1783246133108465000,4.82446484375,-1.4523379802703857,-0.8868542313575745,-1.746807336807251
1783246133118476000,4.83447607421875,-1.4834184646606445,-0.7683318853378296,-1.8622874021530151
1783246133128488000,4.844488037109375,-1.5378936529159546,-0.5778048634529114,-1.926265835762024
1783246133138500000,4.8545,-1.6266618967056274,-0.523364245891571,-1.8614141941070557
1783246133148512000,4.864511962890625,-1.5970553159713745,-0.7262411713600159,-1.6180238723754883
1783246133158523000,4.87452294921875,-1.4449372291564941,-1.2017366886138916,-1.198612928390503
1783246133168535000,4.88453515625,-1.300371527671814,-1.6261987686157227,-0.7781088352203369
1783246133178547000,4.894546875,-1.1800436973571777,-1.8193132877349854,-0.4865959882736206
1783246133188559000,4.90455908203125,-0.9177510142326355,-1.7331736087799072,-0.4880458116531372
1783246133198571000,4.914571044921875,-0.7425300478935242,-1.5710886716842651,-0.7269022464752197
1783246133208582000,4.924581787109375,-0.7148441076278687,-1.2994738817214966,-0.8346734642982483
1783246133218594000,4.934593994140625,-0.7924699783325195,-1.130490779876709,-0.699209988117218
1783246133228606000,4.94460595703125,-0.8882814645767212,-0.9526928663253784,-0.4035612940788269
1783246133238617900,4.954617919921875,-1.0282231569290161,-0.7088737487792969,-0.2574723958969116
1783246133248630000,4.964630126953125,-1.018958568572998,-0.5971531271934509,-0.19277037680149078
1783246133258641000,4.974640869140625,-0.9937245845794678,-0.583611786365509,-0.20237191021442413
1783246133268652800,4.98465283203125,-0.9552909135818481,-0.6488967537879944,-0.1581629067659378
1783246133278665000,4.9946650390625,-0.872714638710022,-0.828279972076416,0.05369892343878746
1783246133288676900,5.0046767578125,-0.8246613144874573,-0.9578863978385925,0.3671873211860657
1783246133298688000,5.01468798828125,-0.8378918170928955,-0.9796860814094543,0.7391387224197388
1783246133308700000,5.024699951171875,-0.845254123210907,-0.9890601634979248,1.1189284324645996
1783246133318712000,5.034712158203125,-0.8513361811637878,-0.8143402934074402,1.4042413234710693
1783246133328723500,5.044723388671875,-0.8223934769630432,-0.5870940685272217,1.5432071685791016
1783246133338735400,5.0547353515625,-0.8433102369308472,-0.43369248509407043,1.5422176122665405
1783246133348746200,5.064746337890625,-0.9517014026641846,-0.028322353959083557,1.464476227760315
1783246133358758400,5.07475830078125,-0.9110520482063293,0.14718709886074066,1.3680123090744019
1783246133368770300,5.084770263671875,-0.7743874192237854,0.021357528865337372,1.210336685180664
1783246133378782200,5.0947822265625,-0.7258405089378357,0.3598845601081848,1.2947791814804077
1783246133388794400,5.10479443359375,-0.502032458782196,0.8887081742286682,1.253126859664917
1783246133398805500,5.114805419921875,-0.16676998138427734,1.4951742887496948,1.0719618797302246
1783246133408817400,5.1248173828125,0.06918103247880936,1.8909798860549927,0.8920672535896301
1783246133418829600,5.13482958984375,0.1672874093055725,1.953188419342041,0.5250658988952637
1783246133428841500,5.144841552734375,0.05254564434289932,0.9030464887619019,-0.19535435736179352
1783246133438852400,5.154852294921875,-0.1823892593383789,-0.043356165289878845,-0.751369833946228
1783246133448864300,5.1648642578125,-0.432162344455719,-0.10057578235864639,-0.8806122541427612
1783246133458876400,5.17487646484375,-0.6020299792289734,0.17724251747131348,-0.6377024054527283
1783246133468888300,5.184888427734375,-0.8022461533546448,0.46726447343826294,-0.10296680778265
1783246133478900500,5.194900390625,-1.116613745689392,0.5361958146095276,0.4851589798927307
1783246133488911400,5.204911376953125,-1.3522117137908936,0.32081344723701477,0.9329692721366882
1783246133498923300,5.21492333984375,-1.4107120037078857,-0.003741856664419174,1.1061831712722778
1783246133508935200,5.22493505859375,-1.2294394969940186,0.05782350152730942,1.0064823627471924
1783246133518947300,5.234947265625,-0.8337326645851135,0.3131263256072998,0.725384533405304
1783246133528959200,5.244959228515625,-0.41152310371398926,0.32845279574394226,0.38253262639045715
1783246133538970000,5.25497021484375,-0.08274741470813751,0.3298881947994232,0.22395291924476624
1783246133548982300,5.264982177734375,0.09106326103210449,0.14151696860790253,0.23310460150241852
1783246133558994200,5.274994140625,0.19559180736541748,-0.14036825299263,0.20821739733219147
1783246133569006300,5.28500634765625,0.15345235168933868,-0.3790527284145355,-0.00015017949044704437
1783246133579018200,5.295018310546875,-0.1333715319633484,-0.607658863067627,-0.37610048055648804
1783246133589029400,5.305029296875,-0.5951274633407593,-0.8831865787506104,-0.7976500988006592
1783246133599041300,5.315041259765625,-1.056176781654358,-1.1719157695770264,-1.2410712242126465
1783246133609053400,5.325053466796875,-1.3339585065841675,-1.2021812200546265,-1.6874029636383057
1783246133619065300,5.3350654296875,-1.4741473197937012,-0.8271747827529907,-2.107056140899658
1783246133629076200,5.345076171875,-1.6035913228988647,-0.24394945800304413,-2.496232748031616
1783246133639088400,5.35508837890625,-1.7948088645935059,0.2837997078895569,-2.8129029273986816
1783246133649100300,5.365100341796875,-1.9752933979034424,0.5136445760726929,-2.960052967071533
1783246133659112200,5.3751123046875,-2.1215577125549316,0.29033800959587097,-2.855102777481079
1783246133669124400,5.385124267578125,-2.1837685108184814,-0.2223103642463684,-2.4787139892578125
1783246133679135200,5.39513525390625,-2.0951356887817383,-0.8433961272239685,-1.9159212112426758
1783246133689147100,5.405147216796875,-1.8180125951766968,-1.2731081247329712,-1.314500093460083
1783246133699159300,5.4151591796875,-1.5784988403320312,-1.4331815242767334,-0.928464412689209
1783246133709171200,5.425171142578125,-1.5030163526535034,-1.5417336225509644,-0.9080515503883362
1783246133719183400,5.435183349609375,-1.4915813207626343,-1.2092621326446533,-1.1200194358825684
1783246133729194500,5.445194580078125,-1.3808228969573975,-0.46873506903648376,-1.4304548501968384
1783246133739206400,5.455206298828125,-1.1613011360168457,0.12329944968223572,-1.6151375770568848
1783246133749218300,5.46521826171875,-0.9532153606414795,0.3382072150707245,-1.507980227470398
1783246133759230500,5.47523046875,-0.8260237574577332,0.2859009802341461,-1.0907280445098877
1783246133769241300,5.485241455078125,-0.8176068663597107,0.08476573973894119,-0.5085575580596924
1783246133779253200,5.495253173828125,-0.9120219349861145,-0.1024424359202385,0.06554867327213287
1783246133789265400,5.505265380859375,-0.9924843311309814,-0.23798589408397675,0.5515329241752625
1783246133799277300,5.51527734375,-1.0135091543197632,-0.2976522147655487,0.8879343867301941
1783246133809289200,5.525289306640625,-0.9974093437194824,-0.2582837641239166,1.044175624847412
1783246133819300400,5.53530029296875,-0.9454994797706604,-0.09348244965076447,1.081379771232605
1783246133829312300,5.545312255859375,-0.917811930179596,0.08097590506076813,1.0475519895553589
1783246133839324200,5.55532421875,-0.9176089763641357,0.21841147541999817,0.9566559195518494
1783246133849336300,5.56533642578125,-0.9068359732627869,0.3159968852996826,0.7999235391616821
1783246133859348200,5.57534814453125,-0.8882729411125183,0.4079526364803314,0.5931354761123657
1783246133869359400,5.585359375,-0.8814009428024292,0.46215540170669556,0.33909285068511963
1783246133879371500,5.59537158203125,-0.8925431966781616,0.44038310647010803,0.1108262836933136
1783246133889383400,5.605383544921875,-0.9287816286087036,0.2641066312789917,0.018286757171154022
1783246133899395300,5.615395263671875,-0.9734053611755371,-0.04847342520952225,0.09740535914897919
1783246133909406500,5.625406494140625,-0.9731934070587158,-0.27656570076942444,0.2990679144859314
1783246133919418400,5.63541845703125,-0.914023756980896,-0.3091886639595032,0.570659339427948
1783246133929430300,5.64543017578125,-0.7522684335708618,-0.13676705956459045,0.8654576539993286
1783246133939442400,5.6554423828125,-0.5591030120849609,0.15620002150535583,1.1908389329910278
1783246133949454300,5.665454345703125,-0.43985041975975037,0.22742094099521637,1.5217289924621582
1783246133959465200,5.67546533203125,-0.4939328134059906,-0.02034437656402588,1.8454337120056152
1783246133969477400,5.685477294921875,-0.7149277925491333,-0.29761621356010437,2.074451446533203
1783246133979489300,5.6954892578125,-0.9500380754470825,-0.4030454158782959,2.094984769821167
1783246133989501200,5.705501220703125,-1.025638222694397,-0.333888441324234,1.8735839128494263
1783246133999513300,5.715513427734375,-0.9059798717498779,-0.1671305149793625,1.4235455989837646
1783246134009524200,5.725524169921875,-0.7025745511054993,0.08648177981376648,0.8853577971458435
1783246134019536400,5.735536376953125,-0.5480661988258362,0.40800127387046814,0.5382692217826843
1783246134029548300,5.74554833984375,-0.5825546979904175,0.6717426180839539,0.4850398302078247
1783246134039560200,5.755560302734375,-0.813025712966919,0.6374128460884094,0.6181748509407043
1783246134049571300,5.7655712890625,-1.1371170282363892,0.5377799868583679,0.8954581022262573
1783246134059583500,5.77558349609375,-1.4574693441390991,0.28139543533325195,1.2862423658370972
1783246134069595400,5.785595458984375,-1.5811114311218262,-0.2264976054430008,1.6802316904067993
1783246134079607300,5.795607177734375,-1.3923801183700562,-0.7682780027389526,1.9754974842071533
1783246134089619500,5.805619384765625,-0.9693292379379272,-1.228737235069275,1.9802165031433105
1783246134099630300,5.81563037109375,-0.4854108393192291,-1.4709718227386475,1.7139993906021118
1783246134109642200,5.825642333984375,-0.17453177273273468,-1.5571091175079346,1.2652299404144287
1783246134119654400,5.835654296875,-0.1342371255159378,-1.594751000404358,0.6661290526390076
1783246134129666300,5.845666259765625,-0.3251740634441376,-1.713405728340149,-0.0865873470902443
1783246134139678200,5.85567822265625,-0.6912140250205994,-1.6617523431777954,-0.8049909472465515
1783246134149689300,5.865689453125,-1.0121784210205078,-1.3847646713256836,-1.3131115436553955
1783246134159701200,5.875701171875,-1.1602060794830322,-1.1198903322219849,-1.5539864301681519
1783246134169713200,5.885713134765625,-1.2418290376663208,-0.9122268557548523,-1.4666228294372559
1783246134179725300,5.895725341796875,-1.3168193101882935,-0.9321359395980835,-1.1593512296676636
1783246134189736400,5.905736328125,-1.3460211753845215,-1.2660439014434814,-0.8272928595542908
1783246134199748400,5.915748291015625,-1.3102680444717407,-1.687424898147583,-0.6457599997520447
1783246134209760500,5.925760498046875,-1.2678266763687134,-2.0034615993499756,-0.7441496849060059
1783246134219772400,5.9357724609375,-1.2160518169403076,-1.984891653060913,-1.1184989213943481
1783246134229784300,5.945784423828125,-1.144937515258789,-1.5770748853683472,-1.6542960405349731
1783246134239795500,5.95579541015625,-1.12078857421875,-0.9937021732330322,-2.1411592960357666
1783246134249807400,5.965807373046875,-1.2129735946655273,-0.7013693451881409,-2.373047113418579
1783246134259819300,5.9758193359375,-1.331778645515442,-0.7617477774620056,-2.221536636352539
1783246134269831400,5.98583154296875,-1.4340131282806396,-0.9752224683761597,-1.8317782878875732
1783246134279843300,5.99584326171875,-1.4638962745666504,-1.1079771518707275,-1.4203600883483887
1783246134289854200,6.005854248046875,-1.4279568195343018,-1.046140193939209,-1.0414202213287354
1783246134299866400,6.015866455078125,-1.3559417724609375,-0.8952773213386536,-0.6818603873252869
1783246134309878300,6.025878173828125,-1.2844233512878418,-0.7471200823783875,-0.33884233236312866
1783246134319890200,6.03589013671875,-1.2045718431472778,-0.5873357057571411,-0.07137469202280045
1783246134329901600,6.045901611328125,-1.1334688663482666,-0.49544522166252136,0.09612295776605606
1783246134339913700,6.055913818359375,-1.0952811241149902,-0.46975669264793396,0.20406681299209595
1783246134349925600,6.065925537109375,-1.0894291400909424,-0.4814003109931946,0.2858538329601288
1783246134359937800,6.075937744140625,-1.1294503211975098,-0.5352228283882141,0.3514900207519531
1783246134369949700,6.08594970703125,-1.217598557472229,-0.6930111646652222,0.37881138920783997
1783246134379960800,6.0959609375,-1.3490351438522339,-0.918971598148346,0.32730600237846375
1783246134389972700,6.10597265625,-1.4598439931869507,-1.0418418645858765,0.1079997569322586
1783246134399985000,6.11598486328125,-1.459814190864563,-0.9608983397483826,-0.2812618017196655
1783246134409996800,6.125996826171875,-1.366798996925354,-0.7392615079879761,-0.7439407706260681
1783246134420008700,6.1360087890625,-1.266387701034546,-0.4871506989002228,-1.151034951210022
1783246134430019800,6.146019775390625,-1.1870044469833374,-0.24767287075519562,-1.4388046264648438
1783246134440031700,6.15603173828125,-1.1132736206054688,-0.0674133449792862,-1.5645054578781128
1783246134450043600,6.166043701171875,-1.0248819589614868,0.07737446576356888,-1.5096213817596436
1783246134460055800,6.176055908203125,-0.9144309163093567,0.2513829171657562,-1.1860135793685913
1783246134470067700,6.186067626953125,-0.7796834707260132,0.3379580080509186,-0.5585723519325256
1783246134480078600,6.19607861328125,-0.754389226436615,0.19378544390201569,0.23954738676548004
1783246134490090800,6.2060908203125,-0.8473977446556091,0.05158888176083565,1.032517433166504
1783246134500102700,6.2161025390625,-0.9676284790039062,-0.019161667674779892,1.5885792970657349
1783246134510114600,6.226114501953125,-1.0451664924621582,0.07980991899967194,1.8354806900024414
1783246134520126000,6.2361259765625,-1.0474283695220947,0.32892394065856934,1.8011735677719116
1783246134530137900,6.246137939453125,-0.9903883337974548,0.5518398284912109,1.5498327016830444
1783246134540149800,6.256149658203125,-0.9709816575050354,0.6758893132209778,1.120795726776123
1783246134550162000,6.266161865234375,-0.9758701324462891,0.9640460014343262,0.6510439515113831
1783246134560173800,6.276173828125,-0.980678915977478,1.3704042434692383,0.2854595482349396
1783246134570184700,6.286184814453125,-1.036495327949524,1.6784073114395142,0.13330917060375214
1783246134580196900,6.29619677734375,-1.1542255878448486,1.5848641395568848,0.23156753182411194
1783246134590208800,6.306208740234375,-1.2866201400756836,1.0433284044265747,0.5331516265869141
1783246134600220700,6.316220703125,-1.2427055835723877,0.4203978180885315,0.9899246096611023
1783246134610232800,6.32623291015625,-0.9509230256080627,-0.2569923996925354,1.3841744661331177
1783246134620243700,6.33624365234375,-0.6250183582305908,-0.8995783925056458,1.5747880935668945
1783246134630255600,6.346255615234375,-0.29133889079093933,-1.27395761013031,1.5655144453048706
1783246134640267800,6.356267822265625,0.033584147691726685,-1.3594130277633667,1.378502607345581
1783246134650279700,6.36627978515625,0.27406784892082214,-1.3000859022140503,1.0843360424041748
1783246134660290800,6.376290771484375,0.3764513432979584,-1.184061884880066,0.752141535282135
1783246134670302700,6.386302734375,0.27933013439178467,-1.0488805770874023,0.40830299258232117
1783246134680315000,6.39631494140625,-0.010459414683282375,-0.8660969734191895,0.14942795038223267
1783246134690326800,6.406326904296875,-0.4504578113555908,-0.5920870304107666,0.017875775694847107
1783246134700339000,6.4163388671875,-0.9131383299827576,-0.37286004424095154,-0.027836637571454048
1783246134710349800,6.426349853515625,-1.2909928560256958,-0.2586035132408142,-0.010544732213020325
1783246134720361700,6.43636181640625,-1.5227231979370117,-0.2584822177886963,0.041163571178913116
1783246134730374000,6.446373779296875,-1.5989247560501099,-0.24415813386440277,0.06014924496412277
1783246134740385800,6.4563857421875,-1.5332729816436768,-0.22902952134609222,0.014937025494873524
1783246134750397700,6.466397705078125,-1.4147030115127563,-0.28030017018318176,-0.060600608587265015
1783246134760408600,6.47640869140625,-1.3209104537963867,-0.4186428487300873,-0.14814159274101257
1783246134770420700,6.486420654296875,-1.2599807977676392,-0.5378755331039429,-0.2618420720100403
1783246134780432600,6.4964326171875,-1.2318366765975952,-0.570048987865448,-0.3964921832084656
1783246134790444800,6.50644482421875,-1.2158020734786987,-0.48767128586769104,-0.5468867421150208
1783246134800456000,6.5164560546875,-1.1568357944488525,-0.3674234449863434,-0.6917545199394226
1783246134810467800,6.5264677734375,-1.0168761014938354,-0.19756437838077545,-0.7860943675041199
1783246134820479700,6.536479736328125,-0.8596342206001282,-0.05510539188981056,-0.7584033608436584
1783246134830492000,6.546491943359375,-0.7169346213340759,-0.044957149773836136,-0.5556151270866394
1783246134840503800,6.55650390625,-0.6202688217163086,-0.18281041085720062,-0.20295165479183197
1783246134850514700,6.5665146484375,-0.6240838170051575,-0.456943154335022,0.20190660655498505
1783246134860526800,6.57652685546875,-0.7080173492431641,-0.6950598955154419,0.5309788584709167
1783246134870538800,6.586538818359375,-0.8094012141227722,-0.8272786736488342,0.6995478868484497
1783246134880551000,6.596551025390625,-0.9224478006362915,-0.8274894952774048,0.693612813949585
1783246134890562800,6.606562744140625,-1.0349661111831665,-0.7166721224784851,0.5341259837150574
1783246134900573700,6.61657373046875,-1.0977219343185425,-0.5343788266181946,0.2520298361778259
1783246134910585600,6.626585693359375,-1.1080241203308105,-0.32547035813331604,-0.06529031693935394
1783246134920597800,6.63659765625,-1.0891056060791016,-0.17884176969528198,-0.33555513620376587
1783246134930609700,6.646609619140625,-1.066306471824646,-0.10311584919691086,-0.49128612875938416
1783246134940621800,6.656621826171875,-1.0257259607315063,-0.13588999211788177,-0.5102274417877197
1783246134950632700,6.6666328125,-0.9475672841072083,-0.25055399537086487,-0.3891276717185974
1783246134960644600,6.67664453125,-0.8659128546714783,-0.37025803327560425,-0.1613854020833969
1783246134970656500,6.686656494140625,-0.8191184401512146,-0.3735845685005188,0.11343418806791306
1783246134980668700,6.696668701171875,-0.795113742351532,-0.28963422775268555,0.35388386249542236
1783246134990679800,6.7066796875,-0.7628213167190552,-0.15939952433109283,0.5627968907356262
1783246135000691700,6.716691650390625,-0.723533570766449,-0.02529359608888626,0.7415261268615723
1783246135010704000,6.726703857421875,-0.714934229850769,0.10319273918867111,0.87007075548172
1783246135020715800,6.7367158203125,-0.7448022365570068,0.20142780244350433,0.9763951301574707
1783246135030728000,6.74672802734375,-0.7880274653434753,0.2483457773923874,1.1287007331848145
1783246135040738800,6.75673876953125,-0.8073892593383789,0.3256734609603882,1.2980015277862549
1783246135050750700,6.766750732421875,-0.8129963278770447,0.427638441324234,1.3127539157867432
1783246135060762600,6.7767626953125,-0.7523354291915894,0.5866914391517639,1.091280460357666
1783246135070774800,6.78677490234375,-0.6272345185279846,0.8008942604064941,0.6796693801879883
1783246135080786700,6.79678662109375,-0.5003151297569275,0.9625734686851501,0.3424866199493408
1783246135090797600,6.806797607421875,-0.4952835738658905,0.6705251336097717,0.275077760219574
1783246135100809700,6.816809814453125,-0.6472697257995605,0.11981209367513657,0.49899765849113464
1783246135110821600,6.826821533203125,-0.8115593791007996,-0.09636014699935913,0.9097326993942261
1783246135120833500,6.83683349609375,-0.8205375671386719,-0.07950010895729065,1.2531987428665161
1783246135130845000,6.846844970703125,-0.6984356045722961,-0.16631010174751282,1.3880956172943115
1783246135140856800,6.85685693359375,-0.5150629281997681,-0.3252721428871155,1.3631848096847534
1783246135150868700,6.86686865234375,-0.2282666116952896,-0.6121259927749634,1.0685832500457764
1783246135160881000,6.876880859375,0.19256703555583954,-1.091115117073059,0.3958893418312073
1783246135170892800,6.886892822265625,0.5030492544174194,-1.7760306596755981,-0.47686102986335754
1783246135180903700,6.896903564453125,0.4372139871120453,-2.0994014739990234,-1.0544120073318481
1783246135190915800,6.906915771484375,0.1584494560956955,-1.9695767164230347,-1.1376094818115234
1783246135200927700,6.916927734375,-0.20467719435691833,-1.4787794351577759,-0.881558358669281
1783246135210939600,6.926939697265625,-0.5619186758995056,-0.788604736328125,-0.5161223411560059
1783246135220951800,6.936951904296875,-0.795525848865509,-0.33769187331199646,-0.270648330450058
1783246135230962700,6.946962646484375,-0.8464093208312988,-0.17739860713481903,-0.17278994619846344
1783246135240974600,6.956974609375,-0.7818773984909058,-0.26533693075180054,-0.2253207564353943
1783246135250986800,6.96698681640625,-0.6735972762107849,-0.6128674745559692,-0.4737814664840698
1783246135260998700,6.97699853515625,-0.6094140410423279,-1.0781487226486206,-0.8779441714286804
1783246135271010600,6.987010498046875,-0.6435189843177795,-1.4419037103652954,-1.329306960105896
1783246135281022000,6.99702197265625,-0.7366280555725098,-1.4772766828536987,-1.7631803750991821
1783246135291033900,7.007033935546875,-0.837185263633728,-1.1484309434890747,-2.1467857360839844
1783246135301045800,7.017045654296875,-0.9160075187683105,-0.5798879265785217,-2.3797197341918945
1783246135311058000,7.027057861328125,-0.9675588607788086,-0.042733944952487946,-2.4068450927734375
1783246135321068800,7.03706884765625,-0.97878497838974,0.23476861417293549,-2.159289598464966
1783246135331080700,7.047080810546875,-0.965691864490509,0.1860402226448059,-1.6620005369186401
1783246135341092900,7.0570927734375,-0.8966442942619324,-0.1379477083683014,-1.0200341939926147
1783246135351104800,7.067104736328125,-0.778607964515686,-0.5341182351112366,-0.33568355441093445
1783246135361116700,7.07711669921875,-0.6367419362068176,-0.8226826190948486,0.3152626156806946
1783246135371127800,7.0871279296875,-0.49849802255630493,-0.9431131482124329,0.8700658679008484
1783246135381139700,7.0971396484375,-0.3623766601085663,-0.9133944511413574,1.261054515838623
1783246135391151600,7.107151611328125,-0.28368905186653137,-0.7808672785758972,1.4355556964874268
1783246135401163800,7.117163818359375,-0.297542929649353,-0.6058194041252136,1.3749957084655762
1783246135411175700,7.12717578125,-0.3725905418395996,-0.41855284571647644,1.1252282857894897
1783246135421186600,7.1371865234375,-0.4802515208721161,-0.2792309522628784,0.7455136179924011
1783246135431198700,7.14719873046875,-0.6127805709838867,-0.21972662210464478,0.31782346963882446
1783246135441210600,7.157210693359375,-0.7159528732299805,-0.17874978482723236,-0.10542092472314835
1783246135451222800,7.167222900390625,-0.7400339841842651,-0.13860128819942474,-0.4519660770893097
1783246135461234000,7.17723388671875,-0.7249452471733093,-0.11737718433141708,-0.6617074012756348
1783246135471245800,7.187245849609375,-0.714211106300354,-0.08795298635959625,-0.7265958786010742
1783246135481257700,7.1972578125,-0.6804264783859253,-0.05880942568182945,-0.653608500957489
1783246135491270000,7.207269775390625,-0.5762843489646912,-0.06903782486915588,-0.4493592083454132
1783246135501281800,7.21728173828125,-0.44682246446609497,-0.12199845910072327,-0.12542623281478882
1783246135511292700,7.227292724609375,-0.3492032289505005,-0.19019456207752228,0.26687148213386536
1783246135521304800,7.237304931640625,-0.3136419653892517,-0.2774772047996521,0.6459548473358154
1783246135531316700,7.247316650390625,-0.31313490867614746,-0.3815873861312866,0.9330667853355408
1783246135541328600,7.25732861328125,-0.288141131401062,-0.3789716064929962,1.1037397384643555
1783246135551340800,7.2673408203125,-0.2727193236351013,-0.31680330634117126,1.1330742835998535
1783246135561351700,7.2773515625,-0.3145263195037842,-0.2268674522638321,1.0466502904891968
1783246135571363600,7.287363525390625,-0.42130762338638306,-0.1381426453590393,0.8965076208114624
1783246135581375700,7.297375732421875,-0.5360341668128967,-0.09625852853059769,0.7147931456565857
1783246135591387600,7.3073876953125,-0.58659827709198,-0.05499604344367981,0.5196971297264099
1783246135601399600,7.317399658203125,-0.5753245949745178,-0.06192505359649658,0.37303534150123596
1783246135611411000,7.327410888671875,-0.5662911534309387,-0.06774406135082245,0.28360188007354736
1783246135621422800,7.3374228515625,-0.4966418445110321,0.06766824424266815,0.4860261082649231
1783246135631434800,7.347434814453125,-0.4354354739189148,-0.004029370844364166,0.7600475549697876
1783246135641447000,7.357447021484375,-0.35340365767478943,0.18050377070903778,0.9241210222244263
1783246135651457800,7.367457763671875,-0.339651882648468,0.36600279808044434,1.0252289772033691
1783246135661469700,7.3774697265625,-0.4180871546268463,0.24080322682857513,1.063515067100525
1783246135671481900,7.38748193359375,-0.5210812091827393,0.07826278358697891,1.0183995962142944
1783246135681493800,7.39749365234375,-0.6228079795837402,-0.007721261121332645,0.8426526188850403
1783246135691505700,7.407505615234375,-0.710391640663147,0.19588033854961395,0.5564477443695068
1783246135701516500,7.4175166015625,-0.7724255919456482,0.49199169874191284,0.18910540640354156
