time,seconds_elapsed,z,y,x
1783246128352867000,0.0688671875,-10.768147592002153,-5.923950488275289,-2.3267691691353916
1783246128362879000,0.07887890625,-12.059098087644577,-5.164057418635487,-1.6479313115470111
1783246128372890000,0.08889013671875,-12.307069808906316,-4.801383505655825,-0.12322114160237833
1783246128382902300,0.09890234375,-11.099834538304805,-5.6826206892460585,2.4494972847901284
1783246128392914200,0.1089140625,-9.29397520290613,-6.648507456117868,5.176782460173964
1783246128402926000,0.118926025390625,-8.353350303062797,-6.770921537387371,6.631477995383739
1783246128412937200,0.128937255859375,-7.910549837183952,-6.2871244597315785,6.2143684356004
1783246128422949000,0.13894921875,-7.698326890173554,-5.893897879838943,4.5020600750803945
1783246128432961000,0.1489609375,-7.957858116325736,-5.66790301258564,2.6625787483260033
1783246128442973200,0.15897314453125,-8.889439878013729,-4.673324988758564,1.3568814960591493
1783246128452985000,0.168985107421875,-8.628004864066838,-2.852553330910206,0.6388034419070929
1783246128462996000,0.178995849609375,-7.673297078335285,-1.1973875380650163,-0.2725163799315691
1783246128473008000,0.189008056640625,-6.5131637506484985,-0.34526012910306453,-2.1529938800714907
1783246128483020000,0.19902001953125,-4.737275190621614,-0.381923387850821,-4.269228055283427
1783246128493032000,0.209031982421875,-2.752881242802739,-0.7638292400449513,-5.507127928739786
1783246128503043000,0.21904296875,-1.0949398477643728,-0.8592141523525119,-4.457132845856249
1783246128513055000,0.229054931640625,-1.145693883445859,-0.08528612761944532,-0.6662597502399236
1783246128523067000,0.23906689453125,-2.7739731306701896,1.3899138509586453,3.4687434475362298
1783246128533079000,0.2490791015625,-3.9495354981571436,2.6056623906224963,5.544916099864244
1783246128543091000,0.259091064453125,-5.145236398309469,2.9767925817802547,4.858203417247534
1783246128553102000,0.26910205078125,-5.666679023748636,2.2091452447518707,2.98895151386857
1783246128563114200,0.2791142578125,-4.529515652760863,0.9598740824535489,1.629216381943971
1783246128573126100,0.289126220703125,-2.361317627686262,0.025809271778166294,0.6910860023301094
1783246128583138000,0.299137939453125,0.1624398021876812,-0.4988987851977348,-0.02176693758480251
1783246128593149200,0.309149169921875,2.7961370316833256,-0.7370011466130614,-0.4273603201627731
1783246128603161000,0.3191611328125,5.011258135974407,-0.7353864048928022,-0.5157808733504265
1783246128613173000,0.329173095703125,6.743274236527085,-0.5428399259939789,-0.27980573322214186
1783246128623185200,0.33918505859375,7.994833802023529,-0.20932430295944213,0.14723784914165736
1783246128633197000,0.349197021484375,8.817091265639663,0.11330138500928878,0.6590748802371322
1783246128643208000,0.3592080078125,9.079020785105229,0.40498277639895675,1.2843918677791952
1783246128653220000,0.36922021484375,9.127992613545059,1.1035396260663866,1.7341297317057847
1783246128663232000,0.37923193359375,8.365376256421207,1.0974819334626198,2.361938682194054
1783246128673244000,0.389243896484375,5.966272211176157,0.3735375445604324,2.5354969675064085
1783246128683256000,0.399256103515625,5.475681820118427,0.6490078058615326,2.1913608739972115
1783246128693267200,0.40926708984375,4.841857847124338,1.3724106352329253,1.523928061389923
1783246128703279000,0.419279052734375,4.409501033848524,1.6458543591424821,0.8655246506735682
1783246128713291300,0.429291259765625,4.729940025427937,1.6215771192371844,0.7499146964609622
1783246128723303200,0.43930322265625,5.010681212869287,1.6120967587083577,0.5803211500611156
1783246128733314000,0.44931396484375,5.572445327302813,1.7670120106101035,0.5503883320795372
1783246128743326200,0.459326171875,6.165646198007464,2.0327599193200467,0.8839505342021584
1783246128753338000,0.469338134765625,6.529722671261429,2.21092774425447,1.1573111098729074
1783246128763350000,0.47935009765625,7.120708788526057,2.3061457755625248,1.2093489017546175
1783246128773362200,0.489362060546875,7.8820906354188915,2.4770436094939705,1.344717741665244
1783246128783373000,0.499373046875,8.666454129448532,2.7115438547641038,1.2875447788521646
1783246128793385000,0.509385009765625,9.221642372623085,2.43054109377712,0.7429130010053515
1783246128803397000,0.519397216796875,9.256819484466314,1.7838138000681996,0.022124043926782903
1783246128813409000,0.529408935546875,9.334072820016742,1.6242863781958818,-0.7080741812057793
1783246128823420200,0.539420166015625,9.258252147617936,2.4960192358598112,-1.1935246520917862
1783246128833432300,0.549432373046875,8.617903741291165,2.3514207953110335,-1.4088687267974018
1783246128843444200,0.5594443359375,7.321296242800354,1.3403724059373139,-1.264964405992627
1783246128853456100,0.5694560546875,6.194807995083928,1.2451836007237433,-0.7295812257453799
1783246128863468300,0.57946826171875,4.724949962055683,1.942163410332799,-0.6093765641536564
1783246128873479200,0.589479248046875,1.7965666063964365,2.229064289447665,-0.905750789534673
1783246128883491000,0.599490966796875,-6.354892758578061,1.4681114816218614,-1.0691155976127833
1783246128893503200,0.609503173828125,-4.905207160484791,-0.28888503866940735,-1.4824720154076814
1783246128903515100,0.61951513671875,-6.0489341277718545,-2.455590194837749,-2.5425679288059473
1783246128913526000,0.629526123046875,-6.739752492141723,-4.250309127540886,-2.539256027778983
1783246128923538000,0.639537841796875,-7.199068624013662,-4.986082193663716,-1.8370254580348728
1783246128933550000,0.649550048828125,-9.754042445406316,-4.693641508339345,-0.85871862392053
1783246128943562000,0.65956201171875,-12.033404843461513,-3.6310838810026644,0.07508373642638325
1783246128953574100,0.66957421875,-12.485649429512023,-3.5787107196867463,0.21008242785036563
1783246128963585000,0.6795849609375,-11.921334461551904,-4.125228749671578,1.5757190389037132
1783246128973597000,0.689596923828125,-11.368903992652893,-3.797545778313279,4.639259929810464
1783246128983609000,0.699609130859375,-9.706261872577667,-3.6003310153424737,4.7821091886043545
1783246128993621000,0.70962109375,-9.068043464016913,-3.956906903707981,1.2208540461093187
1783246129003633000,0.7196328125,-11.163166316008567,-4.040616283529997,-2.5677356878101825
1783246129013644000,0.72964404296875,-11.795728890764712,-3.368073580563068,-3.803597917959094
1783246129023656200,0.73965625,-8.624658476248383,-2.1730255913615224,-3.5840403902769085
1783246129033668000,0.749668212890625,-4.680160387736558,-1.7390128275722265,-4.24282432474345
1783246129043680300,0.75968017578125,-2.0624340498328206,-2.3271643059328198,-4.916932669591904
1783246129053691100,0.769691162109375,-0.5399632015138864,-3.3982188357189296,-5.146271002054214
1783246129063703000,0.779703125,-1.4541735571622847,-3.6831095440551636,-4.771797345687449
1783246129073715000,0.78971484375,-5.558598003736138,-2.2738348668053745,-3.562695404431224
1783246129083727000,0.79972705078125,-10.879855570340156,0.4467804754257202,-1.2891611280076205
1783246129093739000,0.809739013671875,-14.626611657136678,2.878843371942639,1.537716786637157
1783246129103750000,0.81975,-14.91225464514494,3.7837034231826663,3.4606624324113127
1783246129113762000,0.829761962890625,-12.059935122990607,3.381125077576935,3.2197324463546275
1783246129123774000,0.83977392578125,-7.74482852910757,1.4618489140957593,1.7532513424135743
1783246129133785900,0.849785888671875,-3.9066105486661193,-0.7745151769712567,1.8226190392807124
1783246129143797200,0.85979736328125,-0.7469225289076566,-1.6219430299401283,2.2859238023974
1783246129153809200,0.86980908203125,2.149201063659787,-1.5863769187793135,2.5204899525105953
1783246129163821000,0.879821044921875,4.536547451093792,-0.8404752573519945,2.6467002111926674
1783246129173833200,0.889833251953125,5.621028448686003,-0.7637061981871723,2.6548706581667063
1783246129183845000,0.89984521484375,6.358533745428919,0.11051993759721516,3.4007723195940254
1783246129193856000,0.90985595703125,7.387673379549383,1.5013585021853446,4.448910084173083
1783246129203868200,0.9198681640625,7.29002841335535,2.1107328013166784,4.153215657749771
1783246129213880000,0.929880126953125,6.9414014381676905,2.38405611371696,3.039586599345505
1783246129223892000,0.93989208984375,7.3089488024026155,2.3355071868643162,2.2671429679512975
1783246129233903000,0.949903076171875,7.700743303665519,1.987311296570301,1.5357979474037884
1783246129243915000,0.9599150390625,8.097259572753309,1.8600442223116755,1.2980597431257366
1783246129253927000,0.969927001953125,8.223377184715867,1.5972478568837045,3.633145197446644
1783246129263939000,0.97993896484375,7.9577932343959805,0.9184700589194893,6.890769567561149
1783246129273951000,0.989950927734375,7.940667327550053,1.239951253028214,7.065022557139396
1783246129283962000,0.999962158203125,8.877758208048343,2.7218489756792783,5.2733647655725475
1783246129293974300,1.009974365234375,9.552081949213147,3.1338559516265985,3.595164426359534
1783246129303986200,1.019986083984375,9.288502908974886,2.3527046976417303,2.395420972818136
1783246129313998000,1.029998046875,9.220844500243663,2.176889281052351,2.33856803573966
1783246129324009500,1.040009521484375,9.652458970719575,2.7660157419249414,2.2662682309433815
1783246129334020400,1.050020263671875,10.593500634670256,2.7312761447161433,1.7676393487282096
1783246129344032300,1.0600322265625,11.163961265778541,2.0293585864439607,1.0222387686908245
1783246129354044400,1.07004443359375,11.154760891234874,1.3702563798084855,0.7533980085320771
1783246129364056300,1.080056396484375,10.889257020413876,-0.7808774054795503,2.6066169148683547
1783246129374067200,1.090067138671875,11.002820271229742,-1.7362787264332173,3.8577041866779327
1783246129384079000,1.1000791015625,11.629383313310147,0.8735232482120394,3.517431198337674
1783246129394091300,1.11009130859375,11.201370666718482,2.604408298908174,3.132974784877896
1783246129404103200,1.120103271484375,10.628798742544651,2.3516540195450184,3.038303866058588
1783246129414115300,1.130115234375,10.90842232413292,2.1321540672689676,3.5628204921156166
1783246129424126500,1.14012646484375,10.752125847005843,2.1557059155091642,3.8721038834303614
1783246129434138400,1.150138427734375,9.077118750876188,1.9343740716308355,3.617024668250978
1783246129444150500,1.160150634765625,6.944539736193418,1.841200990153849,3.4975878492265937
1783246129454162400,1.170162353515625,5.852193412053585,2.001205674149096,0.7354125622473656
1783246129464173300,1.18017333984375,2.968562221312523,0.8158473043128848,-0.38215544304102655
1783246129474185200,1.190185302734375,0.49151159755587576,-1.4342562660321592,3.136501205438375
1783246129484197400,1.200197265625,-1.9313082543194293,-2.104653481402993,2.901440111415088
1783246129494209300,1.210209228515625,-6.830346370780467,-2.4515321516185997,1.2159357327990232
1783246129504221400,1.220221435546875,-14.406530982363224,-5.315474891549348,1.8247006678603588
1783246129514232300,1.230232421875,-20.69645179481506,-8.565808227872848,2.8074872777372595
1783246129524244200,1.240244140625,-27.35514512938261,-8.646338393136858,1.0266700291365385
1783246129534256000,1.250256103515625,-36.89375209547281,-6.301983006167411,-3.105885994683206
1783246129544268300,1.260268310546875,-45.51194517509937,-3.804255797345936,-6.654979282480478
1783246129554280200,1.2702802734375,-48.58025021166801,-2.1466113394275306,-9.740249482375383
1783246129564291300,1.280291259765625,-43.24294342753887,-1.7147753351554273,-11.852106027024984
1783246129574303500,1.290303466796875,-30.053066701507568,-2.3869030275806784,-11.170777960056066
1783246129584315400,1.3003154296875,-15.422823994392155,-4.1779760049968955,-7.751038489663601
1783246129594327300,1.310327392578125,-4.818133272665738,-6.393051516580582,-5.228763407301902
1783246129604338400,1.32033837890625,0.6025321781516074,-7.447766321462392,-5.084132233527303
1783246129614350300,1.330350341796875,2.25637724378705,-7.019299501362442,-5.6430807060182095
1783246129624362200,1.3403623046875,2.209417924213409,-5.776275709021091,-5.6627615580439565
1783246129634374400,1.35037451171875,1.5739064365237951,-4.626011448919773,-5.872359417247772
1783246129644386300,1.36038623046875,0.604681465139985,-3.3750337749645114,-6.5169572977125645
1783246129654397200,1.370397216796875,-0.2735205885380506,-1.6632120289176702,-6.433080744630098
1783246129664409300,1.380409423828125,-0.9327280091136694,-0.03524491638243198,-5.383800239756703
1783246129674421200,1.390421142578125,-0.8498381289809942,1.2682348059654236,-3.8706586530581113
1783246129684433200,1.40043310546875,0.35361645403802394,2.0615134278565646,-1.9850788613431154
1783246129694444500,1.410444580078125,2.494234982791543,2.6425761169999835,0.1405367440678179
1783246129704456400,1.42045654296875,4.624465388521552,3.041343379884958,1.6656148522756993
1783246129714468400,1.43046826171875,6.258947582039236,3.1167519643515345,2.517523503920436
1783246129724480500,1.44048046875,7.713308186206221,3.0979958259552713,3.1469281991675495
1783246129734492400,1.450492431640625,8.926039131614566,3.0494606353670357,3.5022432738170024
1783246129744503300,1.46050341796875,9.737837745058536,3.3521196401059625,3.7949101691126823
1783246129754515500,1.470515380859375,10.028052863287925,3.8316318800494074,3.782310507519543
1783246129764527400,1.48052734375,9.93602339888811,4.066601788657904,3.3792131064757704
1783246129774539300,1.490539306640625,9.451417342936992,3.7765117581129073,2.4908131916493175
1783246129784551400,1.500551513671875,9.189823339036106,3.202054750844836,1.683195663282275
1783246129794562300,1.510562255859375,9.666540687564014,2.705319573421776,1.3634934615448115
1783246129804574200,1.52057421875,10.32232222534418,2.4160019885540005,1.35908587423563
1783246129814586400,1.53058642578125,10.907852999812365,2.239301605823636,1.3214505555853246
1783246129824598300,1.540598388671875,11.256397557413578,2.211034127238393,1.3973881323620676
1783246129834609200,1.550609130859375,11.120580389213561,2.389986380548775,1.8794906810596583
1783246129844621300,1.560621337890625,10.389233615100384,2.612679575908184,2.5487784738838672
1783246129854633200,1.57063330078125,9.75213515048027,2.8131834435522554,3.170731976342201
1783246129864645000,1.58064501953125,9.733491240286826,3.048991556550562,3.447312829233706
1783246129874657300,1.5906572265625,11.060587400543689,2.8204928897827863,3.2216941018164156
1783246129884668400,1.60066845703125,9.293555516189336,2.8862890117734668,4.4454882930308575
1783246129894680300,1.610680419921875,7.691143116149306,3.365509867554903,5.184925434619188
1783246129904692500,1.6206923828125,7.845282707503437,3.7308795954898,4.587145127169787
1783246129914704400,1.630704345703125,7.936137867426872,3.646570203948021,4.506764891770482
1783246129924715300,1.64071533203125,7.792270079240202,3.2937510377675294,4.618924413268267
1783246129934727400,1.6507275390625,7.4628218517750495,3.198822637055814,4.642385076093674
1783246129944739300,1.6607392578125,7.2114184024989605,3.3092283006235954,4.614940896590054
1783246129954751200,1.670751220703125,7.11736590783894,3.2167724275052545,4.427987707653641
1783246129964763400,1.680763427734375,7.103506309312581,3.0236858503803608,4.1564162073567505
1783246129974774300,1.690774169921875,6.966613036313652,3.041401247552037,3.8481460847377775
1783246129984786200,1.7007861328125,6.871463394066691,3.022198534432053,3.297733385401964
1783246129994798300,1.71079833984375,6.9201949840098615,2.5162282034128904,2.6152801137953996
1783246130004810200,1.720810302734375,6.597970278057455,1.6440654298990964,1.7943302256464957
1783246130014822100,1.730822265625,5.667531256663799,0.9095905868932604,1.2044447631001471
1783246130024833500,1.74083349609375,4.59986929192543,0.39561990476995706,0.16470336320549248
1783246130034845400,1.750845458984375,3.13608268776536,-0.12519815903007983,-1.059403839480877
1783246130044857300,1.760857421875,1.8072510820180177,-0.7534720966815948,-1.5409119294166564
1783246130054869500,1.770869384765625,0.4202630553781986,-1.8872230288773775,-1.8024150401636958
1783246130064880400,1.78088037109375,-0.7535095060825348,-4.025841031463444,0.17587065390795467
1783246130074892300,1.790892333984375,-0.42011575586199756,-9.053497052270174,2.7955326360493897
1783246130084904400,1.800904541015625,-4.0188562871426345,-16.177276918804644,-0.11556085437387227
1783246130094916400,1.810916259765625,-19.63203977178335,-21.33315512263775,-6.309546719419956
1783246130104928300,1.82092822265625,-45.979529953622816,-18.002333122104407,-14.643808291131258
1783246130114939100,1.830939208984375,-63.09612185871601,-8.710503114533424,-23.23540211764574
1783246130124951300,1.840951416015625,-61.96916833157539,-2.0919021363794803,-23.77633971714973
1783246130134963200,1.850963134765625,-47.46058216536045,-1.9838155634090304,-16.789127544921637
1783246130144975400,1.860975341796875,-27.519809621882438,-4.391998987166583,-10.613463226246834
1783246130154987300,1.8709873046875,-11.486951695406436,-5.406661475384235,-6.933895592582226
1783246130164998400,1.880998291015625,-1.3073650393486023,-5.136376215505599,-3.830464882096648
1783246130175010600,1.891010498046875,3.1823207073271274,-3.046961219766736,-1.4981259500049053
1783246130185022500,1.9010224609375,3.6584558720529077,-0.2655000714287162,-0.28280674166902897
1783246130195034400,1.911034423828125,3.33211262486577,1.4873682630166412,-0.16365882258862255
1783246130205045200,1.921045166015625,4.078351847684383,2.140607422837615,-1.4019894886776805
1783246130215057400,1.931057373046875,5.89832446410954,2.8878359489545224,-2.1109531660690903
1783246130225069300,1.9410693359375,7.461055426624417,3.4637627365142105,-1.4674147315293549
1783246130235081500,1.95108154296875,8.248790442913771,3.797691032002866,-0.11348492488265037
1783246130245093400,1.96109326171875,8.808282520762086,4.202066490158439,1.0345520145580172
1783246130255104300,1.971104248046875,9.145513072666525,4.243692632010579,1.6439663534387945
1783246130265116200,1.9811162109375,9.608615737339854,4.4799622250407936,2.2064105590909717
1783246130275128300,1.99112841796875,10.74002624388933,5.035206582316756,2.794504754306376
1783246130285140200,2.00114013671875,12.345511475503445,5.48643585384488,3.628447102758288
1783246130295152400,2.01115234375,13.798770840430258,5.527185212862491,4.401560303977131
1783246130305163300,2.021163330078125,14.832887093919515,5.212385103952885,5.057391526117921
1783246130315175200,2.031175048828125,15.266250453889368,4.574511563307047,5.1007724026829
1783246130325187300,2.041187255859375,14.626390707862376,3.8416871178567407,4.508887290751934
1783246130335199200,2.05119921875,13.495644802701472,3.5031565892696377,3.993263288463652
1783246130345210400,2.06121044921875,12.310490431004762,3.2344507075369355,3.543466387826204
1783246130355222300,2.07122216796875,11.474884825515746,2.808881362444162,2.6039596783578394
1783246130365234400,2.081234375,10.467480053341388,1.339519150108844,1.0895765671655535
1783246130375246300,2.091246337890625,9.704958973285555,0.2900317244865,0.368032809664309
1783246130385258500,2.101258544921875,9.294410087192057,0.2830249144643545,-0.3715302963912487
1783246130395269400,2.111269287109375,8.875185727211832,0.053739408167824146,-0.16084785682111977
1783246130405281300,2.12128125,8.811189932641387,-0.23213446598686277,0.9346800199642777
1783246130415293200,2.131293212890625,8.826763349348306,-0.20473675597347318,2.164447440369427
1783246130425305300,2.141305419921875,8.475968966993689,-0.12348470617569983,2.8487267583593723
1783246130435316200,2.151316162109375,7.976621853506565,-0.03993570454716682,2.861276443330943
1783246130445328100,2.161328125,7.407128021603822,-0.11020075211282819,2.7572219023555515
1783246130455340300,2.17134033203125,6.715653239151835,-0.2664903428413905,2.5134751053124664
1783246130465352200,2.181352294921875,6.282305661273003,-0.47676827499754726,2.5683845071077345
1783246130475364400,2.1913642578125,5.843052658742666,-0.884196471787244,2.74806712051928
1783246130485375500,2.20137548828125,5.081383811601996,-1.2991313178800046,2.806100207293033
1783246130495387400,2.211387451171875,4.577055402570963,-1.4534293146662414,2.65739988438338
1783246130505399300,2.2213994140625,4.352938019627333,-1.522180633200705,2.786475761629641
1783246130515411500,2.231411376953125,4.267075261163711,-1.77021241408661,3.3301758115842937
1783246130525423400,2.24142333984375,4.11405444470644,-2.1952657724812625,3.6536034635856747
1783246130535434200,2.251434326171875,3.593797229659557,-3.0561569181352852,3.0443051523
1783246130545446400,2.2614462890625,2.0941659896582365,-4.499462459802627,1.8329440339401364
1783246130555458300,2.271458251953125,-1.7328525513768196,-5.79697830531001,0.7808598698228597
1783246130565470200,2.28147021484375,-7.2230205774873495,-5.83131429015398,-0.2990764700770378
1783246130575481300,2.2914814453125,-13.167212474280594,-4.448937556701899,-2.0549591839075085
1783246130585493200,2.3014931640625,-18.95866354060173,-2.02003429325968,-4.288937548881769
1783246130595505200,2.311505126953125,-23.296276565325257,0.5316127217978239,-6.6261611842751496
1783246130605517300,2.321517333984375,-24.39510289913416,2.1946198757931588,-8.686846344614029
1783246130615529200,2.331529296875,-23.679484440028666,2.530003338526189,-8.532966280978918
1783246130625540400,2.341540283203125,-21.811756969738006,0.9925224795367568,-6.468529659152031
1783246130635552500,2.351552490234375,-19.980997001838684,0.0185718587373849,-6.3175669442683455
1783246130645564400,2.361564453125,-19.95287448468208,1.0361653680387883,-7.497946941170096
1783246130655576300,2.371576416015625,-20.0766762209177,1.3486938056893647,-7.364328159797191
1783246130665588500,2.38158837890625,-19.877536627364158,0.5272559148278088,-6.534867048412561
1783246130675599400,2.391599365234375,-20.168684642529488,0.03135258511900901,-5.916081654596328
1783246130685611300,2.401611328125,-20.734310108566284,-0.08300861114151775,-5.935606439277529
1783246130695623400,2.41162353515625,-20.574310100746153,0.051747138372063635,-6.704970517095923
1783246130705635300,2.42163525390625,-19.593519779253004,0.0077888272453099485,-7.011091060465574
1783246130715646200,2.431646240234375,-17.77276214993,-0.425510965969041,-6.254044612428546
1783246130725658400,2.441658447265625,-15.460882214629649,-0.8818130107168107,-5.182594361323118
1783246130735670300,2.451670166015625,-12.753888862776755,-1.0056713725104927,-4.698777702184021
1783246130745682200,2.46168212890625,-9.411279978337884,-0.7032807363841682,-4.063621311542391
1783246130755694300,2.4716943359375,-5.521171651661396,-0.2346851733829826,-2.8232506640583277
1783246130765705500,2.48170556640625,-2.016138162603974,0.2665763223581016,-1.6356243492901323
1783246130775717400,2.49171728515625,0.3850058640360832,0.8876577181570231,-0.6573892652377485
1783246130785729500,2.5017294921875,2.2572382445305585,0.883407659497112,-0.1994908912092447
1783246130795741400,2.511741455078125,4.880394206267595,0.2927953439809382,-0.14715513929426668
1783246130805753300,2.52175341796875,7.924574270883202,-0.22776509179621934,0.315199045099318
1783246130815764500,2.531764404296875,11.02332179198861,-0.8289386949457228,1.1444181644216178
1783246130825776400,2.5417763671875,14.03375916147828,-1.413712075175345,1.9603321042299269
1783246130835788300,2.551788330078125,16.528124492651223,-1.5624524378344415,2.894384932206571
1783246130845800400,2.561800537109375,17.911548689329624,-1.0161939355686307,4.035057188098133
1783246130855811300,2.571811279296875,17.819975152003764,-0.17424451401084662,5.138786199256778
1783246130865823200,2.5818232421875,16.46684438678026,0.7743968112885952,5.7493953008800744
1783246130875835400,2.59183544921875,14.764143812561034,1.4927867809340356,5.985230594146251
1783246130885847300,2.601847412109375,13.372903389173745,1.825879063989967,6.0299792519330975
1783246130895859200,2.611859130859375,12.305810748755931,2.0291686168298124,5.977797813796997
1783246130905870300,2.621870361328125,11.521695676529406,2.220856433072686,5.9925406248986715
1783246130915882200,2.63188232421875,11.100638840425013,2.4124765909068286,6.0453685442447656
1783246130925894100,2.64189404296875,10.880526601469516,2.6367741527229547,6.125657886490226
1783246130935906300,2.65190625,10.676825399088859,2.7089836488872763,6.261298529079556
1783246130945918200,2.661918212890625,10.656119295668601,2.596588272807002,6.338042161542177
1783246130955929300,2.671929443359375,10.409871913981437,2.3029434723898765,6.226684896337986
1783246130965941500,2.68194140625,9.769281515592336,2.06344293461442,5.974489419901371
1783246130975953400,2.691953369140625,8.866915911516546,1.8450810464575886,5.626288561171293
1783246130985965300,2.70196533203125,7.654798129570484,1.6112795971065759,5.161639251577854
1783246130995976400,2.7119765625,6.4346227133750915,1.2148392427992074,4.413858936797082
1783246131005988400,2.72198828125,5.263407435181737,0.6745898447550833,3.949545727290213
1783246131016000300,2.732000244140625,4.342402012565731,0.31586704402137544,3.8255756487503647
1783246131026012400,2.742012451171875,3.8840965190410612,0.25242734896373004,3.822706523054838
1783246131036024300,2.7520244140625,3.424048565763235,0.24064101304747162,3.886752586507797
1783246131046035200,2.76203515625,2.9196213725328444,-0.06131999948993325,3.82823230073899
1783246131056047400,2.77204736328125,2.849475823161006,-0.34069972585234787,3.4555469890937207
1783246131066059300,2.782059326171875,3.1740467999786137,-0.4954315474785864,2.9584800954982637
1783246131076071200,2.7920712890625,3.4836750592082737,-0.6739825265116989,2.6912787731096146
1783246131086083300,2.802083251953125,3.4045956772744654,-0.7661112135022878,2.7077266345635054
1783246131096094500,2.812094482421875,3.0568373016148804,-0.866082211491093,2.818314376699924
1783246131106106400,2.8221064453125,2.8829420394331216,-1.1158568174563348,2.673167070096731
1783246131116118500,2.832118408203125,2.604751705518365,-1.4932751489728688,2.129014600199461
1783246131126130400,2.84213037109375,2.2441665815114975,-1.5857897665411234,1.2997253382503986
1783246131136141300,2.852141357421875,2.2186492784172294,-1.3958417797029017,0.7379173846751451
1783246131146153200,2.8621533203125,1.438587280973792,-1.1017135796830058,0.09340630571097135
1783246131156165400,2.872165283203125,-0.37134441843032834,-0.25315380007475613,-1.318872521790862
1783246131166177300,2.88217724609375,-2.0833727929651737,1.522140739581734,-3.919528774689138
1783246131176189400,2.892189453125,-4.9701814446985715,4.199250263693928,-7.122825926810503
1783246131186200300,2.902200439453125,-10.996547182309627,6.67519088038206,-8.464136490380763
1783246131196212200,2.912212158203125,-15.563748714864253,7.208914310723543,-8.023265531259774
1783246131206224400,2.922224365234375,-16.354735426425933,5.939208847683668,-5.985552081185579
1783246131216236300,2.932236328125,-20.413512805068493,5.903289393040538,-4.015966410920024
1783246131226248200,2.942248291015625,-28.67295674394369,7.0297197730898855,-6.924885772174596
1783246131236259300,2.95225927734375,-37.374144917643065,6.492623066923022,-12.475355999034642
1783246131246271500,2.962271484375,-40.080810937237736,5.158869202342629,-15.50978331592083
1783246131256283400,2.972283447265625,-35.0724450155735,4.638730060717463,-14.853456419217586
1783246131266295600,2.982295654296875,-27.085381263029575,3.4400250103130934,-11.702591172862052
1783246131276306400,2.992306396484375,-18.85870094511509,2.131942178083956,-8.349732697087525
1783246131286318300,3.002318359375,-11.704026758623122,1.3123092177525162,-5.862136129397154
1783246131296330200,3.012330322265625,-6.667673344358802,0.19294090331019834,-4.451842045971751
1783246131306342400,3.02234228515625,-3.792425951081514,-1.4664407719306647,-3.361613736899197
1783246131316354300,3.032354248046875,-2.6588883693754672,-3.278813288615644,-2.3758994030073284
1783246131326366000,3.042365966796875,-2.7719612063258885,-4.4454970608592035,-1.3158464519679545
1783246131336377900,3.0523779296875,-2.9258354247421026,-5.407894232049584,-0.45299102050364015
1783246131346389800,3.0623896484375,-4.671545119604468,-5.653121038517355,-0.7537576356247067
1783246131356402000,3.07240185546875,-5.1563294547319405,-4.502653949320316,-1.4094120398938654
1783246131366413800,3.082413818359375,-3.06025149397254,-3.2358108899742364,-0.4670844277858734
1783246131376424700,3.0924248046875,0.3692810561597347,-1.8352124172635376,1.4649620776802301
1783246131386436900,3.102436767578125,4.228391017982363,-0.07481277399789542,3.5328692982271312
1783246131396448800,3.11244873046875,7.990706492960452,1.6836480832248926,5.519314041095972
1783246131406460700,3.122460693359375,11.654073517930508,2.7297710008502003,6.926023251771927
1783246131416471800,3.132471923828125,15.038887805414198,2.9720114849835633,7.650823380720615
1783246131426484000,3.14248388671875,17.6898395365715,2.7802397898495195,8.369287876906991
1783246131436496000,3.152495849609375,19.462631299626825,2.9016420637279747,8.054920898717642
1783246131446508000,3.162508056640625,19.660884757995603,2.9058091202795504,7.191496727454662
1783246131456520000,3.17252001953125,18.135525787019727,2.573620069673657,5.958389348971844
1783246131466530800,3.18253076171875,15.749648887616395,2.262263086955249,4.788812193374335
1783246131476543000,3.19254296875,13.403210849153995,2.170794179047644,3.891700272043049
1783246131486555000,3.202554931640625,11.289030245471,2.3144987394966186,3.4072996755361555
1783246131496566800,3.21256689453125,9.609937341332435,2.360150337472558,3.6250989613741633
1783246131506579000,3.222578857421875,8.595694832092523,2.347466212466359,4.121867456544935
1783246131516589800,3.23258984375,7.986516055533289,2.4470529603779316,4.61448146238476
1783246131526601700,3.242601806640625,7.53794460503757,2.6360937692433595,5.058035084718465
1783246131536614000,3.25261376953125,7.479487155371904,2.8721850830972193,5.332233718648553
1783246131546625800,3.262625732421875,7.690844425463676,3.105933048695326,5.614369575318694
1783246131556637700,3.2726376953125,8.018598708492517,3.281002030831575,5.961542260044813
1783246131566648800,3.28264892578125,8.300826919621228,3.198528330284357,5.892170617654919
1783246131576661000,3.292660888671875,8.293781092762947,3.222278623706102,5.333774518349767
1783246131586673000,3.3026728515625,8.028784586942196,3.349194400309026,4.6620518995940685
1783246131596685000,3.31268505859375,7.9720187436252825,3.0015766021639108,4.349144180302321
1783246131606696000,3.322696044921875,8.220183357110619,2.491343937525153,4.104751194310188
1783246131616707800,3.332707763671875,8.567508602049946,1.8348565895631908,3.5424881904438137
1783246131626719700,3.3427197265625,8.696884923547506,1.1870286411359905,2.6998829353258014
1783246131636732000,3.35273193359375,8.290635780474544,1.0010895976781844,1.8870050022125242
1783246131646743800,3.362743896484375,7.175078092095255,1.0745645837336777,0.9374725732922553
1783246131656754700,3.372754638671875,5.8325920550048345,0.052585050500929355,0.1080985556691885
1783246131666766800,3.382766845703125,5.41325371325612,0.5416203210711479,0.9901718978226184
1783246131676778800,3.39277880859375,5.105504691901802,1.780467119988799,2.7576398355066774
1783246131686791000,3.402791015625,4.8060266552865505,1.371252989630401,2.4980720767363906
1783246131696801800,3.4128017578125,3.0654853029727933,0.0027440380111336707,0.754340696209669
1783246131706813700,3.422813720703125,0.27506723345816136,-0.9853823254585266,-0.10525018050074576
1783246131716825600,3.43282568359375,-2.828469275489449,-1.6252838648006318,-1.401800103585422
1783246131726837800,3.442837646484375,-7.010869526669382,0.5008242003023624,-1.7503940532863138
1783246131736849700,3.452849609375,-10.04837084417343,-1.5273983678489922,-3.815528009727597
1783246131746860800,3.46286083984375,-12.058709965109825,-4.309231564369798,-4.95632886043489
1783246131756873000,3.472873046875,-13.870220458137988,-5.161599504089355,-5.395777677798271
1783246131766884900,3.482884765625,-16.423610809731482,-4.391670778125524,-4.967752171725034
1783246131776896800,3.492896728515625,-19.15609633023739,-2.7245675869882104,-3.9837805898472665
1783246131786909000,3.502908935546875,-21.11537629506588,-2.1258415231212973,-3.4898975869849322
1783246131796919800,3.512919921875,-22.28184116386175,-1.8223393455564976,-3.639769584022462
1783246131806931700,3.522931640625,-24.32021863080263,-1.6419313404798506,-6.230134744530916
1783246131816943900,3.53294384765625,-26.79843946738243,-1.7153319461248815,-9.506002335083483
1783246131826955800,3.542955810546875,-26.309652910876274,-0.7254376961998641,-10.020969627028704
1783246131836968000,3.552968017578125,-23.5506581536293,0.18232742883190511,-8.460677289837598
1783246131846978800,3.562978759765625,-20.60648686172962,0.43058790390715,-7.666061281862855
1783246131856990700,3.57299072265625,-17.549505183207987,0.7782092091836035,-7.566902403974533
1783246131867002600,3.583002685546875,-13.46703830142021,0.7786454086437821,-7.101148932531475
1783246131877014800,3.593014892578125,-9.190480926162003,0.45476884383112187,-6.418987921869754
1783246131887026000,3.60302587890625,-4.526624607494473,-0.052181438136100766,-5.62901827839613
1783246131897037800,3.613037841796875,-0.12425532522201538,-1.104201304845512,-5.238015219771862
1783246131907050000,3.623050048828125,3.1616034979909657,-2.25923146417439,-4.2625817491367455
1783246131917062000,3.633061767578125,5.4185237626135345,-2.990783113209903,-2.486028879982233
1783246131927073800,3.64307373046875,6.816154179298877,-3.127426795361936,-0.5036974176511169
1783246131937085000,3.6530849609375,7.687192332696914,-2.6724907782703635,1.4825909656122327
1783246131947096800,3.663096923828125,8.045677854076027,-2.0036464914299548,3.0606080523252484
1783246131957108700,3.673108642578125,7.799154578056931,-1.2395683911904691,4.217336247743666
1783246131967121000,3.683120849609375,8.112598596182465,-0.7871417265713214,4.789260521663725
1783246131977132800,3.6931328125,9.025361675632,-0.684619509729743,5.123476986443996
1783246131987143700,3.703143798828125,9.950767379033564,-0.4451069892555475,5.49921233330965
1783246131997155800,3.71315576171875,10.754919861638545,0.07635872479826211,5.776441713237762
1783246132007167700,3.723167724609375,11.228617570084333,0.3989893812030554,5.867201596093177
1783246132017179600,3.7331796875,11.502895114469528,0.7442115163832902,6.028649464634061
1783246132027191800,3.74319189453125,11.709794820630549,1.5031091452449559,6.287628317600488
1783246132037203000,3.753202880859375,11.454183398270606,2.3194218751125035,6.72590107692182
1783246132047214800,3.76321484375,10.933488960850239,2.1859220439441502,6.930694750714301
1783246132057227000,3.77322705078125,10.320593209594488,1.5406110467739402,6.651746291908621
1783246132067239000,3.783239013671875,10.126378797483444,1.675475736554712,6.5294152127474545
1783246132077249800,3.793249755859375,10.20950950063467,1.8501266394093632,6.597899550908804
1783246132087262000,3.803261962890625,10.28130983147621,2.016551565710455,6.752262429624795
1783246132097273900,3.81327392578125,10.268688834834098,2.2735399755120276,6.846998230373859
1783246132107285800,3.82328564453125,9.98097196316123,2.51453133636713,6.74212798910141
1783246132117298000,3.8332978515625,9.278376651757956,2.5003300847962495,6.552867400005459
1783246132127308800,3.843308837890625,8.155144190967082,2.131918212686479,6.430416493856907
1783246132137320700,3.85332080078125,6.752335494861006,1.7442606650978325,6.0348144170045845
1783246132147332900,3.863332763671875,5.6535483240187165,1.6034315139546989,5.525408850839733
1783246132157344800,3.8733447265625,4.804389993995428,1.5578180560320616,5.174505747413635
1783246132167355600,3.883355712890625,4.31547484267354,1.365176884587109,5.25401942911148
1783246132177367800,3.893367919921875,4.551572001746297,1.0968608058895915,5.35008618620336
1783246132187379700,3.903379638671875,4.578538334605097,0.7171268178418279,4.66727109554708
1783246132197392000,3.913391845703125,4.368399208131432,0.22373547095395624,4.173886689856648
1783246132207403800,3.92340380859375,4.226959523874521,-0.48237851609475907,3.781844059051573
1783246132217415000,3.933414794921875,4.081993419057131,-1.1048904561534523,3.1953160902395843
1783246132227426800,3.9434267578125,3.8356431615173814,-1.5188304459899662,2.759026321429014
1783246132237439000,3.95343896484375,3.1318273684084414,-1.899108550851792,1.9349016026362775
1783246132247451000,3.963450927734375,2.090869286200404,-2.161853916744888,0.6833209943518043
1783246132257462800,3.973462890625,0.5409533815950155,-1.7789391797691583,0.1538055370941758
1783246132267474000,3.983473876953125,-1.4977373890787362,-0.5594593446224928,0.5292904163300991
1783246132277485800,3.99348583984375,-4.675819728183746,1.197238777244091,0.26876754879206416
1783246132287497700,4.003497802734375,-8.318627949249745,1.6799989130675792,-1.3568956707149744
1783246132297510000,4.013510009765625,-11.38919976170659,0.047578182124346495,-4.1222330749869345
1783246132307521800,4.023521728515625,-13.509584480726717,-2.4785621973633765,-7.531902986785769
1783246132317532700,4.03353271484375,-14.259887299722433,-3.723924661785364,-9.389702352780104
1783246132327544800,4.043544921875,-15.293357072001696,-2.7744711433202025,-7.831535337179899
1783246132337556700,4.053556640625,-18.55604720107317,-1.196329407314211,-6.224674141037464
1783246132347569000,4.06356884765625,-23.654104499578473,-0.7524914150811731,-6.643609162682295
1783246132357580000,4.073580078125,-30.305519367575645,-1.6012852957062422,-9.904401933699846
1783246132367592000,4.083592041015625,-36.469697831118104,-2.612335877037048,-15.417179851025342
1783246132377604000,4.09360400390625,-40.78320049693584,-3.2744352196618913,-21.82828724877834
1783246132387616000,4.103615966796875,-40.40458930237293,-3.1079183772936463,-25.520298184430597
1783246132397628200,4.113628173828125,-32.83608530842066,-2.1524051203981043,-23.726276586341857
1783246132407639000,4.12363916015625,-22.419940305519102,-1.960456899653375,-18.644456136888266
1783246132417651000,4.13365087890625,-13.590437886595724,-2.279466735212505,-13.996343915319441
1783246132427662800,4.143662841796875,-7.336732881385087,-2.396668927052617,-10.165899491488933
1783246132437675000,4.153675048828125,-2.882760837647319,-2.5966668910011648,-6.56056847590208
1783246132447687000,4.16368701171875,0.5871884785473347,-2.442051498828828,-3.3129344616651535
1783246132457697800,4.17369775390625,3.155407565960288,-1.5718740539133549,-0.48385728341042994
1783246132467710000,4.1837099609375,4.574813176602125,-0.06674100162535905,1.9359777074351905
1783246132477721900,4.193721923828125,5.074733706063032,1.9723098345324397,4.012724067997932
1783246132487733800,4.203733642578125,5.206950803944468,3.8459924138352273,5.502004009854793
1783246132497745200,4.2137451171875,6.072576869165897,4.313802233286202,6.075647362652421
1783246132507757000,4.223757080078125,7.69734489339888,4.4658845998495815,6.10106821963489
1783246132517769000,4.23376904296875,9.392396998691558,5.1092964854002,6.271155321705341
1783246132527781000,4.243781005859375,10.537671779942512,5.6924120154201985,6.353279478162527
1783246132537793000,4.25379296875,11.121606809651851,5.899045179599523,6.49232905241251
1783246132547804000,4.263803955078125,11.602533884829283,5.968237958291173,6.829083803498745
1783246132557816000,4.273816162109375,12.111534377324581,5.988396949222683,7.088669390186667
1783246132567828000,4.283827880859375,12.380407432317734,6.014315818855166,7.085626369228959
1783246132577839900,4.29383984375,12.44132396557331,5.810138231134414,6.821503723633289
1783246132587852000,4.30385205078125,12.280776845264434,5.304668250852823,6.277457636719942
1783246132597863000,4.31386279296875,12.270849325489998,4.91792869489193,5.636241799908876
1783246132607874800,4.323874755859375,12.221200036180019,4.552570949655771,4.697471588021516
1783246132617887000,4.333886962890625,11.894894198393821,3.6525051469549537,3.589012625731528
1783246132627899000,4.34389892578125,10.536600935840607,2.3670962110877034,2.837198233129084
1783246132637910800,4.353910888671875,9.210662713447213,2.06183900654912,1.967411541096866
1783246132647922000,4.363921875,7.830679012611508,2.2065061284199357,1.1199439406394958
1783246132657933800,4.373933837890625,6.69550184700489,2.1706270057871935,0.8153612743616103
1783246132667946000,4.383946044921875,6.382847517952323,2.4817270911350846,1.5373440078020095
1783246132677958000,4.3939580078125,6.459423977154493,3.0263650064617393,2.6126824985176325
1783246132687969000,4.403968994140625,6.051119070595503,3.2832191223591565,3.0782080064237114
1783246132697981000,4.41398095703125,5.5780725195348255,3.2592724295824764,3.1132915947645903
1783246132707993000,4.4239931640625,5.6403264388740055,2.878517500989139,2.423472324434668
1783246132718005000,4.4340048828125,6.0628539320528505,2.193314053891599,1.2615512365482746
1783246132728017000,4.444016845703125,6.87485946624577,1.6713798455432056,0.34245807729437944
1783246132738028000,4.454028076171875,7.868318130654096,1.052020158970356,-0.44537192380204793
1783246132748040000,4.4640400390625,8.54685452107787,0.7713111202329397,-0.726157827167958
1783246132758051800,4.4740517578125,8.958224660426378,1.2639639967784284,-0.2561348617121577
1783246132768064000,4.48406396484375,8.915348226252197,2.18084474067986,0.8646673031918704
1783246132778076000,4.494075927734375,7.526188116270303,2.83320507183969,1.8798843565523624
1783246132788086800,4.504086669921875,7.108434413364529,3.3036037387400863,2.639813666549325
1783246132798099000,4.514098876953125,5.868640688985586,3.6660298144385215,2.8161113136976956
1783246132808110800,4.52411083984375,4.36055083271861,3.915900355058908,2.093605871557444
1783246132818122800,4.534122802734375,5.407238398489356,4.592861166729032,-0.3418447677016258
1783246132828134100,4.544134033203125,5.839760631459951,3.82666578207463,-2.0805786322019992
1783246132838146000,4.55414599609375,5.452223203119635,2.347636308336258,-1.8946851814515888
1783246132848158000,4.564157958984375,4.536584275972843,1.4241063356786965,-3.1174235800027845
1783246132858170000,4.574170166015625,4.409387052080035,1.4131985726952552,-2.9479233379095793
1783246132868182000,4.58418212890625,5.4857659917593,1.4211340418696403,-2.3311577594831583
1783246132878193000,4.59419287109375,7.349598792698979,0.9602005379289388,-1.3922924166582524
1783246132888205000,4.604205078125,5.670017812782525,0.2148848596960306,-0.7747767505168914
1783246132898217000,4.614217041015625,0.20862638382315635,-0.5732125601649284,-2.292940403161198
1783246132908228900,4.624228759765625,-6.323690395584702,-0.711775812202692,-2.8984798003047705
1783246132918241000,4.634240966796875,-12.48851124868393,-1.6534575276225805,-5.359688127285242
1783246132928252000,4.644251953125,-16.389423293447493,-2.140478828021884,-7.898123486331105
1783246132938263800,4.654263916015625,-16.863437812757493,-2.2352917856603858,-7.790062340062856
1783246132948276000,4.66427587890625,-15.171134713912009,-2.7739894972831007,-5.3538885010957715
1783246132958288000,4.674287841796875,-12.691615069693325,-2.47435948497653,-3.6458436432391403
1783246132968299000,4.684299072265625,-10.584452235817908,-1.9003093049436806,-3.487837439584732
1783246132978311200,4.694311279296875,-8.765728158149123,-2.8724481179475783,-3.096322047524154
1783246132988323000,4.704322998046875,-7.359934308752417,-4.850402388107776,-2.3101462433755398
1783246132998335000,4.7143349609375,-9.445140746885537,-7.629559643417596,-0.9928612830370664
1783246133008347100,4.72434716796875,-16.368099934911726,-8.621806593948602,-0.9598686756260693
1783246133018358000,4.73435791015625,-25.203695410013196,-4.936625212055445,-2.514868605497479
1783246133028370000,4.744369873046875,-29.951495501780506,-0.04818856910765171,-3.469127478417754
1783246133038382000,4.754382080078125,-27.39936304129362,1.7519962277859449,-3.5848154663026333
1783246133048394000,4.76439404296875,-19.421338335251807,0.34978608209490775,-3.071566376452148
1783246133058406000,4.774406005859375,-10.953522864097357,-1.7754525066971778,-2.384666500700265
1783246133068417000,4.7844169921875,-4.3161108024895185,-2.5219535953223704,-1.7459280137881636
1783246133078429000,4.794428955078125,-0.151263159134984,-1.7880325868070124,-0.8122827436991036
1783246133088440800,4.80444091796875,2.362844983384013,-0.316459858815372,0.10266465751957148
1783246133098453000,4.814452880859375,3.7513591966778037,0.7372820093810558,1.0459962955709545
1783246133108465000,4.82446484375,4.194023468956351,0.6501382711961865,0.48343953292239455
1783246133118476000,4.83447607421875,4.612651616609096,0.49479456474930045,-0.45423930353168396
1783246133128488000,4.844488037109375,4.680377245357632,0.6772755767077208,-0.4457989901077002
1783246133138500000,4.8545,4.6653743220150465,0.864829361885786,-0.32665410323459654
1783246133148512000,4.864511962890625,5.035353297311067,1.0090084079787134,-0.10584942503552883
1783246133158523000,4.87452294921875,5.559462511610985,1.4723279302731156,0.5385744505692273
1783246133168535000,4.88453515625,5.668612037637829,1.8610215429112313,1.8301672627031802
1783246133178547000,4.894546875,5.737433060407638,1.278916358977556,2.4960429089963436
1783246133188559000,4.90455908203125,5.920789978417754,0.5417214433580637,2.7979668774589896
1783246133198571000,4.914571044921875,6.202089968785643,-0.41241351092159745,3.8752088637083766
1783246133208582000,4.924581787109375,7.493059169128537,0.24536738398224114,3.277009161803126
1783246133218594000,4.934593994140625,6.421304966640472,1.3400155553236603,1.6220122957840561
1783246133228606000,4.94460595703125,4.589491690295935,1.2448451625496149,0.348017976443842
1783246133238617900,4.954617919921875,3.3757232185333965,0.6931441769689322,0.18040086294980717
1783246133248630000,4.964630126953125,3.7208261112481353,0.4041825659319758,0.6553181580521166
1783246133258641000,4.974640869140625,5.405547961184382,0.6700470867589116,0.8970353489637375
1783246133268652800,4.98465283203125,5.98223024328649,0.6028437283188104,1.1921770368751137
1783246133278665000,4.9946650390625,5.871615320882201,0.27137919259518384,1.1020303174819797
1783246133288676900,5.0046767578125,5.463701459467411,0.9659384970590472,0.8532109664149582
1783246133298688000,5.01468798828125,4.549989116469026,1.4950693389132619,0.7944852212019264
1783246133308700000,5.024699951171875,3.6523873657941817,1.1583604727953671,0.7414628021970391
1783246133318712000,5.034712158203125,3.6305016972005366,1.10788817666471,0.7308538760297
1783246133328723500,5.044723388671875,3.6769027983695266,1.3181065058544277,1.0564617946796118
1783246133338735400,5.0547353515625,3.5912674189209937,1.5703820617899298,1.654864764072001
1783246133348746200,5.064746337890625,4.5498236967742445,0.7092249586760997,1.2317727688781916
1783246133358758400,5.07475830078125,4.918694418567418,-0.034468379051983355,1.584164211165905
1783246133368770300,5.084770263671875,5.352204493531584,0.4028992481231689,2.143163098669797
1783246133378782200,5.0947822265625,6.338244990637898,0.9930249491661787,2.088138984453678
1783246133388794400,5.10479443359375,5.634841285461187,0.8530340024128555,1.7749276060402392
1783246133398805500,5.114805419921875,4.956729257929325,0.8904851966679096,1.2653082509942353
1783246133408817400,5.1248173828125,4.540163888025283,1.0244713500484823,0.48361046904250976
1783246133418829600,5.13482958984375,4.414961052820086,0.3296963570073247,-0.37497177861463277
1783246133428841500,5.144841552734375,3.94491602166295,-0.29471564451903104,-1.098570605482161
1783246133438852400,5.154852294921875,4.1408886756181715,-0.4344999627843499,-2.1483505843102932
1783246133448864300,5.1648642578125,1.7184569462776182,-0.16154226882606743,-3.9524505088210105
1783246133458876400,5.17487646484375,-2.340629059922695,-0.6077294545337557,-4.662898871812224
1783246133468888300,5.184888427734375,-5.163824778923392,-1.5399080130711198,-4.318401251514255
1783246133478900500,5.194900390625,-7.381124396297335,-2.7969021708369253,-4.23346203763634
1783246133488911400,5.204911376953125,-8.865590215870737,-4.6988107276707884,-3.8752147089272735
1783246133498923300,5.21492333984375,-9.635818801563978,-5.698441943234205,-3.169851978637278
1783246133508935200,5.22493505859375,-10.371099407994746,-5.378605593723059,-2.3495028328604994
1783246133518947300,5.234947265625,-11.493404817068576,-4.097594016031921,-0.9000140725135802
1783246133528959200,5.244959228515625,-12.361857045626639,-2.551404730734229,0.6295231339950114
1783246133538970000,5.25497021484375,-12.110220372116565,-2.06036484234333,1.4995884237729011
1783246133548982300,5.264982177734375,-12.66081427323818,-2.895882769548893,1.9269630647219715
1783246133558994200,5.274994140625,-13.069161265373229,-4.214352848018706,1.5434997539527713
1783246133569006300,5.28500634765625,-12.036696870744228,-4.427816735000908,0.5966776069045067
1783246133579018200,5.295018310546875,-10.665380460488796,-3.890854468868673,-0.6732911832466721
1783246133589029400,5.305029296875,-8.889708758082985,-4.070419301119447,-2.5469553501099345
1783246133599041300,5.315041259765625,-6.81599986552,-4.214439649519324,-4.1344554277002805
1783246133609053400,5.325053466796875,-4.889035777884722,-3.3533170331969857,-4.897201548683643
1783246133619065300,5.3350654296875,-4.298385760706663,-1.5248282251000402,-5.100393632498383
1783246133629076200,5.345076171875,-4.4176779105633495,0.6950988181680441,-4.795612228778005
1783246133639088400,5.35508837890625,-4.166433451241255,2.0736358273267745,-4.302034638603032
1783246133649100300,5.365100341796875,-3.53342137915194,2.260076390565932,-3.6790211056977506
1783246133659112200,5.3751123046875,-2.7912328930288552,1.7940584229677914,-2.7994693909764288
1783246133669124400,5.385124267578125,-1.9128063829451798,1.5477341766521333,-1.4399002632685005
1783246133679135200,5.39513525390625,-1.0579384431034327,1.821847470386326,0.0990908541534096
1783246133689147100,5.405147216796875,-0.09431728307604789,2.1809178059160708,1.649448584242165
1783246133699159300,5.4151591796875,0.6466361082941293,2.1416990174666046,3.1661893644765016
1783246133709171200,5.425171142578125,2.0259809267044067,1.772674128025025,3.2274083878099917
1783246133719183400,5.435183349609375,4.068887853768468,1.298018680462986,1.913190121565759
1783246133729194500,5.445194580078125,5.035212427535653,0.9883270006082951,1.1511218267787247
1783246133739206400,5.455206298828125,4.81537199125886,1.4397662616252898,0.9776873139765113
1783246133749218300,5.46521826171875,4.720962938246131,1.4835044271953404,1.9161431261524557
1783246133759230500,5.47523046875,4.760066868144273,1.0871434947997332,2.2807946228154004
1783246133769241300,5.485241455078125,4.576857834172249,0.8688290990464389,1.758928072875738
1783246133779253200,5.495253173828125,4.602404363361001,0.702418055140227,0.8736443173084407
1783246133789265400,5.505265380859375,4.619895596387982,0.33713016026988624,0.21655553285460918
1783246133799277300,5.51527734375,5.168187065786123,0.13121829610243438,-0.05990118220057338
1783246133809289200,5.525289306640625,6.186394387003779,0.5562693164095283,-0.20047270532082764
1783246133819300400,5.53530029296875,7.224194881963729,1.1266579051949084,-0.13325422237683088
1783246133829312300,5.545312255859375,7.848601038271188,1.5132999921306967,-0.0011779942708089947
1783246133839324200,5.55532421875,8.339110765308142,1.4654068988382816,-0.08790960799083113
1783246133849336300,5.56533642578125,8.803563091024756,1.2565275631673634,-0.19855456020720302
1783246133859348200,5.57534814453125,9.316465851655602,1.42165660443902,-0.3240970026303083
1783246133869359400,5.585359375,9.562002454724908,1.5599328562289476,-0.5300803976640105
1783246133879371500,5.59537158203125,9.64413304092288,1.3647406851269304,-0.6804229348227381
1783246133889383400,5.605383544921875,9.521602055275439,1.148367048177868,-0.7745179534502327
1783246133899395300,5.615395263671875,9.042719637668132,1.1115095820322631,-0.7899603641886264
1783246133909406500,5.625406494140625,8.219484268930554,1.2729473675705492,-0.6981650738708675
1783246133919418400,5.63541845703125,7.003719654914736,1.5097402538225053,-0.4296825525652617
1783246133929430300,5.64543017578125,5.45320286180675,1.8872313583143054,-0.26977139207236467
1783246133939442400,5.6554423828125,4.076854302603006,2.6309850479274988,-0.3003281506385654
1783246133949454300,5.665454345703125,3.143459938535094,3.3906644748166204,-0.40550782318636774
1783246133959465200,5.67546533203125,3.1397645911484955,3.3042283003792163,-0.8732187853727489
1783246133969477400,5.685477294921875,3.7029216212451455,2.096734378841519,-1.7711802362054585
1783246133979489300,5.6954892578125,3.8417531688302753,0.962521966613829,-2.7745462543830275
1783246133989501200,5.705501220703125,3.6694694334983824,0.66679568374753,-3.228888397234678
1783246133999513300,5.715513427734375,3.423143725878,0.9758929048404097,-2.7187618233188986
1783246134009524200,5.725524169921875,2.846251015895605,1.1577613378584384,-1.9760826310694217
1783246134019536400,5.735536376953125,1.226090193197131,0.4901935006946325,-1.5369139458216725
1783246134029548300,5.74554833984375,-1.9751783757060766,-1.3473781930461526,-1.6961492528796196
1783246134039560200,5.755560302734375,-5.923312190371751,-3.5960184128403663,-2.5031688153535128
1783246134049571300,5.7655712890625,-8.896654631698132,-4.8549993605092165,-3.422576739645004
1783246134059583500,5.77558349609375,-11.824041962057352,-4.947631759238242,-3.9026650259107347
1783246134069595400,5.785595458984375,-14.35280640643835,-4.733313301253318,-3.2457325645297765
1783246134079607300,5.795607177734375,-14.990816725206374,-4.096737399202585,-0.6473981787078082
1783246134089619500,5.805619384765625,-14.656215352761745,-3.2786382243096828,2.544199329400062
1783246134099630300,5.81563037109375,-13.221859425747393,-2.9257109215795993,4.918976158118248
1783246134109642200,5.825642333984375,-11.75155189538598,-3.373511972224712,5.536283880597352
1783246134119654400,5.835654296875,-10.763500642979144,-4.3386172333300115,4.231503597044944
1783246134129666300,5.845666259765625,-9.63419149262309,-5.179642525780201,1.8306866104021666
1783246134139678200,5.85567822265625,-8.472961601871251,-5.357654575631022,-0.7602429790560156
1783246134149689300,5.865689453125,-8.237092990857363,-5.11809938505888,-2.592024325892329
1783246134159701200,5.875701171875,-8.59390911771953,-3.766094116733968,-2.9622981924816965
1783246134169713200,5.885713134765625,-8.1591218624264,-1.6977321381568908,-2.1775991828873753
1783246134179725300,5.895725341796875,-7.290808750078082,-0.16022943266183137,-1.2809136702746151
1783246134189736400,5.905736328125,-5.342828762421012,0.6502051989525556,-0.18914448843561113
1783246134199748400,5.915748291015625,-1.929343091726303,0.9502499295398592,0.9091231155119835
1783246134209760500,5.925760498046875,1.5363000517070293,1.0173933744862675,1.537333486407995
1783246134219772400,5.9357724609375,4.210219401475787,1.1533955438643693,1.3364869428060948
1783246134229784300,5.945784423828125,5.687716551080346,1.338904671472311,0.8060073166914283
1783246134239795500,5.95579541015625,5.8975850439190864,1.5314502735882998,0.38409495973624286
1783246134249807400,5.965807373046875,5.338706714054942,1.432050280420482,0.051223470690986136
1783246134259819300,5.9758193359375,4.9764147861301895,0.8884194963097571,-0.6985114761557429
1783246134269831400,5.98583154296875,4.39895275182724,0.39371553245335816,-0.4637150974832475
1783246134279843300,5.99584326171875,3.678918229845166,0.43744975250065327,-0.13773597090076653
1783246134289854200,6.005854248046875,3.3344249934613703,0.8496011053547262,0.0346617827322334
1783246134299866400,6.015866455078125,3.2607331497848033,1.2379729386925697,0.4833854281149804
1783246134309878300,6.025878173828125,3.5513322988957166,1.3047468196742236,0.9711704794283955
1783246134319890200,6.03589013671875,4.1111160531669855,1.2702020143851638,1.3063079315111041
1783246134329901600,6.045901611328125,4.914406950506567,1.321358493387699,1.3847719580255449
1783246134339913700,6.055913818359375,5.94269142910242,1.3628406967245041,1.4404139118790626
1783246134349925600,6.065925537109375,6.870255771842599,1.3200000645160674,1.3441840731799601
1783246134359937800,6.075937744140625,7.612845824503898,1.474815070913732,1.1620678759459406
1783246134369949700,6.08594970703125,8.291765076765417,1.5603317924186586,0.9005487639121711
1783246134379960800,6.0959609375,9.114977064627409,1.473543151281774,0.6673740681573748
1783246134389972700,6.10597265625,9.919942032659053,1.2619272302538156,0.5653409500069916
1783246134399985000,6.11598486328125,10.339752668094635,1.2330290525496006,0.760399411726743
1783246134409996800,6.125996826171875,10.164663812214135,1.486656023094058,1.36702587345466
1783246134420008700,6.1360087890625,9.564036006379126,1.6826266312226652,2.0877596297472714
1783246134430019800,6.146019775390625,8.542550101882219,1.7158108156830072,2.30166439236477
1783246134440031700,6.15603173828125,7.181948562386632,1.6940516960784793,2.2000521299749614
1783246134450043600,6.166043701171875,5.67291879492104,1.845966304859519,2.1817209389925
1783246134460055800,6.176055908203125,3.908738792866468,1.9086418106116354,2.2424974792554973
1783246134470067700,6.186067626953125,1.6780998014479875,1.957027948118001,2.1385086969926954
1783246134480078600,6.19607861328125,-0.4936059394866228,2.1761849321752784,1.7853512387685477
1783246134490090800,6.2060908203125,-1.5801269184738396,2.114913009610772,0.9423367452625184
1783246134500102700,6.2161025390625,-2.3744395595878363,1.7990126843743026,0.08612568371612578
1783246134510114600,6.226114501953125,-2.283800672763586,1.5699557992018758,-0.32287849368602034
1783246134520126000,6.2361259765625,-1.702405390664935,1.2402148724004625,-0.16128792873881756
1783246134530137900,6.246137939453125,-1.2517986349493264,0.6817118055894971,0.06792078599445521
1783246134540149800,6.256149658203125,-0.675980860722065,-0.06896598419845104,0.043884186444617806
1783246134550162000,6.266161865234375,-0.5452946256697178,-1.3327639767602086,-0.38105150038711727
1783246134560173800,6.276173828125,-1.891087887611985,-2.286777350486815,-1.0869726682774723
1783246134570184700,6.286184814453125,-4.484509220820665,-2.593810917048156,-1.8446689585253595
1783246134580196900,6.29619677734375,-7.028897935312986,-2.97733297226727,-2.288172311976552
1783246134590208800,6.306208740234375,-9.324570247656107,-3.573767710326612,-2.0309569615513086
1783246134600220700,6.316220703125,-11.773287926375865,-4.071068412677944,-0.8021791367053985
1783246134610232800,6.32623291015625,-14.641384863376617,-3.1324200736045835,1.4134510861515999
1783246134620243700,6.33624365234375,-16.443281140363215,-1.970653007236123,3.952046604195237
1783246134630255600,6.346255615234375,-16.897857968753577,-2.2248858347192404,5.325914452499151
1783246134640267800,6.356267822265625,-17.001628139829634,-2.2632716794759036,5.599666511705517
1783246134650279700,6.36627978515625,-16.921490188753605,-2.2058216532871127,5.097932795342802
1783246134660290800,6.376290771484375,-16.30636273292303,-2.403627660149336,3.722856448031962
1783246134670302700,6.386302734375,-15.03295724632144,-2.2727029401659964,1.685510662226379
1783246134680315000,6.39631494140625,-13.558286844575404,-2.3527377231284974,-0.5440193450368941
1783246134690326800,6.406326904296875,-12.19700784420967,-2.55295137565434,-2.6378958502292633
1783246134700339000,6.4163388671875,-10.659926871258019,-2.6161305931448937,-3.880007203900814
1783246134710349800,6.426349853515625,-8.1751780942142,-2.4627777682542797,-3.8549388136178253
1783246134720361700,6.43636181640625,-5.119653044241667,-1.924900725364685,-2.8229183633640407
1783246134730374000,6.446373779296875,-2.0926696136206386,-1.074151911279559,-1.321438572886586
1783246134740385800,6.4563857421875,0.5493354254931211,-0.006840367414057255,0.15954557858351617
1783246134750397700,6.466397705078125,2.8285324038535355,0.9088213560864329,1.345027246005833
1783246134760408600,6.47640869140625,4.794023498281836,0.9323924935489892,2.100670256985724
1783246134770420700,6.486420654296875,6.4578194645673035,0.4464814924791455,2.2655305643185972
1783246134780432600,6.4964326171875,7.54092625119686,0.23633126008957622,2.035700356686115
1783246134790444800,6.50644482421875,8.050295577004551,0.42417350682020183,1.6245736707046627
1783246134800456000,6.5164560546875,8.259341063022614,0.7371896549224853,1.2742958595700562
1783246134810467800,6.5264677734375,8.464688863566517,1.1197931339919567,1.3021540267020464
1783246134820479700,6.536479736328125,8.441719491389394,1.7687080008730292,1.6074199990689753
1783246134830492000,6.546491943359375,7.822163697722554,2.226226143412292,1.7646990574926138
1783246134840503800,6.55650390625,7.264359719091654,2.0987387044012547,1.6691811664551495
1783246134850514700,6.5665146484375,6.931577378767728,1.8738748870044946,1.3650811691276727
1783246134860526800,6.57652685546875,7.1474810601174825,1.7346791822820902,0.704316582237929
1783246134870538800,6.586538818359375,7.6785490075141185,1.6002973075821996,-0.033650075805885714
1783246134880551000,6.596551025390625,8.321942188364266,1.572356576733291,-0.5326375348009169
1783246134890562800,6.606562744140625,9.000679654318093,1.651694025081396,-0.7629032112412154
1783246134900573700,6.61657373046875,9.547149753507972,1.7588357184171675,-0.7827775400124489
1783246134910585600,6.626585693359375,9.903262116014957,1.9742527852937577,-0.4679019547138363
1783246134920597800,6.63659765625,9.85838252532482,2.023594616089761,0.015157444900728295
1783246134930609700,6.646609619140625,9.470176988464594,2.0284531620368362,0.4021627505421638
1783246134940621800,6.656621826171875,8.761768606868385,2.2393404765293,0.6961078490801155
1783246134950632700,6.6666328125,7.822426732572913,2.5184914721697567,1.0015371222499758
1783246134960644600,6.67664453125,6.893948197597265,2.7550495267525315,1.310518096552044
1783246134970656500,6.686656494140625,5.8921092428565025,2.8846786539673803,1.4497335288882254
1783246134980668700,6.696668701171875,4.831405426692962,2.8147645752638577,1.1996876317009328
1783246134990679800,6.7066796875,4.111156969699263,2.701241071936488,0.9661638302475214
1783246135000691700,6.716691650390625,3.5743987017065284,2.654382874649763,0.8068746741104871
1783246135010704000,6.726703857421875,3.1590187421947715,2.5445833602815866,0.5733550373755395
1783246135020715800,6.7367158203125,2.7916163393884896,2.2239140670776365,0.1379370372976642
1783246135030728000,6.74672802734375,2.158413128641248,1.857609104119241,-0.37986484788581726
1783246135040738800,6.75673876953125,0.8444581895083189,1.617793801306188,-0.6296034326896071
1783246135050750700,6.766750732421875,-0.7711924622893332,1.32928285664618,-0.5107731281910092
1783246135060762600,6.7767626953125,-1.4606418763935565,0.8757809640109538,-0.5040112328406423
1783246135070774800,6.78677490234375,-1.5971347518980503,0.28675708673000333,-0.5889832530096173
1783246135080786700,6.79678662109375,-2.3041093012988565,-0.5858414478525519,-0.5918249792415649
1783246135090797600,6.806797607421875,-4.271397800537944,-1.8761165284514425,-0.6008426906947046
1783246135100809700,6.816809814453125,-7.0286500980317586,-3.5128830335140226,-0.7560532722812146
1783246135110821600,6.826821533203125,-10.530776759731769,-4.862681439444422,-0.8268456681892276
1783246135120833500,6.83683349609375,-14.529175365257263,-4.968316819870472,-0.5132189139079302
1783246135130845000,6.846844970703125,-16.938612003946304,-4.275332217377424,0.3725686995282769
1783246135140856800,6.85685693359375,-16.924570619112252,-4.085891303278506,1.7450550303459167
1783246135150868700,6.86686865234375,-16.16637792364955,-4.073255109067261,3.1055662612095474
1783246135160881000,6.876880859375,-14.315665885567665,-3.7346062147974965,4.423950999483466
1783246135170892800,6.886892822265625,-11.784276937901973,-3.8771296026378868,5.189653047662973
1783246135180903700,6.896903564453125,-10.971707340085505,-4.588578082582354,3.552951424530148
1783246135190915800,6.906915771484375,-13.560219273942709,-4.948136786150932,-0.39427119357474144
1783246135200927700,6.916927734375,-16.91952151902914,-3.618122108098864,-3.401683004698157
1783246135210939600,6.926939697265625,-18.246353475391864,-1.991449711549282,-4.8650218650907275
1783246135220951800,6.936951904296875,-16.69079342741966,-1.0756836508914827,-4.9955619696706535
1783246135230962700,6.946962646484375,-11.745427275025843,-0.15449790327250956,-3.7005943473413585
1783246135240974600,6.956974609375,-5.679207665932178,0.734168845796585,-1.6264966015912592
1783246135250986800,6.96698681640625,-0.21639584878087043,1.1538608232885599,0.08719195210761391
1783246135260998700,6.97699853515625,4.714245612689853,0.9548179681077599,1.0843271952699869
1783246135271010600,6.987010498046875,8.02278973044157,0.24880145008414983,1.1307763733644038
1783246135281022000,6.99702197265625,8.940630551546812,-0.4342036101862788,0.6752178404603153
1783246135291033900,7.007033935546875,8.109179727649689,-0.3969152052775025,0.15930778777226806
1783246135301045800,7.017045654296875,6.388827176883816,0.257868845897913,-0.16522833692766725
1783246135311058000,7.027057861328125,4.726860179591179,0.911724968573451,-0.29006182736381886
1783246135321068800,7.03706884765625,3.6530548897922035,1.551188701020181,0.010749138355627656
1783246135331080700,7.047080810546875,3.2231992456823586,1.8964032374158502,0.6218520148452371
1783246135341092900,7.0570927734375,3.021394232311845,1.9145120178192854,1.2066289752714334
1783246135351104800,7.067104736328125,3.2265093931436537,1.9496613648727534,1.797066518742591
1783246135361116700,7.07711669921875,3.4880151342391965,2.0363699265107513,2.2229051822960377
1783246135371127800,7.0871279296875,3.398808910566568,2.118839243143797,2.2609226321317255
1783246135381139700,7.0971396484375,3.6298879492163656,2.3488450996041297,1.9939060186602173
1783246135391151600,7.107151611328125,4.455000802263617,2.621000245007872,1.667381569687277
1783246135401163800,7.117163818359375,5.915680672580003,2.5343688402593134,1.2082602297350764
1783246135411175700,7.12717578125,7.847810180154442,2.081682063399255,0.5770070570770651
1783246135421186600,7.1371865234375,9.604330607366562,1.7608268922343848,0.058280997120216484
1783246135431198700,7.14719873046875,10.962439161002635,1.6033926432490349,-0.18597546647805718
1783246135441210600,7.157210693359375,11.68916587409973,1.5291080943763256,-0.20796744499038905
1783246135451222800,7.167222900390625,11.682612214672565,1.6444798559188842,0.07372877815347165
1783246135461234000,7.17723388671875,10.917314071118831,1.9270050041675566,0.7153802664354443
1783246135471245800,7.187245849609375,9.634041270497441,2.2315154819920657,1.2526058596789835
1783246135481257700,7.1972578125,8.197471174564956,2.373651039558649,1.3722681580223142
1783246135491270000,7.207269775390625,6.868167859652638,2.7027763186797498,1.5390379522383213
1783246135501281800,7.21728173828125,5.891977140909433,3.1176421911895273,1.8643327132858334
1783246135511292700,7.227292724609375,5.070681215801835,3.356997767536342,2.0511992468520996
1783246135521304800,7.237304931640625,4.588264778849482,3.3343697561427947,1.8497880551047623
1783246135531316700,7.247316650390625,4.544275414997339,3.221228822392225,1.3657668133042753
1783246135541328600,7.25732861328125,5.087278714859485,3.1358897955417633,0.9415091353319585
1783246135551340800,7.2673408203125,5.591984140509367,3.092880674898624,0.779262956020236
1783246135561351700,7.2773515625,6.066144205769896,2.8476190893784166,0.5289753955641762
1783246135571363600,7.287363525390625,6.469197183150053,2.485138945405185,0.047388687434233724
1783246135581375700,7.297375732421875,6.594012480342387,2.0341987199515104,-0.296339665524289
1783246135591387600,7.3073876953125,6.38436435225606,1.7090534503772854,-0.34624804416187105
1783246135601399600,7.317399658203125,5.764686393514276,1.5703066584661602,-0.26498426739368586
1783246135611411000,7.327410888671875,4.646950192052126,1.6813991352543234,-0.22188505731429903
1783246135621422800,7.3374228515625,3.165186032652855,1.6769675825476646,-0.12136446261871606
1783246135631434800,7.347434814453125,0.9035650429934262,1.4995646045058966,0.12354998996425419
1783246135641447000,7.357447021484375,-1.3352701143622399,1.2028627546057105,-0.023906251168437302
1783246135651457800,7.367457763671875,-2.749550052553415,0.16980536251962183,-0.558721604932472
1783246135661469700,7.3774697265625,-4.297100397071242,-0.6235492472171783,-1.534753552917391
1783246135671481900,7.38748193359375,-4.22062155302465,-1.386546420352161,-2.116580066040158
1783246135681493800,7.39749365234375,-4.688403315424919,-2.5327754335880277,-1.9266510761633515
1783246135691505700,7.407505615234375,-5.446370385438203,-3.3769173967540262,-1.3018436455786226
1783246135701516500,7.4175166015625,-6.574646685615182,-3.23040493927747,-0.722310211829096
