time,seconds_elapsed,z,y,x
1783246281006969600,0.061969482421875,-0.13979016348421572,0.4011149950549006,0.5724683542015031
1783246281016981800,0.071981689453125,0.005404489392042159,0.6950006184905767,0.2743723099965602
1783246281026993000,0.081992919921875,-0.107898064661026,1.0729071719154715,0.36619551123455163
1783246281037004800,0.0920048828125,0.4218360037833452,0.9280915814846753,0.01347626176457852
1783246281047016700,0.1020166015625,0.3623024493187666,1.5500459607258439,0.7712823325298727
1783246281057028900,0.11202880859375,0.2629974409580231,0.9724810505703091,0.6851426568210125
1783246281067039700,0.122039794921875,0.09542202944755554,-0.19736878448873757,0.18266878961548208
1783246281077051600,0.1320517578125,-0.21229367415904998,-0.8647969209209084,0.33789562821704894
1783246281087063800,0.142063720703125,-0.33030162942409513,-0.7457564077377319,0.32531470785699784
1783246281097074700,0.15207470703125,-0.16516425871551035,-0.6272907718330621,0.5433398748727515
1783246281107086600,0.162086669921875,-0.11399871962368488,-0.8790580859854817,1.0045904454059897
1783246281117098800,0.1720986328125,-0.11270283459424972,-0.9560106850236654,1.2862274126432836
1783246281127110700,0.182110595703125,0.3014122195482254,-0.5561880678668618,1.5290125250473618
1783246281137121800,0.192121826171875,0.9334978244423866,0.1632236460417509,1.589445950961113
1783246281147134000,0.202134033203125,1.5932628789007663,0.7231085225999355,1.4226532142609356
1783246281157145900,0.212145751953125,2.029315039563179,0.9579588964819907,1.19170372027494
1783246281167156700,0.22215673828125,2.3411545451015234,1.012032431975007,0.9254371945183724
1783246281177169000,0.2321689453125,2.4960370637774467,0.934705446666479,0.6308327552888542
1783246281187180800,0.242180908203125,2.421830840837955,0.6946838076263666,0.24662450790386645
1783246281197192700,0.252192626953125,2.22267604971528,0.36247312971055506,-0.24537326573375612
1783246281207203600,0.26220361328125,1.9062644139558076,0.02631049929857254,-0.907428878814727
1783246281217215700,0.2722158203125,1.814979045921564,-0.07338730777204036,-1.4290307864688336
1783246281227227600,0.2822275390625,2.1554256372630594,0.3305813231483102,-1.4629663738183676
1783246281237238500,0.292238525390625,2.6706723306715485,1.1238964776575564,-1.0655250988401472
1783246281247250700,0.302250732421875,3.1910072871297595,2.0134744963526723,-0.5974112184086814
1783246281257262600,0.3122626953125,4.003548243373632,2.6980124652788042,-0.2915231686206534
1783246281267273700,0.322273681640625,4.0954783390522005,3.1184432784393428,0.01190664696083404
1783246281277286000,0.332285888671875,4.130830807462335,3.6832448608726263,0.49056598726883527
1783246281287297800,0.3422978515625,4.900009591841697,4.129182455733418,0.2892998300153762
1783246281297309700,0.352309814453125,5.253626045879721,4.0324399913370605,0.27618553343098606
1783246281307320800,0.36232080078125,5.248157843601703,3.892693082472682,1.1708249637015162
1783246281317332700,0.372332763671875,4.84992892537713,4.231320057171583,2.2735070961557327
1783246281327344600,0.3823447265625,4.076906325051188,3.8866824438810346,1.6928198161959647
1783246281337355500,0.39235546875,3.4049475594520566,2.993331920909881,0.2081844852745533
1783246281347367700,0.40236767578125,2.4606857644110915,1.9485873059004544,-1.2718519735492766
1783246281357379600,0.412379638671875,1.5825865865856408,0.9773670690461993,-2.245599244663119
1783246281367391700,0.422391845703125,0.6433475881427526,0.10364420660883188,-3.1870722857683895
1783246281377403000,0.43240283203125,-0.8097609701365232,-0.7417004103451966,-3.4504020274206995
1783246281387414800,0.442414794921875,-2.8794354926168917,-1.1216285327255726,-2.6091703987434505
1783246281397427000,0.452427001953125,-4.031939056077599,-1.144352990230918,-1.3853475659564136
1783246281407437800,0.462437744140625,-4.038783807405829,-1.4599290519490837,-0.3903953750547021
1783246281417449700,0.47244970703125,-5.8288704041332,-2.378930441266298,1.0696891597170382
1783246281427461600,0.482461669921875,-7.670659715569019,-2.660789526821673,2.7376892266288397
1783246281437473800,0.492473876953125,-8.870152409219742,-1.8574393005102872,4.57243534155488
1783246281447484700,0.502484619140625,-8.113071474391221,-1.0929302615076302,5.508763420987129
1783246281457492000,0.512491943359375,-5.754677625197171,-3.2687966292530297,3.948885509815812
1783246281467503900,0.52250390625,-5.3552293943107125,-5.573472332262993,0.9591554127901792
1783246281477515000,0.532514892578125,-6.337863882365823,-7.0879586115688085,-2.6115929497152566
1783246281487527000,0.54252685546875,-6.977218601480126,-10.31495374240279,-6.695134182736277
1783246281497538800,0.552538818359375,-9.21715558259785,-14.01751763625145,-8.910152411174774
1783246281507551000,0.562551025390625,-7.232920624732971,-11.706554231274128,0.024396190109848975
1783246281517561900,0.572561767578125,-11.470585082495212,-9.158772367212176,6.320275034183263
1783246281527573800,0.58257373046875,-17.687668622273204,-8.17301477870047,9.755329562607407
1783246281537586000,0.5925859375,-19.894527509653567,-6.429983363136649,9.843267958301306
1783246281547597000,0.60259716796875,-18.330636855709553,-5.983935293638706,6.884764189666509
1783246281557609000,0.61260888671875,-16.748151391410826,-5.7737418066293,4.601674003259838
1783246281567621000,0.62262109375,-14.686379020357132,-4.791507423807681,2.437210926929861
1783246281577633000,0.632633056640625,-11.40011161634326,-3.999326241764426,1.3942828598231076
1783246281587644000,0.642643798828125,-8.183509869229793,-3.3278350936770438,0.8513527713276445
1783246281597656000,0.652656005859375,-5.10509961823225,-2.8558804295063016,0.3170867585420608
1783246281607668000,0.66266796875,-2.124694398912787,-2.6123750400036574,-0.01483311973363161
1783246281617678800,0.672678955078125,1.2469628853559493,-2.006535637000203,0.24545973844081162
1783246281627690800,0.682690673828125,4.49369381327331,-0.9284609993189573,0.7871174689128995
1783246281637703000,0.692702880859375,7.182621931603551,0.057529813426733016,1.0848951313510538
1783246281647713800,0.7027138671875,9.337257879793643,0.8352852874934673,0.7853019439235329
1783246281657725700,0.7127255859375,10.73863040561676,1.6244284170150756,0.14989508565217255
1783246281667737900,0.72273779296875,11.456537852442263,2.776352719283104,-0.34306583392918105
1783246281677749800,0.732749755859375,11.350212151664495,3.783333713087439,-0.7850131901100278
1783246281687761000,0.742760986328125,10.730505551350117,4.692145424562693,-1.47259008834064
1783246281697773000,0.75277294921875,9.847516263395548,5.623360106503963,-2.433064474774897
1783246281707785000,0.762784912109375,8.914298424938321,5.85885988420546,-3.2629616394892333
1783246281717795800,0.7727958984375,7.881882545626163,5.426593087300658,-3.2440012106925247
1783246281727808000,0.78280810546875,7.137018118292093,5.480504710230231,-3.0636200936228035
1783246281737820000,0.79281982421875,6.94772479597032,5.930955398601293,-3.01495046299994
1783246281747831800,0.802831787109375,7.3107111359000205,6.007332535839081,-3.0462638851523396
1783246281757842700,0.8128427734375,8.175603626149892,5.86361613882184,-3.2170594277530906
1783246281767854800,0.822854736328125,9.383193701538444,5.518061995208263,-3.378439199493825
1783246281777866800,0.83286669921875,10.387347947484255,5.093887319344282,-3.6258220149517055
1783246281787878000,0.8428779296875,10.757246258759498,4.783997194308042,-3.8956984017685055
1783246281797890000,0.85289013671875,10.484938553142547,4.519072584679723,-4.418294581156969
1783246281807902000,0.86290185546875,9.591592121824622,4.235562809307873,-4.986048875916004
1783246281817914000,0.8729140625,8.22171071280837,3.8268388005539773,-4.785697568485141
1783246281827925000,0.882925048828125,6.558071982911229,3.3718145206570624,-3.999876569123566
1783246281837937000,0.89293701171875,4.9600931814044715,2.698859729757905,-3.682579090440273
1783246281847948800,0.90294873046875,3.495686984041333,2.0527596280366183,-3.7028231293067333
1783246281857960000,0.9129599609375,2.6328958499848842,1.5673764502331613,-3.5734269340649245
1783246281867971800,0.922971923828125,2.5168285073935985,1.044298917068541,-3.2330598377004263
1783246281877983700,0.932983642578125,3.135875767016411,0.6243494576841593,-2.8111504764199253
1783246281887996000,0.942995849609375,4.221538667869567,0.44401013392955063,-2.4305609675213695
1783246281898007000,0.953007080078125,5.197402638876438,0.5609852390155196,-1.921230220158398
1783246281908019000,0.96301904296875,5.678151434877514,0.7896478641733526,-1.3964707252562045
1783246281918031000,0.973031005859375,6.021792438346147,0.9893979908406734,-1.0811752340450882
1783246281928042000,0.9830419921875,6.281242415955663,1.0465271145120263,-0.9563906242519616
1783246281938054000,0.993053955078125,6.334160351672768,1.0466890270754694,-0.6682990740478039
1783246281948066000,1.003066162109375,6.099197165066004,1.1746528514266013,-0.3031041181579232
1783246281958078000,1.013077880859375,4.890017774659395,1.3760393471240997,-0.3259422651708126
1783246281968088800,1.0230888671875,2.9212492659956215,1.5830080268681048,-0.5510349228873849
1783246281978100700,1.033100830078125,1.4987667321264744,1.6921932087302207,-0.8815466879308224
1783246281988113000,1.04311279296875,1.0888345166265965,1.6921002697497605,-0.7348989136368036
1783246281998123800,1.053123779296875,1.0776987901061772,1.548186304333806,-0.13963935683667658
1783246282008135700,1.0631357421875,0.5610545048594474,0.8347332065686583,-0.07235942602902651
1783246282018147800,1.07314794921875,-0.40109892070293424,-0.24395605587959288,0.042533612085878844
1783246282028159700,1.08315966796875,-1.527678353834152,-1.2183026080608368,0.6163833011105656
1783246282038171000,1.0931708984375,-4.405988057291507,-2.422495149965584,1.7884426289126276
1783246282048183000,1.10318310546875,-8.749839684143662,-4.8448979454725976,3.3438989242494106
1783246282058195000,1.11319482421875,-13.070253152263163,-7.500240020543337,4.6931706759572025
1783246282068205800,1.123205810546875,-16.09914270876646,-8.600309632411598,5.9304456955134865
1783246282078218000,1.133218017578125,-17.628345495688915,-10.72719715745449,6.30662878614664
1783246282088230000,1.14322998046875,-19.824017803144454,-13.642087409812211,7.466366977035999
1783246282098240800,1.15324072265625,-23.94031213573217,-12.82689564679861,11.90446165268421
1783246282108253000,1.1632529296875,-28.94261773444414,-9.146937552511691,19.043031092071534
1783246282118264800,1.173264892578125,-30.300780064094067,-3.6519808308199044,25.299645847249028
1783246282128276700,1.18327685546875,-25.632851381421087,1.529774741591513,25.22670219159126
1783246282138287900,1.193287841796875,-18.559080869680642,1.818880437274277,19.77435916148424
1783246282148300000,1.203300048828125,-11.183755515050887,0.07702303392589092,12.574866174578666
1783246282158312000,1.21331201171875,-4.460687615728378,0.6773509800314903,7.731132012188434
1783246282168322800,1.22332275390625,0.26564649416208264,2.041087310421467,5.268920061123371
1783246282178335000,1.2333349609375,3.503012212362885,2.214194929356873,2.2085481556415556
1783246282188347000,1.243346923828125,5.829387121483683,1.6883716046154498,-1.3451590556919575
1783246282198359000,1.253359130859375,7.983032889592647,1.5055170831695197,-3.4842049283012746
1783246282208370000,1.263369873046875,9.872326879525184,2.296993331813812,-4.2835269220098855
1783246282218381800,1.2733818359375,11.076446648454665,3.1971842221990228,-4.222272827363014
1783246282228393700,1.283393798828125,11.877388936841488,1.954660488334298,-6.79057842401564
1783246282238404900,1.29340478515625,11.212201857334374,2.217540732653439,-7.751752190890908
1783246282248417000,1.3034169921875,8.445258186909555,3.7111762393712997,-6.594887509611248
1783246282258429000,1.313428955078125,3.1152590954452752,4.411293762484193,-4.466563814285397
1783246282268441000,1.323441162109375,-0.6138333243668079,4.056168657448888,-2.9896470949172973
1783246282278452000,1.333451904296875,-2.2829811730742455,3.1871333683058616,-2.864190577211976
1783246282288464000,1.3434638671875,-2.5456664793431756,2.420539339722693,-3.103903004172444
1783246282298476000,1.35347607421875,-0.6099766489386558,1.6648710481710731,-3.793435420385003
1783246282308487000,1.36348681640625,2.2531430841714144,0.8665857040338217,-4.584928327903151
1783246282318498800,1.373498779296875,5.0915106533408165,0.3202154119566083,-5.196712903046608
1783246282328511000,1.383510986328125,7.646519546046853,0.1669960041873157,-5.657425457713008
1783246282338523000,1.39352294921875,9.386156642997264,0.045269174529612065,-6.196054780274629
1783246282348533800,1.40353369140625,10.390129102635383,-0.2096063347712159,-6.589145751088857
1783246282358545700,1.413545654296875,11.490790835177897,-0.6898543416433036,-6.354702204442024
1783246282368557800,1.423557861328125,12.26338381191492,-0.8731516384206712,-6.040880000653862
1783246282378569000,1.43356884765625,11.962628594970703,-0.8894359798759222,-6.472497393739223
1783246282388580900,1.443580810546875,10.338253953969478,-1.1538897571220994,-6.63020899836123
1783246282398593000,1.453593017578125,7.2266639024257655,-1.1785313002951443,-6.541313155812024
1783246282408604000,1.46360400390625,2.8531261623620985,-0.838052560249716,-6.470695897275209
1783246282418615800,1.47361572265625,-0.3517261102467775,-0.5535165836352854,-6.462454138630628
1783246282428628000,1.4836279296875,-1.0265864425063134,-0.11397555794380605,-6.578425035110116
1783246282438639900,1.493639892578125,-1.166490587759018,0.7311638918269425,-6.612268852522969
1783246282448650800,1.503650634765625,-0.9502326861441135,0.8416826603803783,-7.2190551809877155
1783246282458663700,1.51366357421875,-0.02593406720161438,0.2731812005158514,-8.400401977095008
1783246282468675600,1.523675537109375,1.4674287600547073,0.0024402327589690682,-9.247434985527395
1783246282478686500,1.5336865234375,2.902931519016623,-0.04028166844062507,-9.423581241506337
1783246282488698600,1.54369873046875,3.8015713805675504,-0.16843305125311017,-9.13977832840681
1783246282498710500,1.55371044921875,4.1833255493313075,-0.38878472498767075,-8.563072665429114
1783246282508722400,1.563722412109375,4.345830817970633,-0.5808665089841931,-7.787344897797703
1783246282518733600,1.573733642578125,4.32565662946999,-0.7353926885031163,-6.982953345739841
1783246282528745700,1.583745849609375,4.128999500381946,-0.9938725059062242,-6.3490282504588365
1783246282538757600,1.593757568359375,3.937703021544218,-1.3303326579600572,-5.805808677497506
1783246282548768500,1.6037685546875,3.8962686028718947,-1.7803800262272358,-5.428395168286562
1783246282558780700,1.61378076171875,3.831753168341517,-2.2856131290130315,-5.1341743215471505
1783246282568792600,1.62379248046875,3.609396365329623,-3.141529847255349,-5.087526552140712
1783246282578804500,1.633804443359375,2.3921079027473926,-3.7013583174511786,-4.461435803747177
1783246282588815600,1.643815673828125,-0.18851064751148222,-3.98826796439439,-3.562513618123531
1783246282598827500,1.65382763671875,-3.164759916195273,-4.392486478422582,-2.2577508702278135
1783246282608839400,1.66383935546875,-5.700494784110784,-4.8460529607266185,0.019418986219167707
1783246282618850800,1.673850830078125,-7.670720505845546,-5.357931054484844,3.079995474362373
1783246282628862700,1.68386279296875,-9.511621344009042,-5.897741695785522,5.368414454576373
1783246282638874600,1.69387451171875,-14.137133026713132,-6.222804255512356,7.127478136530518
1783246282648886800,1.70388671875,-25.691053395020962,-6.994315282231569,10.053718050420283
1783246282658897700,1.713897705078125,-41.69988513374329,-6.584281359922885,16.405677678155897
1783246282668909600,1.72390966796875,-51.41449865508079,-0.39335239822939033,27.634539578390118
1783246282678921700,1.733921630859375,-49.628218464899064,8.094045871403813,39.55680342974662
1783246282688932600,1.7439326171875,-40.557710656595226,12.009642859601973,46.67314233262539
1783246282698944500,1.753944580078125,-26.357560324954985,10.768455050516128,43.830790077733994
1783246282708956700,1.763956787109375,-12.27233634917736,8.169874727109073,34.19257122929096
1783246282718967600,1.773967529296875,-2.327178626719117,7.223507484221458,24.6375088029623
1783246282728979700,1.783979736328125,3.4617578264325854,6.938681657814979,16.511611749267576
1783246282738991600,1.79399169921875,6.08601795001924,6.538221619537472,9.801864519289134
1783246282749003800,1.804003662109375,7.160110240066051,5.889747774422168,3.936684199890494
1783246282759014700,1.8140146484375,7.837804918968677,5.136769014215469,-0.2427262218236923
1783246282769026600,1.824026611328125,8.261193997412919,4.681141215467453,-3.2406495621770617
1783246282779038700,1.834038818359375,8.421932256379723,4.826350773651898,-4.736511220511794
1783246282789049600,1.844049560546875,8.534273271924256,5.167733476799726,-4.660038221684098
1783246282799061500,1.8540615234375,9.048645520585774,5.440810997745395,-3.842734581083059
1783246282809073700,1.86407373046875,10.32472928648591,5.464830171236396,-2.966771246242523
1783246282819085600,1.87408544921875,11.682768866539,5.111551570850611,-2.171020681279898
1783246282829096400,1.884096435546875,12.876180194449423,4.528703167334199,-1.3858517160862684
1783246282839108600,1.894108642578125,13.683646916168927,3.8313717678084966,-0.5739981575846672
1783246282849120500,1.90412060546875,13.822317720234393,2.592218387159705,0.6225403624355793
1783246282859131600,1.914131591796875,15.071956546801328,1.7786249992534517,1.0835194590836763
1783246282869143600,1.9241435546875,17.36721735573411,1.973610980258882,0.16126491318941116
1783246282879155700,1.93415576171875,20.163365493333337,3.268260038158297,-2.2418612271785734
1783246282889166600,1.94416650390625,21.1083246229887,3.2364579557061193,-6.009262627118826
1783246282899178500,1.954178466796875,19.231887776541708,1.57938048402071,-9.744484343466162
1783246282909190700,1.964190673828125,16.29612541654706,0.48056627904102206,-11.590624835848807
1783246282919202600,1.97420263671875,13.47121763293147,0.6257631238743663,-11.582427500867842
1783246282929213400,1.98421337890625,10.90787988781929,0.6736502258174121,-10.2736081710577
1783246282939225600,1.9942255859375,8.463819679516554,0.45552916067913174,-8.319204872354865
1783246282949237500,2.004237548828125,6.834155699935555,0.27455694584846496,-6.209298292729258
1783246282959248600,2.01424853515625,5.552369923001527,0.0023452479518949985,-4.3417116922140115
1783246282969260800,2.0242607421875,4.82378267672956,-0.023266163166612387,-3.2883219984561203
1783246282979272700,2.034272705078125,4.977501412323117,0.1723475943483412,-3.3893940164893865
1783246282989284600,2.04428466796875,5.145437473839521,0.018326368676871062,-4.781018470758199
1783246282999295700,2.054295654296875,5.113656434175372,-0.5244787782646715,-6.189564249211549
1783246283009307600,2.0643076171875,5.401338819056749,-0.7403168470323085,-7.189968202713131
1783246283019319600,2.074319580078125,6.024462534338236,-0.6793615892015397,-7.898789841285348
1783246283029330400,2.084330322265625,6.451242424264549,-0.8219464979708194,-8.336043194431067
1783246283039342600,2.094342529296875,6.625449236613512,-1.1608772779218852,-8.481638829323648
1783246283049354500,2.1043544921875,6.569246287876367,-1.5164910432569683,-8.264970008820296
1783246283059366700,2.11436669921875,5.998029285442829,-1.8430504174128173,-7.523450215739011
1783246283069377500,2.12437744140625,4.690540327453613,-1.9964754307568071,-6.42777971561253
1783246283079389700,2.1343896484375,3.0965730996757745,-2.121810806300491,-5.44747746989727
1783246283089401600,2.144401611328125,1.5068267044633625,-2.2886598032325507,-4.582469828835129
1783246283099412700,2.154412841796875,0.594556376966834,-2.331590890203416,-3.875116509249806
1783246283109424600,2.164424560546875,0.24939912371635437,-2.2039435844555495,-3.4324247644424437
1783246283119436500,2.1744365234375,0.14006371972858905,-2.1056175041295586,-2.851681808772683
1783246283129448700,2.18444873046875,0.6324883404761552,-2.0641294555738567,-2.5136837796270846
1783246283139459600,2.19445947265625,1.5230004251509903,-2.059795956414193,-2.5240268944650888
1783246283149471500,2.204471435546875,2.0878502306401727,-1.9829338121384381,-2.1822125219017265
1783246283159483600,2.214483642578125,2.2115566898077725,-1.9963008048422632,-1.4744482834279535
1783246283169494500,2.22449462890625,1.977687728178501,-2.2733749942086634,-0.609236059704423
1783246283179506400,2.23450634765625,1.8252730609208345,-2.9602766235262155,0.4906593646407127
1783246283189518600,2.2445185546875,1.3948890090227126,-3.8651270301550626,2.0353888065189123
1783246283199529700,2.25452978515625,-0.973451064646244,-5.018268891519308,3.948631242793798
1783246283209541600,2.264541748046875,-7.9766691997796295,-6.896688436216116,6.50359220470488
1783246283219553800,2.2745537109375,-22.173636809730528,-9.159649734568596,9.697820207446814
1783246283229565700,2.284565673828125,-40.566782436323166,-8.408989188176394,15.022168141281604
1783246283239576600,2.29457666015625,-53.53322683906555,-3.255865836009383,22.29696625227928
1783246283249588500,2.30458837890625,-58.07075336432457,0.5496354313530027,26.95190919665098
1783246283259600600,2.3146005859375,-53.580236427521704,0.04925371412113309,26.94298939261436
1783246283269611500,2.324611572265625,-41.89520896840095,-1.3560603889346121,23.809839835691452
1783246283279623400,2.33462353515625,-28.327607182991503,-1.9705029312409459,18.990815751665828
1783246283289635600,2.344635498046875,-17.751132501924037,-2.5635376515984536,12.589694325876236
1783246283299647500,2.3546474609375,-11.797260338115692,-2.3470661072328687,6.2652534041851755
1783246283309658600,2.36465869140625,-9.407364850720763,-1.1838672544956206,1.5805968740731478
1783246283319670800,2.3746708984375,-8.861898960137367,-0.1583320746079087,-1.4940715600475667
1783246283329682700,2.3846826171875,-8.204247536832094,0.4983627786248922,-3.109100865076482
1783246283339693600,2.394693603515625,-6.177277014568448,1.2661062695041299,-3.1861656923174855
1783246283349705700,2.404705810546875,-2.8156822746306656,1.7274115293666719,-2.9150013115167615
1783246283359717600,2.414717529296875,1.150734800222516,2.048684925943613,-3.170764417307079
1783246283369728500,2.424728515625,4.840459086242318,2.287465040490031,-3.6155502117842433
1783246283379740700,2.43474072265625,7.398190097388625,2.5641461388856173,-3.3588694066271185
1783246283389752600,2.444752685546875,8.75435745382905,2.6564877379745244,-2.6700360785946247
1783246283399764500,2.454764404296875,9.585352350652217,2.5527874172642826,-2.169816273926198
1783246283409775600,2.464775634765625,10.132124647659063,2.543359079183638,-2.043212632012367
1783246283419787500,2.47478759765625,10.533915642279386,2.244354943690449,-2.4194492063984274
1783246283429799700,2.484799560546875,10.825317339944839,1.837574762480706,-3.0033471189677714
1783246283439810600,2.494810546875,10.818443362522125,1.919675538062304,-3.469296989765763
1783246283449822700,2.50482275390625,10.482648396378755,1.9225746205046772,-4.1385698772817845
1783246283459834400,2.51483447265625,9.825084651356935,1.8003718438982963,-4.728558215680718
1783246283469846300,2.52484619140625,9.039956018173694,1.9608406382739543,-5.062452901160717
1783246283479857200,2.534857177734375,8.298318736192584,2.3820393670670685,-5.004024677589536
1783246283489869000,2.544869140625,7.830550417795777,2.8300793410345912,-4.906212538135051
1783246283499881200,2.554881103515625,7.579018373703956,2.9385300711423157,-5.022002817350626
1783246283509892400,2.564892333984375,7.60556794245541,2.6737778954714537,-5.095925547173619
1783246283519904300,2.574904296875,8.020898217606543,2.3174391768626865,-5.163199925023317
1783246283529916200,2.584916259765625,8.449230013149975,2.199985202218592,-5.224127564194798
1783246283539928300,2.59492822265625,8.684942556819319,2.149711205139011,-5.280925556215643
1783246283549939200,2.604939208984375,8.772002416113018,2.0770333608105775,-5.374008329060674
1783246283559951400,2.614951416015625,8.871753414675593,1.9843220516264437,-5.486292061460018
1783246283569963300,2.62496337890625,9.034266866621374,1.7473684218548238,-5.812180550616979
1783246283579974100,2.63497412109375,9.05747881538272,1.4830812333472072,-6.302804259422421
1783246283589986300,2.644986328125,8.792637792384625,1.2646633772194384,-6.73528323777318
1783246283599998200,2.654998291015625,8.368542026975751,1.1626087778896093,-7.351418993863463
1783246283610010000,2.665010009765625,7.818132834771275,0.9153396519392728,-8.013884539452194
1783246283620021200,2.675021240234375,7.058683417245745,0.5506555681809783,-8.144144073525071
1783246283630033200,2.685033203125,6.40512072455883,0.3805103061825037,-7.6880983416259285
1783246283640045000,2.695045166015625,6.1943924000203605,0.45115620629191394,-6.94904932257235
1783246283650056200,2.70505615234375,6.355197294482588,0.6299708046972752,-6.231400818943977
1783246283660068400,2.715068359375,6.56722618022561,0.8765418653808533,-5.584408736819029
1783246283670080300,2.725080322265625,6.779935449448227,1.0792309681095182,-5.254172573846578
1783246283680091100,2.735091064453125,6.8537769307285545,1.049340126106143,-5.228883818811178
1783246283690103300,2.745103271484375,6.704577133864164,0.9391279392838477,-5.333790300440788
1783246283700115200,2.755115234375,6.3187997009336945,0.8336188155859708,-5.301784804370999
1783246283710127000,2.765127197265625,5.69419948335886,0.7423682266041636,-4.998136204072833
1783246283720138200,2.77513818359375,5.067459915667772,0.42415377920642494,-4.506663769483566
1783246283730150100,2.785150146484375,4.422856189984083,0.1617977048918605,-3.9829993763417004
1783246283740162000,2.795162109375,3.867580268526077,-0.10401450122594832,-3.2450387370467184
1783246283750173400,2.80517333984375,3.2440450498342512,-0.34043680059984327,-2.0737030473440883
1783246283760185300,2.815185302734375,2.3082494698435068,-0.6348216057293117,-0.7632844656437635
1783246283770197200,2.825197265625,1.2898942645877598,-1.235648587398231,0.018264555487036704
1783246283780209400,2.83520947265625,0.2993026800483465,-2.0359126842625437,0.04338146108686924
1783246283790220300,2.84522021484375,-0.9301075974822044,-3.1596140777394175,-0.34145898325443264
1783246283800232200,2.855232177734375,-2.2617659510880705,-5.393453034242987,-1.266570672145486
1783246283810244400,2.865244384765625,-4.3448494057178495,-8.610781926587224,-2.2601842348545786
1783246283820255200,2.875255126953125,-8.235470942613482,-11.305588581562041,-1.290914255285263
1783246283830267100,2.88526708984375,-16.370660140788555,-13.142960661077499,1.7242250082850454
1783246283840279300,2.895279296875,-30.276777257215976,-14.587933843696117,6.154691088750958
1783246283850291200,2.905291259765625,-46.45564875173569,-12.100857500487566,12.060534842449426
1783246283860302300,2.91530224609375,-57.47905822200775,-6.800207253104448,16.701326511871812
1783246283870314200,2.925314208984375,-61.00779348917007,-4.458011382256448,17.60272473222017
1783246283880326100,2.935326171875,-54.43048664443493,-2.0879691808447243,19.32131378044486
1783246283890337300,2.945337158203125,-38.918954439020155,0.13354717744141817,20.956860972845554
1783246283900349200,2.95534912109375,-23.89696866856813,-0.34170272888243197,18.181621183240413
1783246283910361300,2.965361328125,-13.7208505654037,-1.4817837408825754,11.661119344788789
1783246283920372200,2.975372314453125,-7.653391769903898,-1.091019459450245,4.975196642512083
1783246283930384100,2.985384033203125,-5.643502730822563,0.7857540716052055,-0.7817442514419555
1783246283940396300,2.995396240234375,-5.528600924879312,3.497385604652762,-5.220481901168823
1783246283950408200,3.005408203125,-4.984559514141083,6.64372957419157,-8.278102462115884
1783246283960419000,3.015419189453125,-3.371998060530424,9.23713278722167,-10.588594157928227
1783246283970431200,3.02543115234375,-0.8629717513203621,11.334131954479217,-11.760737072360515
1783246283980443100,3.035443115234375,1.9248551326572894,13.063109125727415,-10.943193193262815
1783246283990454300,3.045454345703125,4.601103802156448,14.110862274903058,-8.785967228579521
1783246284000466400,3.055466552734375,7.448483529821038,14.686279651635884,-5.79269025272727
1783246284010478300,3.065478271484375,10.367277803879976,14.83793034878373,-2.209716907159984
1783246284020490200,3.075490234375,12.419965535724163,13.687697652864456,0.02557224815189838
1783246284030501000,3.085501220703125,13.272759591901302,11.404783115285634,0.4639157346218824
1783246284040513300,3.09551318359375,13.761232844674586,9.89588778785467,-0.1344330203652382
1783246284050525200,3.105525146484375,14.156891035628318,10.183499445587396,-0.9258294817715883
1783246284060536000,3.1155361328125,14.346288987368345,10.966860484576225,-2.3787948321878907
1783246284070548200,3.12554833984375,14.193344158756732,10.810355917656421,-4.836609717337787
1783246284080560000,3.13556005859375,13.799687370753288,9.8966909209311,-7.530992886203527
1783246284090572000,3.145572021484375,13.438480899977684,8.956365880817174,-9.51223801460266
1783246284100583400,3.15558349609375,13.23644909211397,8.589661397147179,-10.340846893072127
1783246284110595300,3.16559521484375,13.025782726895809,8.427351358819008,-10.488008462107182
1783246284120607200,3.175607177734375,12.703209645897148,7.859543288046122,-10.303516987109184
1783246284130618400,3.185618408203125,12.068286771750449,7.136084052312373,-9.8772964846313
1783246284140630300,3.19563037109375,10.859655662876367,6.502769782406092,-8.900793046677112
1783246284150642200,3.20564208984375,9.17691066597104,5.818281790101528,-7.69312990605235
1783246284160654300,3.215654296875,6.944638520392775,4.873116908740997,-6.476984183764458
1783246284170665200,3.225665283203125,4.329886814385652,4.103362370300292,-5.577873197570443
1783246284180677000,3.235677001953125,1.6861247024714945,3.61745867575407,-5.034011235052347
1783246284190689300,3.245689208984375,0.08008125245273112,3.44321153139472,-4.974240364700555
1783246284200700200,3.2557001953125,0.09214636877775191,3.518247483156621,-5.380588876494765
1783246284210712300,3.26571240234375,1.2138964820563793,3.6291155035391447,-6.318432036665081
1783246284220724200,3.27572412109375,2.540422148948908,3.530702475582063,-7.629587700468301
1783246284230735400,3.2857353515625,3.534758765235543,3.1411765037730333,-8.949297842127084
1783246284240747300,3.295747314453125,3.773212716567516,2.7453008706763384,-9.667793317973613
1783246284250759200,3.30575927734375,2.865508674073219,2.660288883823156,-9.61017348817587
1783246284260771300,3.315771240234375,0.9255191006481647,2.915311692640185,-9.18810192207098
1783246284270782200,3.3257822265625,-1.0090963785231113,3.246144067940116,-8.511880238330363
1783246284280794000,3.335794189453125,-1.8354753059834241,3.824002408084273,-7.661689058127999
1783246284290806300,3.34580615234375,-1.6911422383725643,4.421276811838149,-7.07849929382801
1783246284300817200,3.355817138671875,-1.0051368272423744,4.604660617855191,-7.059220592862367
1783246284310829000,3.3658291015625,-0.5252145451933146,4.536611163979768,-7.427071323958039
1783246284320841200,3.37584130859375,-0.41243221562206744,4.559529390491545,-7.556766794407367
1783246284330853000,3.38585302734375,-0.9290998817443847,4.559646879391372,-7.698975124949216
1783246284340864300,3.3958642578125,-2.6670477104336023,4.506663769483566,-7.930251147475838
1783246284350876400,3.40587646484375,-5.33391655716896,4.771941430333256,-8.195688382801412
1783246284360888300,3.415888427734375,-8.809902815440296,5.559817316398024,-8.201253615713119
1783246284370899200,3.425899169921875,-12.455128034520149,6.907282895466685,-7.527855757221579
1783246284380911000,3.4359111328125,-15.708630648529528,8.15401314111054,-6.056250588265061
1783246284390923300,3.44592333984375,-18.694172061693667,8.32074216492474,-4.035595825019478
1783246284400935200,3.45593505859375,-21.55976256883144,7.581576241493225,-1.6120692861795425
1783246284410946000,3.465946044921875,-24.61613868267536,6.2293047234475605,1.798949117618799
1783246284420958200,3.475958251953125,-28.737137247431278,5.065783506888151,6.219628548085689
1783246284430970000,3.48597021484375,-35.62137653644085,4.344079590389132,11.610980226135252
1783246284440981200,3.495981201171875,-43.615358690071105,4.289307258976995,19.578488214337824
1783246284450993400,3.505993408203125,-47.572698139977454,6.640445730215311,30.669692871463297
1783246284461005000,3.516005126953125,-43.92883076524734,8.638673557597398,38.222959548795224
1783246284471016000,3.526015869140625,-33.59677274330854,7.4176330490052695,36.35233051184416
1783246284481027800,3.53602783203125,-21.801932325816153,5.207707759791612,27.908631244814394
1783246284491039700,3.546039794921875,-13.359460554754733,4.457527690392732,18.35675329374075
1783246284501052000,3.556052001953125,-9.302396994292735,4.8899862104773515,10.167949994277954
1783246284511062800,3.566062744140625,-7.90331637879908,6.1710746527969835,3.6643262253910303
1783246284521074700,3.57607470703125,-7.05009679068625,7.561247154691815,-0.36376901473999024
1783246284531086800,3.5860869140625,-4.943454181292653,9.105561586028337,-2.0678484760969877
1783246284541098000,3.596097900390625,-1.6560937213450668,10.520101051938534,-2.286519284072518
1783246284551110000,3.60610986328125,2.3201544271707535,11.271450165116786,-1.9528151527285575
1783246284561122000,3.6161220703125,6.42013300025165,11.321142709046601,-1.7594874603241681
1783246284571134000,3.626134033203125,9.92035821224451,10.953820970261097,-1.8989146357148885
1783246284581144800,3.636144775390625,12.713826901501417,10.669632272714376,-2.189092344543338
1783246284591157000,3.646156982421875,14.686431627327202,10.21641036606431,-2.7046605249911546
1783246284601169000,3.6561689453125,15.963894864886997,10.029539886975288,-3.097407212412357
1783246284611179800,3.6661796875,16.366708772814274,10.3351185785532,-3.4005110383093355
1783246284621191700,3.676191650390625,15.618001698577404,10.601500401252508,-4.026985233062505
1783246284631203800,3.686203857421875,13.630479974126814,10.872490594530104,-4.709555993568897
1783246284641215700,3.6962158203125,11.340947479712963,11.524718823742866,-5.252105119922756
1783246284651227000,3.706226806640625,8.949835602265596,12.088055302059649,-5.916556870892643
1783246284661238800,3.71623876953125,6.117130296641588,12.317780588012933,-6.79018796339333
1783246284671251000,3.7262509765625,4.503376418375969,12.151267837297915,-7.837655865886807
1783246284681261800,3.73626171875,5.655677152740955,12.437056955778598,-8.360639875549078
1783246284691274000,3.74627392578125,5.855060491922497,12.999301547205448,-8.090628756436706
1783246284701286000,3.756285888671875,6.228201146119833,12.484679123175143,-8.250349947315454
1783246284711296800,3.766296875,7.210675475177168,11.885380520117282,-8.322917170876265
1783246284721309000,3.776308837890625,8.09225898798704,11.579247701787947,-7.7376868406593795
1783246284731320800,3.78632080078125,8.72667683522105,10.794078152072428,-6.911800080630183
1783246284741332700,3.796332763671875,9.192418031704426,9.616074236652254,-5.969578266984224
1783246284751343900,3.80634375,9.47885713852644,8.645262288337946,-5.079266088795662
1783246284761355800,3.816355712890625,9.577902034646272,7.86167153224647,-4.334879215845465
1783246284771367700,3.82636767578125,9.275610694175958,7.089733220025897,-3.8964755236208437
1783246284781378800,3.83637890625,8.604687116843461,6.204871708458661,-3.776892281863093
1783246284791391000,3.846390869140625,7.789684154400229,5.3087978980034585,-3.975322850364446
1783246284801403000,3.85640283203125,7.044168569681048,4.457732565315068,-4.400281370082498
1783246284811415000,3.8664150390625,6.32438422306776,3.8369723642945286,-4.780968786397576
1783246284821426000,3.876426025390625,5.494571229505539,3.6028020816311237,-4.857289225012064
1783246284831437800,3.886437744140625,4.557918155902624,3.6127135270535944,-4.868118662062287
1783246284841449700,3.89644970703125,3.6229292161196467,3.597898819759488,-4.9911102509588
1783246284851460900,3.9064609375,3.030498160743713,3.427029042878747,-5.191627562606334
1783246284861472800,3.91647265625,2.6668682622134683,3.0462144930526613,-5.417770313897728
1783246284871484700,3.926484619140625,1.903009211552143,2.625650408901274,-5.34594543313682
1783246284881496800,3.936496826171875,0.5278823030978441,1.9759154578089713,-4.882090488791466
1783246284891508000,3.946508056640625,-1.2518319526970385,0.9095587304502725,-4.552437094143032
1783246284901520000,3.956519775390625,-2.8372014479994774,-0.6953172832243144,-4.197274579706788
1783246284911532000,3.966531982421875,-4.588419677150249,-3.279676335185766,-3.5423633950203657
1783246284921543000,3.97654296875,-7.139483047100901,-7.161050151264667,-1.6381851396888494
1783246284931554800,3.986554931640625,-11.53646069946289,-10.48998648418188,2.451485389867425
1783246284941567000,3.99656689453125,-20.927590454697608,-11.74105154415965,6.869165638518333
1783246284951577900,4.006577880859375,-35.94389467238187,-11.515082395869493,11.538181531906128
1783246284961589800,4.01658984375,-50.44690917594433,-8.602330909106135,19.723559533095358
1783246284971602000,4.026601806640625,-56.97309139811993,-3.6419936898127196,30.31513592170477
1783246284981613800,4.03661376953125,-52.61087935419082,0.7980648332543671,38.93298764054775
1783246284991625000,4.046625,-39.78068466584682,3.3268288392439485,41.93460574376583
1783246285001636900,4.056636962890625,-23.039790698218344,4.256341977964341,40.109705023288726
1783246285011648800,4.066648681640625,-9.111212743657827,3.990641123266518,34.712587621319294
1783246285021660000,4.076659912109375,-1.992066966664791,2.723386268249154,26.284025133144855
1783246285031671800,4.086671875,-0.628439941868186,2.6328631167590615,17.381158202803135
1783246285041684000,4.09668408203125,-2.697632818311453,4.394166394333541,9.310791897672415
1783246285051695900,4.10669580078125,-5.2674108256042,6.454478921967745,2.1023270842820403
1783246285061706800,4.116706787109375,-6.274026493227481,8.617215174505114,-3.0127579213917253
1783246285071719000,4.126718994140625,-5.284450807732344,10.214918666201829,-5.981875438499451
1783246285081730800,4.136730712890625,-2.882689525976777,10.771897884446382,-7.690208465647697
1783246285091741700,4.14674169921875,0.14472995797395705,11.087671806824206,-8.008387695601582
1783246285101753900,4.15675390625,3.3545290393352505,11.499041946172714,-7.197721301057935
1783246285111765800,4.166765869140625,6.530383180996775,11.659229000997543,-5.999123510420322
1783246285121777000,4.17677685546875,9.392811424711345,11.538342859947681,-5.0688119147986175
1783246285131789000,4.1867890625,11.43791381599307,11.155717169046401,-4.473532484254241
1783246285141801000,4.196801025390625,12.568733370912074,10.329619396615028,-4.220342736083269
1783246285151812900,4.206812744140625,13.143100946331023,9.497148582020401,-4.126052925536036
1783246285161823700,4.21682373046875,13.20539812029004,9.140418964397906,-3.942517728349566
1783246285171836000,4.2268359375,12.88456223834753,9.019095600974559,-4.007840972131491
1783246285181847800,4.236847900390625,12.327766559976338,8.888262650927901,-4.366269794887304
1783246285191858700,4.246858642578125,11.61523788357973,8.666595583745837,-4.855352703991532
1783246285201870800,4.256870849609375,10.910405022382735,8.508728496301174,-5.256989969354867
1783246285211882800,4.2668828125,10.372513950967788,8.390974223536253,-5.698621975976228
1783246285221894700,4.276894775390625,9.904697701776026,8.180623500138521,-6.1682350454568855
1783246285231906000,4.286906005859375,9.515026768538355,7.964801651853323,-6.441113244438171
1783246285241918000,4.29691796875,9.324662602114676,7.663563035306334,-6.635023120644688
1783246285251929900,4.306929931640625,9.258083805313706,7.363382403379679,-6.8178867021799086
1783246285261941000,4.31694091796875,8.957448999878764,7.3395274805396795,-6.864184927496313
1783246285271953000,4.326952880859375,8.29250683504343,7.2934028582245105,-6.9755801866233345
1783246285281964800,4.33696484375,7.3623524758100505,7.102939323079585,-7.3523138968765736
1783246285291977000,4.34697705078125,6.116242407891154,6.99157095195949,-7.9299384282648555
1783246285301987800,4.35698779296875,4.707881922876835,6.940257528829574,-8.609246387583017
1783246285311999700,4.366999755859375,3.6418554503858087,6.96458474535644,-9.287436156526207
1783246285322012000,4.377011962890625,3.1756548196971415,7.039772380548715,-9.84314520870447
1783246285332022800,4.387022705078125,3.208804809626937,7.098618537271022,-9.984890597909688
1783246285342035000,4.397034912109375,3.52653921842277,6.925583691310882,-9.861104059243202
1783246285352046800,4.407046875,3.910437997999787,6.289959390896558,-9.383289563128352
1783246285362058000,4.41705810546875,4.206087416237592,5.166994056609273,-8.544968268939853
1783246285372070000,4.42706982421875,4.300851274037361,3.9122368641152976,-7.271220837032795
1783246285382081800,4.437081787109375,4.13925026076138,2.5195044486045837,-5.243201682499051
1783246285392094000,4.447093994140625,3.7588352316468954,0.8856737047329545,-2.2440210355609653
1783246285402104800,4.457104736328125,3.0279835475742813,-1.067645013603568,1.6813602645486592
1783246285412116700,4.46711669921875,2.1312071418076752,-3.288397694040835,5.729933644562959
1783246285422129000,4.47712890625,1.3640198235064744,-5.829215856570005,9.274556801208853
1783246285432139800,4.487139892578125,-0.046046296381950375,-8.47561357768476,12.108263392829894
1783246285442151700,4.497151611328125,-3.7501620958477258,-11.024531752300263,13.532422920000553
1783246285452163800,4.507163818359375,-10.700132624918222,-13.133113805323838,13.915577018690108
1783246285462176300,4.51717626953125,-19.789991614902018,-14.373713585388659,14.573089325785636
1783246285472187400,4.5271875,-28.236746762371062,-14.763393286454678,15.444913076603411
1783246285482199300,4.53719921875,-33.45401379314661,-14.883857402700185,16.82768260876536
1783246285492211500,4.54721142578125,-35.53178102118969,-16.01264632857442,17.092550519770384
1783246285502222300,4.557222412109375,-36.92461718933582,-16.501545113283395,16.845628599822522
1783246285512234200,4.567234130859375,-37.23073364105225,-14.330052138316631,19.261373398745057
1783246285522246100,4.57724609375,-34.84631453924179,-10.605883146381377,23.253533986663818
1783246285532257300,4.58725732421875,-30.034754799747464,-7.338062084162235,24.444878445172307
1783246285542269200,4.597269287109375,-23.184303214049336,-4.757324291437864,21.56940718001127
1783246285552281000,4.607281005859375,-15.934712025022506,-2.5414357099056244,16.087306140500306
1783246285562293200,4.617293212890625,-10.869799455749988,-0.45486792029142376,9.864391410350798
1783246285572304100,4.62730419921875,-7.624829107764363,1.8272592663019895,4.382268159008026
1783246285582316300,4.63731640625,-4.474734261259436,4.51193440336287,0.3558791382730007
1783246285592328200,4.647328125,-1.158638705214858,6.992474038279056,-1.9921350634649395
1783246285602339300,4.65733935546875,2.082139451777935,9.05051949776411,-3.002976239828765
1783246285612351200,4.667351318359375,5.609145118668675,10.863050566011667,-3.550192188949883
1783246285622363400,4.67736328125,8.775182799714804,11.370395692515373,-4.215978111132979
1783246285632374300,4.687374267578125,11.243955424469709,11.223942564010619,-4.833140872183442
1783246285642386200,4.69738623046875,13.00492698587179,11.01144080005884,-5.148231488472223
1783246285652398300,4.7073984375,14.388494974935053,10.935878486335277,-4.460550837606191
1783246285662410200,4.71741015625,15.647689565354584,11.199551634597778,-2.859076887460053
1783246285672421000,4.727421142578125,16.583848133438824,11.522457893073557,-1.2429746925026177
1783246285682433000,4.73743310546875,17.097510772526263,11.248003823077678,-0.011270751076936722
1783246285692445200,4.747445068359375,17.348785042464733,10.904513041734695,0.7816393297627567
1783246285702456300,4.757456298828125,17.161525271797178,10.63786467705369,1.1661340294063092
1783246285712468200,4.76746826171875,16.11980672661066,10.442787510633469,1.1018202549278735
1783246285722480400,4.77748046875,14.155439083254336,10.399698895013332,0.5880556167706846
1783246285732492300,4.7874921875,12.134732882082462,10.005710098576545,-0.7402380827076732
1783246285742503200,4.797503173828125,11.10474802930951,9.517301143211126,-2.2689526477217674
1783246285752515300,4.807515380859375,11.00970827717781,9.107042179974913,-3.188440066990256
1783246285762527200,4.81752734375,11.096825419616698,8.52925105984807,-3.5578023716926572
1783246285772538000,4.8275380859375,11.112276671248674,8.23411192921996,-3.3285832816958427
1783246285782550300,4.83755029296875,10.90262035985589,7.9829218304336065,-2.7218442995041605
1783246285792562200,4.847562255859375,10.552058032691479,7.781444733843207,-2.009437495921552
1783246285802574000,4.857573974609375,10.25617071404457,7.686662171342968,-1.4859467057809232
1783246285812585200,4.867585205078125,9.92147581809759,7.419763046771288,-1.284812577409297
1783246285822597400,4.877597412109375,9.231552941262722,6.95585724902153,-1.1145773721050471
1783246285832609300,4.887609375,8.872771067285537,6.199829622638225,-0.73155325647071
1783246285842620200,4.8976201171875,8.747815484839677,5.767081179696321,-0.4664130678629502
1783246285852632300,4.90763232421875,8.335987664851546,5.4695168677479025,-0.2612262300344184
1783246285862644200,4.917644287109375,8.724805196130275,5.189148605272173,0.10563132530543952
1783246285872655000,4.927655029296875,9.235877234202622,5.111292627653479,0.3837293047616258
1783246285882667300,4.937667236328125,9.416409742441774,4.8173003289729355,0.31907026050947607
1783246285892679200,4.94767919921875,9.437298801213503,4.597013902494311,0.2903392377994023
1783246285902691000,4.957691162109375,9.285404942959547,4.307279261258245,0.2958851632224396
1783246285912702200,4.9677021484375,9.010181642156839,3.9543706632286306,0.5340870029568672
1783246285922714000,4.977714111328125,8.385582009103894,3.7606308828920123,1.0272253249317407
1783246285932726300,4.987726318359375,6.51015755456984,3.454820720645785,1.5940421927101909
1783246285942737400,4.9977373046875,3.054478755789995,3.0407682103455067,1.7089974824063479
1783246285952749300,5.007749267578125,-1.1935527822077274,2.2562109473094343,1.051439655668661
1783246285962761200,5.01776123046875,-5.8833086812853805,1.0670391566649078,-0.3930636444158852
1783246285972773400,5.0277734375,-10.616944638621806,-0.07791355302482843,-2.2075337179020047
1783246285982784300,5.0377841796875,-15.222689544582366,-0.5048109318509698,-3.617274259097874
1783246285992796200,5.047796142578125,-19.853302349817753,-1.4066513430088758,-4.990149881494045
1783246286002808300,5.057808349609375,-24.206819046115875,-3.199281194478273,-5.873375900813937
1783246286012819200,5.067819091796875,-27.926517614638804,-4.239911652167141,-4.707570080448686
1783246286022831000,5.0778310546875,-31.33256641333103,-3.749652392759919,-1.8745552704840898
1783246286032843000,5.087843017578125,-34.24919269570112,-2.568521577490866,0.6137113784875721
1783246286042855200,5.097855224609375,-36.112758370137215,-1.8380384344696998,1.6181693566203117
1783246286052866300,5.1078662109375,-35.121984414768214,-2.1460107431858777,1.0465792100254445
1783246286062878200,5.117878173828125,-30.156010358631608,-3.692373631484806,0.03764072547778487
1783246286072890400,5.127890380859375,-23.996783964538572,-5.336764347815513,-0.3302282719269395
1783246286082901200,5.1379013671875,-18.48468876878023,-6.386804146623611,-0.30014256493858993
1783246286092913200,5.1479130859375,-13.300396955889463,-6.785073981380462,-0.454395626604557
1783246286102925300,5.15792529296875,-8.257086562094091,-6.742806034493446,-0.7963785606678575
1783246286112936200,5.167936279296875,-3.24779592680037,-6.415424676430225,-1.1691284619819373
1783246286122948000,5.177947998046875,1.7222662754327058,-5.80585543924868,-1.1438658643011004
1783246286132960300,5.187960205078125,5.439008916759491,-4.633619585835933,-0.6556776390142739
1783246286142972200,5.19797216796875,7.0988336413264275,-3.203803640338778,-0.027162074626609682
1783246286152983300,5.2079833984375,7.19241501134336,-2.1320944460362194,0.4228114246867597
1783246286162995500,5.217995361328125,6.579216477748751,-1.493712955868244,0.7767988309290259
1783246286173007400,5.22800732421875,6.165652043226361,-0.8733072673738003,1.246544806074351
1783246286183018200,5.238018310546875,6.272962078866362,-0.024312603479623794,1.7720476666897533
1783246286193030100,5.248030029296875,6.46938832180798,0.8968541471779345,2.0396049629092214
1783246286203042300,5.258042236328125,6.345706997081637,1.4947940291032193,2.1678066876694557
1783246286213054200,5.26805419921875,6.126311381962895,1.9282181793496012,2.3160301868475974
1783246286223065000,5.278065185546875,6.099797469046711,2.2582827851474283,2.261401063298434
1783246286233077200,5.2880771484375,6.325543329975009,2.3287127044185993,1.6879983873888849
1783246286243089200,5.298089111328125,6.673137454983592,2.257718429262936,0.7854355071753263
1783246286253100000,5.30810009765625,7.179607552218437,2.3115756916567682,-0.007949351569265127
1783246286263112200,5.3181123046875,7.735837413400411,2.3271552458435294,-0.6289357625611126
1783246286273124000,5.3281240234375,8.11745655760765,2.098178147909045,-1.225675328785926
1783246286283135200,5.33813525390625,8.496727092862129,1.858034636054933,-1.6769852643348275
1783246286293147400,5.3481474609375,8.782345530951023,1.6820739657759665,-1.936873048839718
1783246286303159300,5.3581591796875,8.978379559704662,1.6461223624289034,-2.0053551950439807
1783246286313171200,5.368171142578125,8.983151011890172,1.888624420107901,-1.8372176196061074
1783246286323182300,5.378182373046875,8.58218068600297,1.996457018317282,-1.7507598178587853
1783246286333194200,5.3881943359375,7.804187896049022,1.910060883629322,-1.7344503419622779
1783246286343206100,5.3982060546875,7.096524779862165,1.938306150382757,-1.5947734295941889
1783246286353217000,5.408217041015625,6.714962334278225,2.1660677350476383,-1.1609626181177795
1783246286363229200,5.418229248046875,6.685926209408044,2.493353231520951,-0.7543138082027435
1783246286373241000,5.428240966796875,6.898454861366749,2.584543322487175,-0.8391634441010654
1783246286383253200,5.438253173828125,7.267376436564326,2.574060799178481,-1.210119739996642
1783246286393264400,5.448264404296875,7.744317072454095,2.56909265537709,-1.3581423097752034
1783246286403276300,5.4582763671875,8.313858835151791,2.702263108460605,-1.2961037867523728
1783246286413288200,5.4682880859375,8.906549418246746,2.841951565136015,-1.3677034804552792
1783246286423299300,5.47829931640625,9.36275823175311,2.715071736629307,-1.583275299502164
1783246286433311200,5.488311279296875,9.69941302959621,2.4236922507956624,-1.7830555290468035
1783246286443323100,5.4983232421875,9.903713366913795,2.329894023157656,-1.7638526697963475
1783246286453334300,5.508334228515625,9.960374580812454,2.4791198312461376,-1.454544436301291
1783246286463349000,5.518348876953125,9.736707864245771,2.669383167643845,-0.919258725079149
1783246286473361000,5.52836083984375,9.321139688685536,2.7462597788363694,-0.42843131039515137
1783246286483373000,5.538373046875,8.711394510415197,2.595821964609623,-0.30177944542542096
1783246286493384200,5.54838427734375,8.094887582924962,2.2434560951545834,-0.5395978753328323
1783246286503396000,5.55839599609375,7.451616567149758,1.9165593057379124,-0.7714432221800088
1783246286513408300,5.568408203125,6.117907126232981,1.1817276121184228,-1.198213029103726
1783246286523419100,5.578419189453125,3.916730960664153,0.05656038387268782,-1.5546556464783847
1783246286533431000,5.58843115234375,0.6517272939532995,-1.2101283616945147,-1.4088329248316585
1783246286543443200,5.598443115234375,-3.296773600459099,-2.362799975198507,-0.5792915878176689
1783246286553455000,5.608455078125,-8.477195878440142,-2.9495009624898434,1.4523795133523643
1783246286563466000,5.618466064453125,-16.513464683657883,-3.601766893364489,3.6921257942035792
1783246286573478100,5.62847802734375,-25.424979030835626,-4.760765079541504,4.722076160185039
1783246286583490000,5.638489990234375,-32.00208713812828,-5.666136002913117,5.791217257565259
1783246286593501200,5.648501220703125,-34.35778984854221,-5.013429050272703,9.431233217564225
1783246286603513000,5.65851318359375,-34.030925207829476,-4.435419903481006,13.49057582887411
1783246286613525200,5.668525146484375,-32.75244490218162,-5.414591099339724,13.655269547468423
1783246286623536000,5.6785361328125,-31.400754398894307,-7.773615063130855,10.759079319405554
1783246286633548000,5.688548095703125,-31.425337051486967,-10.14473746099472,7.869494188696145
1783246286643560200,5.698560302734375,-32.018844211661815,-9.463921435201167,6.621963148063421
1783246286653572000,5.708572021484375,-32.091079426789285,-6.825721633589267,6.015432255664467
1783246286663583000,5.7185830078125,-29.618294643783567,-4.314841513206065,4.35655241073221
1783246286673595100,5.72859521484375,-24.01237900855541,-1.931163292890787,2.0110165818065404
1783246286683607000,5.73860693359375,-16.952112121510506,-0.33553046998828645,-0.6042794602103531
1783246286693618200,5.7486181640625,-9.42809024336338,1.2504571572124958,-2.5017373212456704
1783246286703630300,5.75863037109375,-1.7140537428826093,3.153682641863823,-3.7952491918087
1783246286713642200,5.768642333984375,5.299726118275523,4.1264632599025965,-5.481733959764242
1783246286723653000,5.778653076171875,11.394087533748149,4.077197416952252,-6.87140786448717
1783246286733665000,5.7886650390625,17.21381776909232,3.5814907057940957,-7.49620565046072
1783246286743677200,5.79867724609375,22.12918976523876,2.897624060258269,-8.108921368974446
1783246286753689000,5.808689208984375,25.260740070271492,2.5341502290725706,-7.667514403280616
1783246286763700000,5.818699951171875,25.292336985540388,3.4858144093245267,-5.7780766209632155
1783246286773712100,5.828712158203125,23.76381224400997,4.597883086544275,-2.9210066894114015
1783246286783724000,5.83872412109375,20.77012493379116,5.670336377212405,-0.368475731126219
1783246286793735000,5.84873486328125,17.208712554907798,6.693067313334345,0.9160565680369734
1783246286803747000,5.8587470703125,13.375069627296924,6.876801247963309,0.5860773024350404
1783246286813759000,5.868759033203125,8.968916150310635,6.461923392754793,-1.147497425736487
1783246286823771000,5.87877099609375,8.209667808315157,5.957874969708919,-3.261545050689578
1783246286833782300,5.8887822265625,8.63081992148757,6.07331687387824,-4.392382141265273
1783246286843794200,5.898794189453125,7.71623839443922,5.035900409799814,-5.910150510981679
1783246286853806000,5.90880615234375,6.821731102648377,4.02432858107388,-7.107344280040263
1783246286863817200,5.918817138671875,6.573946428391337,3.6581948830291626,-7.146820550382137
1783246286873829000,5.9288291015625,6.715690064030885,3.304015826672315,-6.468416261905431
1783246286883841000,5.938841064453125,7.033225735384225,3.0162755741238594,-5.505024818980694
1783246286893852000,5.948851806640625,7.664476643019914,2.8333228530004617,-4.627193352180719
1783246286903864000,5.958864013671875,8.580432381030917,2.4843776056438682,-3.9253102807000277
1783246286913876000,5.9688759765625,9.522736612263321,2.103493205451965,-3.286312412199378
1783246286923888000,5.97888818359375,10.209725773733854,1.8344734354645014,-2.5695874531567093
1783246286933899300,5.988899169921875,10.224433513522147,1.5662883627355098,-2.1715093415796756
1783246286943911200,5.9989111328125,9.025334203103185,1.1178078053936362,-1.670480266354978
1783246286953923000,6.008923095703125,7.551557535326481,0.7614972899660468,-0.5717746363162994
1783246286963934200,6.018934326171875,7.748897385981678,0.8694383169859647,0.5885584517262876
1783246286973946000,6.028946044921875,6.923429728147387,1.225678397525847,1.0125316136687994
1783246286983958000,6.0389580078125,5.670390153226256,1.1087927242889999,1.5008032063901424
1783246286993970200,6.04897021484375,6.470511188358068,0.7443520938977599,1.7160671285316347
1783246287003981000,6.05898095703125,7.6525711011707775,0.8550012108325957,1.2429714776322245
1783246287013993000,6.068992919921875,8.179277930748462,1.4587977098315954,1.042792311897874
1783246287024005000,6.079005126953125,8.188133437377214,2.090626709616184,1.7922144025363027
1783246287034016300,6.089016357421875,7.12969288997054,2.5070515020057558,2.242932655802369
1783246287044028200,6.099028076171875,5.289264345493913,2.9485008455365893,2.0126149569138883
1783246287054040300,6.109040283203125,2.8007033166855573,2.543622114033997,0.884109816417098
1783246287064051200,6.11905126953125,-0.7932324446618556,0.055146133160591124,-1.2881862916260958
1783246287074063000,6.12906298828125,-5.421488457638025,-1.4065271321073174,-2.7590777593553066
1783246287084075300,6.1390751953125,-9.66416519060433,-0.9573363806694746,-2.326127510230988
1783246287094087200,6.149087158203125,-13.232633333218097,-0.44061143140196796,-1.189683831819892
1783246287104098000,6.15909814453125,-17.217608978068828,0.6971984207957983,-0.11261384113654493
1783246287114110000,6.16910986328125,-19.2148571467638,-0.10529372738152742,-1.4270407816953956
1783246287124122000,6.1791220703125,-19.268602765476704,-1.3019360000371931,-2.078155058316886
1783246287134133000,6.189133056640625,-18.069161509752274,-0.7021791318178177,-0.24897782956436276
1783246287144145000,6.199144775390625,-15.66620020455718,-0.1985071408689022,0.1894900870028883
1783246287154157000,6.209156982421875,-14.049701411497592,-1.1710919440746306,-0.5467758041381836
1783246287164169000,6.2191689453125,-13.139308568310737,-2.325164072026312,-1.6447133724138139
1783246287174180000,6.22918017578125,-14.12486741937995,-3.0771894770309327,-2.7016657270893454
1783246287184192300,6.239192138671875,-15.491452709460258,-3.6510534868419167,-2.744491015598178
1783246287194204200,6.2492041015625,-15.45013870229721,-3.070093089029193,-1.2745368287190795
1783246287204215000,6.259215087890625,-14.10308228855133,-0.6800783591687679,0.7169880669582634
1783246287214227200,6.269227294921875,-11.9136550129652,1.3342585992321372,1.227849019563198
1783246287224239000,6.279239013671875,-9.46777986419499,1.4464865097910165,0.48357042929306626
1783246287234250000,6.28925,-8.300013849672675,0.5805135308280587,0.9615706572383642
1783246287244262100,6.29926220703125,-7.4071566631764165,-0.5889063883811235,2.0368938042543827
1783246287254274000,6.309274169921875,-3.620165012103319,-1.5637971304416656,1.6886844699569046
1783246287264286000,6.319285888671875,1.127946045309305,-1.2331181921377776,0.877913445995003
1783246287274297000,6.329297119140625,3.2091169443160292,-1.0111430819198488,-0.291572231926769
1783246287284309200,6.339309326171875,4.155288372370601,-1.156242165467143,-1.4897291469290852
1783246287294321200,6.349321044921875,3.9900481258094307,-0.6285343421533703,-2.373398818363249
1783246287304332000,6.35933203125,3.365406991702318,-0.020713702204823492,-2.710191271111369
1783246287314344200,6.36934423828125,2.502188572144508,0.18569763591736554,-2.5693220802187917
1783246287324356000,6.379356201171875,1.9921908853054044,0.5760784709900617,-2.3575490689329803
1783246287334367000,6.389366943359375,1.6035802747756243,0.9933274392440915,-2.1416813356794417
1783246287344379100,6.399379150390625,1.3688871372818947,1.2598615298956632,-1.9704656679704784
1783246287354391000,6.40939111328125,1.0560855087131262,1.6441288505241274,-1.7319558947980402
1783246287364403000,6.41940283203125,0.7444529239237309,2.286987193845212,-1.3213327744245529
1783246287374414000,6.4294140625,1.1373884119153022,2.720873700906336,-1.0367552236907183
1783246287384426200,6.43942626953125,2.5338795954376456,2.6310060907155273,-0.9225101280905306
1783246287394438100,6.449438232421875,4.2275288481950755,2.34892839397341,-0.8236652845874428
1783246287404449000,6.459448974609375,5.593304575458169,2.181430723874271,-0.5850798158302902
1783246287414461200,6.469461181640625,6.526181637653708,2.1899632821589705,-0.1110609126061201
1783246287424473000,6.47947314453125,6.835737416169047,2.337298746456206,0.33758389538675543
1783246287434485200,6.4894853515625,6.631990621080994,2.7118767399802803,0.5646081056877971
1783246287444496100,6.49949609375,6.270241713991761,3.3209792364329096,0.5946835104778408
1783246287454508000,6.509508056640625,6.100631581783294,3.8958804803371425,0.42696898275762796
1783246287464516600,6.5195166015625,6.256525907850265,4.218156624215841,0.0950274771720171
1783246287474527700,6.52952783203125,6.490182103511691,4.293973204961419,-0.21712050979360936
1783246287484539600,6.53953955078125,6.525388441449404,4.353547675958276,-0.5182498207472265
1783246287494551600,6.549551513671875,6.362336060321331,4.517073812077939,-0.7732097934611141
1783246287504562700,6.559562744140625,6.08512129344046,4.575833751821517,-0.9619687166452408
1783246287514574800,6.569574951171875,5.849429792559147,4.581164591455459,-1.1048543619267641
1783246287524586800,6.579586669921875,5.849531499367952,4.445461989545822,-1.2908980348028243
1783246287534599000,6.589598876953125,5.628282949858904,4.162799186392128,-1.502209858317673
1783246287544609800,6.59960986328125,5.174782226267457,3.8204201656833288,-1.6129548368424176
1783246287554621700,6.60962158203125,4.512888343086838,3.289688026112318,-1.5511219193942845
1783246287564633900,6.6196337890625,3.6259073551476,2.5513527082860468,-1.426015091909468
1783246287574644700,6.629644775390625,2.5120634849488734,1.267993398424983,-1.0307248574852943
1783246287584656600,6.63965673828125,0.5843108772844076,-0.6790484315991401,-0.1766438302375376
1783246287594668500,6.64966845703125,-2.6292116085141894,-1.9153484686434268,0.6675901951260864
1783246287604680000,6.659679931640625,-5.350680060443282,-2.7468565756857393,1.6828347210153936
1783246287614691800,6.66969189453125,-7.7239172585040325,-2.0187001220464706,2.3592574802860615
1783246287624703700,6.679703857421875,-9.184212513417005,-0.7452250773400068,2.7462317217856644
1783246287634716000,6.6897158203125,-9.75485668439865,-0.1501169117093086,2.872886509364843
1783246287644726800,6.699726806640625,-10.222032297599315,-0.9637170216172933,2.520827513901889
1783246287654738700,6.70973876953125,-10.52861052160859,-2.5450012934327124,2.0644433438286183
1783246287664750800,6.719750732421875,-9.750870245110988,-3.4475936920017003,1.6957083772443233
1783246287674761700,6.72976171875,-7.89434630587995,-3.178023886916041,1.1067191328853367
1783246287684773600,6.739773681640625,-6.326254108592868,-3.113784346717596,0.24368154978714882
1783246287694785800,6.749785888671875,-5.065535669606923,-3.5718694754898546,-0.7562320629142224
1783246287704797700,6.759797607421875,-3.8864626636505126,-4.100894518882036,-1.6736752630040048
1783246287714808600,6.76980859375,-3.1101871990084646,-4.243526627793908,-2.1582529696434736
1783246287724820700,6.77982080078125,-2.3617554345816374,-3.488836387494206,-2.143667979452014
1783246287734832600,6.78983251953125,-1.0903595342367887,-2.1003853025645016,-1.7397545858502388
1783246287744843800,6.79984375,0.2907201451420784,-1.1232400595754384,-0.9326851928852498
1783246287754855700,6.809855712890625,1.501560746759176,-0.6075286712646484,0.18800730109922587
1783246287764867800,6.819867919921875,2.419660511061549,-0.2638192787349224,1.2248894391052425
1783246287774878700,6.829878662109375,2.841409421083331,0.04402969586253166,1.713694261920452
1783246287784890600,6.839890625,2.5867133600026366,0.3209852272853255,1.4748898897156117
1783246287794902800,6.84990283203125,1.8560896394670008,0.711216132493317,0.6149634243752807
1783246287804914700,6.859914794921875,1.166503447240591,1.0997571849182248,-0.6069590181505308
1783246287814925600,6.869925537109375,0.6614531536757946,1.6054849393531678,-1.5946449809089303
1783246287824937700,6.879937744140625,0.6279448518276214,2.114155469241738,-2.1141423174992204
1783246287834949600,6.88994970703125,1.051889226067066,2.336033841086924,-2.0457496031440794
1783246287844960800,6.899960693359375,1.4053291544944047,2.3404990038022397,-1.1736144482895732
1783246287854973000,6.909972900390625,1.9116864390045403,2.3352689941942693,0.34901506118979303
1783246287864984800,6.91998486328125,2.609917125457525,2.268986257730424,1.7277147500969467
1783246287874995700,6.92999560546875,3.1451544674932954,2.030299082164466,2.447837096492946
1783246287885007600,6.940007568359375,3.4193607002079487,1.562134457926452,2.8799422730952497
1783246287895019800,6.950019775390625,3.4453830302149053,1.538861426627636,3.084436087158322
1783246287905031700,6.96003173828125,3.4766537822693584,1.8898077846735715,2.968559590964019
1783246287915042600,6.97004248046875,3.4397114143192766,2.5165838849827646,2.5237945470139382
1783246287925054700,6.9800546875,3.2415807055473325,2.9518057323008775,1.6486343452498315
1783246287935066600,6.990066650390625,3.4590380460798738,3.032492257170379,0.46614020573832093
1783246287945077800,7.000077880859375,4.047511888262629,3.419956912535429,-0.3354958735989407
1783246287955090000,7.01008984375,3.947133697712421,3.8211832590103145,-0.5056609362764284
1783246287965101800,7.020101806640625,3.231367354568839,3.904980901637673,-0.551640085706301
1783246287975113700,7.03011376953125,2.3720091175705194,3.754634272825718,-0.5571835817102343
1783246287985124900,7.040124755859375,1.4520961663663385,3.6917391329735514,-0.4601185342960059
