time,seconds_elapsed,z,y,x
1783246175897114600,0.062114501953125,0.19381973147392273,0.1898605227470398,1.0279173851013184
1783246175907126500,0.07212646484375,0.1978047788143158,0.03854146972298622,1.1324396133422852
1783246175917137400,0.082137451171875,0.1690567582845688,-0.018671486526727676,1.299467921257019
1783246175927149300,0.0921494140625,0.1081942617893219,0.044768791645765305,1.5225720405578613
1783246175937161500,0.102161376953125,-0.023743001744151115,0.09310569614171982,1.710443377494812
1783246175947173400,0.11217333984375,-0.21552427113056183,0.003821252379566431,1.8171147108078003
1783246175957184300,0.122184326171875,-0.43431758880615234,-0.25161316990852356,1.9085339307785034
1783246175967196400,0.132196533203125,-0.5091283321380615,-0.5438816547393799,1.9262441396713257
1783246175977208300,0.142208251953125,-0.3211331367492676,-0.9356364011764526,1.6765486001968384
1783246175987220200,0.15222021484375,0.04188302904367447,-1.341590404510498,1.1781960725784302
1783246175997232400,0.162232421875,0.5786367654800415,-1.5185045003890991,0.8304656147956848
1783246176007243500,0.172243408203125,1.2428553104400635,-1.5735790729522705,0.7543854117393494
1783246176017255400,0.18225537109375,1.8023478984832764,-1.7567871809005737,0.6551470160484314
1783246176027267600,0.192267578125,2.178205966949463,-1.9841973781585693,0.3921029269695282
1783246176037279500,0.202279541015625,2.447145700454712,-2.1692724227905273,0.018901659175753593
1783246176047290400,0.212290283203125,2.6979923248291016,-2.202145576477051,-0.5046318173408508
1783246176057302500,0.222302490234375,2.8754942417144775,-2.0408952236175537,-1.2305407524108887
1783246176067314400,0.232314453125,2.8399693965911865,-1.606003999710083,-2.1047229766845703
1783246176077326300,0.242326416015625,2.631826162338257,-0.9942628741264343,-3.0041861534118652
1783246176087338500,0.25233837890625,2.342297077178955,-0.32435980439186096,-3.8303818702697754
1783246176097349400,0.262349365234375,2.0743050575256348,0.2390124648809433,-4.5080647468566895
1783246176107361300,0.272361328125,1.9125018119812012,0.7012184858322144,-4.9587321281433105
1783246176117373400,0.28237353515625,1.8656433820724487,0.8593631386756897,-5.197482585906982
1783246176127385300,0.29238525390625,1.9193274974822998,0.5105144381523132,-5.237883567810059
1783246176137396200,0.302396240234375,2.0271990299224854,-0.011036309413611889,-5.057561874389648
1783246176147408400,0.312408447265625,2.1473324298858643,-0.48343315720558167,-4.7034149169921875
1783246176157420300,0.322420166015625,2.2672512531280518,-0.8795725107192993,-4.199010372161865
1783246176167432200,0.33243212890625,2.376955032348633,-1.3052632808685303,-3.652592420578003
1783246176177444400,0.3424443359375,2.446399688720703,-1.7173078060150146,-3.213827133178711
1783246176187455500,0.35245556640625,2.4441609382629395,-2.0122148990631104,-2.971766233444214
1783246176197467400,0.36246728515625,2.4083352088928223,-2.100313663482666,-2.9886908531188965
1783246176207479600,0.3724794921875,2.3905370235443115,-2.013678789138794,-3.1785993576049805
1783246176217491500,0.382491455078125,2.4062423706054688,-1.8351483345031738,-3.4543862342834473
1783246176227503400,0.39250341796875,2.46410870552063,-1.6500176191329956,-3.7145779132843018
1783246176237514500,0.402514404296875,2.5537848472595215,-1.5572304725646973,-3.8872859477996826
1783246176247526400,0.4125263671875,2.6309444904327393,-1.4665815830230713,-3.9193034172058105
1783246176257538300,0.422538330078125,2.666447639465332,-1.3296631574630737,-3.817126512527466
1783246176267550500,0.432550537109375,2.7276813983917236,-1.2892627716064453,-3.5614137649536133
1783246176277561300,0.442561279296875,2.6887776851654053,-1.5912226438522339,-3.1488146781921387
1783246176287573200,0.4525732421875,2.3295068740844727,-2.2468981742858887,-2.9592161178588867
1783246176297585400,0.46258544921875,1.8268612623214722,-2.5367729663848877,-3.0215797424316406
1783246176307597300,0.472597412109375,1.424170970916748,-2.284609079360962,-3.091247081756592
1783246176317609200,0.482609130859375,1.3787808418273926,-1.5607563257217407,-3.0738070011138916
1783246176327620600,0.49262060546875,1.769708514213562,-0.4861619770526886,-2.9444806575775146
1783246176337632500,0.502632568359375,2.37210750579834,0.6801882982254028,-2.641951084136963
1783246176347644400,0.51264453125,2.878753662109375,1.3060494661331177,-2.202552080154419
1783246176357656600,0.522656494140625,3.0507314205169678,1.1924816370010376,-1.638033390045166
1783246176367667200,0.532667236328125,2.8686585426330566,0.5174041390419006,-1.1486616134643555
1783246176377679400,0.542679443359375,2.4524896144866943,-0.4259586036205292,-0.7426319718360901
1783246176387691300,0.552691162109375,1.9497902393341064,-1.1330276727676392,-0.29970088601112366
1783246176397703200,0.562703125,1.5161988735198975,-1.2563050985336304,0.07352489978075027
1783246176407715300,0.57271533203125,1.233575463294983,-0.7549127340316772,0.24941809475421906
1783246176417726200,0.582726318359375,1.3661903142929077,0.5790534615516663,0.5454151034355164
1783246176427738000,0.592738037109375,0.9736607670783997,1.9758853912353516,0.8662670254707336
1783246176437750300,0.602750244140625,0.5476394295692444,2.695443868637085,1.232287049293518
1783246176447762200,0.61276220703125,0.2173878401517868,2.9922664165496826,1.3603453636169434
1783246176457774000,0.622774169921875,-0.2744543254375458,2.774200677871704,1.4026579856872559
1783246176467785200,0.63278515625,-0.6090462803840637,2.7116734981536865,1.40211820602417
1783246176477797400,0.64279736328125,-0.7954829931259155,2.735860586166382,1.3874680995941162
1783246176487809300,0.652809326171875,-0.9212488532066345,2.9772017002105713,1.5137028694152832
1783246176497821400,0.662821533203125,-0.8593404293060303,3.2347443103790283,1.8962041139602661
1783246176507832300,0.672832275390625,-0.610945463180542,3.1561756134033203,2.5333046913146973
1783246176517844200,0.68284423828125,-0.4554991126060486,2.364995002746582,3.1014621257781982
1783246176527856400,0.6928564453125,-0.49676305055618286,1.3797870874404907,3.431598663330078
1783246176537868300,0.702868408203125,-0.677711009979248,0.6675460338592529,3.370950937271118
1783246176547880200,0.712880126953125,-0.9278465509414673,0.1723935902118683,2.7438488006591797
1783246176557891000,0.72289111328125,-1.2462058067321777,0.1794419139623642,1.6888214349746704
1783246176567903200,0.7329033203125,-1.4993031024932861,0.1390434205532074,0.46599113941192627
1783246176577915100,0.7429150390625,-1.5659737586975098,-0.34116795659065247,-0.6261757612228394
1783246176587927300,0.75292724609375,-1.4555778503417969,-0.8159806728363037,-1.3560025691986084
1783246176597938200,0.762938232421875,-1.2581467628479004,-1.5016103982925415,-1.730756163597107
1783246176607950300,0.772950439453125,-1.1145703792572021,-1.714848518371582,-1.6546236276626587
1783246176617962200,0.782962158203125,-1.1100046634674072,-1.873753309249878,-1.9017058610916138
1783246176627974100,0.79297412109375,-1.0897746086120605,-2.0212812423706055,-2.2405474185943604
1783246176637986300,0.802986328125,-1.0059795379638672,-1.5313514471054077,-2.296551465988159
1783246176647997200,0.8129970703125,-0.9843705892562866,-0.781801164150238,-2.214921712875366
1783246176658009300,0.82300927734375,-1.0522189140319824,-0.18322212994098663,-2.037780284881592
1783246176668021200,0.833021240234375,-1.2088576555252075,0.0744326263666153,-1.7070289850234985
1783246176678033200,0.843033203125,-1.3926560878753662,-0.1433124840259552,-1.331626534461975
1783246176688045300,0.85304541015625,-1.548326015472412,-0.6454669237136841,-1.02131986618042
1783246176698056200,0.86305615234375,-1.5349276065826416,-1.350187063217163,-0.881768524646759
1783246176708068000,0.873068115234375,-1.3234412670135498,-2.0156943798065186,-1.031144380569458
1783246176718080300,0.883080322265625,-1.0175236463546753,-2.389791488647461,-1.1545883417129517
1783246176728092200,0.893092041015625,-0.5956425666809082,-2.501497983932495,-1.0695099830627441
1783246176738103000,0.90310302734375,-0.16605228185653687,-2.625518798828125,-0.8190938234329224
1783246176748115200,0.913115234375,0.22508518397808075,-2.808298349380493,-0.5277991890907288
1783246176758127000,0.923127197265625,0.5372646450996399,-2.847306489944458,-0.1801072657108307
1783246176768139000,0.933138916015625,0.7212676405906677,-2.639880418777466,0.23652346432209015
1783246176778151200,0.943151123046875,0.9345862865447998,-2.3549983501434326,0.6844629049301147
1783246176788162300,0.953162353515625,1.1401537656784058,-2.1929163932800293,1.0094881057739258
1783246176798174200,0.96317431640625,1.2245328426361084,-2.015911817550659,1.1533973217010498
1783246176808186400,0.973186279296875,1.1185909509658813,-1.717448353767395,1.1287904977798462
1783246176818198300,0.9831982421875,0.8693744540214539,-1.3758710622787476,0.9324891567230225
1783246176828209200,0.993209228515625,0.5573685765266418,-1.0776705741882324,0.5978490710258484
1783246176838221300,1.00322119140625,0.2989220917224884,-0.7913426756858826,0.21173971891403198
1783246176848233200,1.013233154296875,0.13961261510849,-0.5721271634101868,-0.15768545866012573
1783246176858245000,1.0232451171875,0.02499762363731861,-0.6110886931419373,-0.45324093103408813
1783246176868257300,1.03325732421875,-0.07723633199930191,-0.8808999061584473,-0.6066985130310059
1783246176878268200,1.04326806640625,-0.08469744026660919,-1.1451810598373413,-0.6088471412658691
1783246176888280000,1.053280029296875,-0.0000417300034314394,-1.1936863660812378,-0.45895692706108093
1783246176898292200,1.063292236328125,0.07759501039981842,-1.0254456996917725,-0.12402394413948059
1783246176908304100,1.07330419921875,0.11442286521196365,-0.9153915643692017,0.3760066032409668
1783246176918316000,1.08331591796875,0.04018697887659073,-1.19046950340271,0.9738628268241882
1783246176928327400,1.093327392578125,-0.13607396185398102,-1.4999265670776367,1.3474223613739014
1783246176938339300,1.10333935546875,-0.12759366631507874,-1.2086411714553833,1.3713140487670898
1783246176948351200,1.113351318359375,0.04507318139076233,-0.8977754712104797,1.4859868288040161
1783246176958363400,1.12336328125,0.1688699573278427,-0.8247047066688538,1.7048488855361938
1783246176968374300,1.133374267578125,0.19035644829273224,-0.8600090742111206,1.8284045457839966
1783246176978386200,1.14338623046875,0.13028618693351746,-0.8336480259895325,1.8761262893676758
1783246176988398300,1.1533984375,-0.10562914609909058,-0.6483282446861267,1.8199074268341064
1783246176998410200,1.16341015625,-0.3601788878440857,-0.48211053013801575,1.656760573387146
1783246177008422100,1.173422119140625,-0.34804004430770874,-0.52234947681427,1.3794605731964111
1783246177018433300,1.183433349609375,-0.09432629495859146,-0.4558335244655609,1.1182870864868164
1783246177028445200,1.193445068359375,0.20681710541248322,-0.3853587806224823,0.9554190039634705
1783246177038457000,1.20345703125,0.27124375104904175,-0.5197938084602356,0.879836916923523
1783246177048469200,1.21346923828125,-0.03681088611483574,-0.46419376134872437,1.074211835861206
1783246177058480400,1.22348046875,-0.3447423279285431,-0.052279725670814514,1.5901870727539062
1783246177068492300,1.2334921875,-0.34187042713165283,0.7139286994934082,2.265277147293091
1783246177078504400,1.24350439453125,-0.08420561999082565,1.479171872138977,2.799513816833496
1783246177088516400,1.253516357421875,0.3932904899120331,1.4535962343215942,2.879873275756836
1783246177098528300,1.2635283203125,0.9491148591041565,0.6020696759223938,2.511341094970703
1783246177108539400,1.273539306640625,1.3863191604614258,-0.6037110686302185,1.929458498954773
1783246177118551300,1.28355126953125,1.6494828462600708,-1.7652082443237305,1.381934404373169
1783246177128563200,1.293563232421875,1.7286620140075684,-2.547734022140503,1.057862639427185
1783246177138575400,1.303575439453125,1.7395071983337402,-3.111940383911133,0.8909890651702881
1783246177148587300,1.313587158203125,1.7644152641296387,-3.676178216934204,0.741704523563385
1783246177158598100,1.32359814453125,1.8316068649291992,-4.170985698699951,0.5943254232406616
1783246177168610300,1.3336103515625,1.9590214490890503,-4.486521244049072,0.43891674280166626
1783246177178622200,1.343622314453125,2.1451210975646973,-4.5956878662109375,0.32099464535713196
1783246177188634000,1.353634033203125,2.3948192596435547,-4.507375240325928,0.22505716979503632
1783246177198645000,1.36364501953125,2.5822813510894775,-4.2672505378723145,0.23578491806983948
1783246177208657200,1.3736572265625,2.5937178134918213,-3.986722469329834,0.3671669661998749
1783246177218669000,1.3836689453125,2.431654691696167,-3.7427024841308594,0.58087158203125
1783246177228681200,1.39368115234375,2.096944570541382,-3.564986228942871,0.8500138521194458
1783246177238693000,1.403693115234375,1.6163597106933594,-3.462395429611206,1.102086067199707
1783246177248704300,1.413704345703125,1.0828769207000732,-3.439948320388794,1.245003581047058
1783246177258716400,1.42371630859375,0.5367230176925659,-3.4006175994873047,1.2778470516204834
1783246177268728300,1.433728271484375,-0.008048252202570438,-3.20572566986084,1.1764997243881226
1783246177278740200,1.443740234375,-0.41660699248313904,-2.892935037612915,0.9836304187774658
1783246177288751000,1.453751220703125,-0.5331501364707947,-2.483363151550293,0.8498558402061462
1783246177298763300,1.46376318359375,-0.38251644372940063,-1.988115906715393,0.8553851246833801
1783246177308775200,1.473775146484375,-0.07767128944396973,-1.548295021057129,1.0072938203811646
1783246177318787300,1.483787353515625,0.279902845621109,-1.2681735754013062,1.2682135105133057
1783246177328799200,1.49379931640625,0.6037968993186951,-1.172135829925537,1.5972611904144287
1783246177338810000,1.50381005859375,0.8145626783370972,-1.2764776945114136,1.910750389099121
1783246177348822000,1.513822021484375,0.8369793891906738,-1.4328505992889404,2.180551528930664
1783246177358834200,1.523834228515625,0.7032088041305542,-1.593911051750183,2.348698854446411
1783246177368846000,1.53384619140625,0.5215141177177429,-1.8039380311965942,2.3413074016571045
1783246177378858200,1.543858154296875,0.3562239408493042,-2.0154035091400146,2.1814701557159424
1783246177388869400,1.553869384765625,0.2199186533689499,-2.0967836380004883,1.9226055145263672
1783246177398881300,1.56388134765625,0.12499666959047318,-2.0359766483306885,1.5932531356811523
1783246177408893400,1.5738935546875,0.07325843721628189,-1.8463040590286255,1.2816323041915894
1783246177418905300,1.5839052734375,0.05344611406326294,-1.584770679473877,1.0499851703643799
1783246177428916200,1.593916259765625,0.05179712921380997,-1.3338147401809692,0.8949200510978699
1783246177438928100,1.60392822265625,0.06448682397603989,-1.058714509010315,0.7608016133308411
1783246177448940300,1.613940185546875,0.05739803984761238,-0.8437593579292297,0.6274973154067993
1783246177458952200,1.6239521484375,0.0034373365342617035,-0.7203410267829895,0.5234904885292053
1783246177468964400,1.63396435546875,-0.09060449153184891,-0.5984867811203003,0.49225354194641113
1783246177478975200,1.643975341796875,-0.19822043180465698,-0.4768756330013275,0.48912352323532104
1783246177488987100,1.653987060546875,-0.23882707953453064,-0.4107702374458313,0.4804789423942566
1783246177498999000,1.6639990234375,-0.2637428343296051,-0.3514549732208252,0.4930083155632019
1783246177509011200,1.67401123046875,-0.33282309770584106,-0.3141600489616394,0.5640706419944763
1783246177519022300,1.684022216796875,-0.41947463154792786,-0.3452521860599518,0.7060240507125854
1783246177529034200,1.6940341796875,-0.5079402923583984,-0.4407217502593994,0.892042338848114
1783246177539046400,1.70404638671875,-0.591055154800415,-0.5830737948417664,1.0744850635528564
1783246177549058300,1.714058349609375,-0.6453450322151184,-0.6574996113777161,1.2205089330673218
1783246177559070500,1.724070556640625,-0.6732504367828369,-0.6688953042030334,1.3078749179840088
1783246177569081300,1.734081298828125,-0.8784107565879822,-0.609420657157898,1.39847993850708
1783246177579093200,1.74409326171875,-1.2542424201965332,-0.26821863651275635,1.6473792791366577
1783246177589105200,1.754105224609375,-1.6008923053741455,0.25873056054115295,1.9578062295913696
1783246177599117300,1.764117431640625,-1.721225380897522,0.7666524052619934,2.102111339569092
1783246177609128200,1.774128173828125,-1.6773381233215332,1.1997555494308472,1.9685431718826294
1783246177619140000,1.78414013671875,-1.5875861644744873,1.486284852027893,1.6850820779800415
1783246177629152300,1.79415234375,-1.4525014162063599,1.712726354598999,1.453197956085205
1783246177639164200,1.8041640625,-1.174224853515625,1.9222122430801392,1.4359784126281738
1783246177649176000,1.814176025390625,-0.7448747754096985,2.0035576820373535,1.5845271348953247
1783246177659187200,1.824187255859375,-0.30811476707458496,1.9043221473693848,1.545360803604126
1783246177669199000,1.83419921875,0.09954802691936493,1.5342202186584473,0.967208743095398
1783246177679211300,1.844211181640625,0.3193744122982025,1.0418238639831543,0.012778684496879578
1783246177689223200,1.85422314453125,0.4060615599155426,0.8113964200019836,-0.7318562269210815
1783246177699235300,1.8642353515625,0.36317986249923706,0.7677061557769775,-1.0314078330993652
1783246177709246200,1.87424609375,0.2770702540874481,0.6540994048118591,-1.018175482749939
1783246177719258400,1.88425830078125,0.29310888051986694,0.3412728011608124,-0.8700666427612305
1783246177729270300,1.894270263671875,0.3931562900543213,-0.0688500702381134,-0.6550904512405396
1783246177739282200,1.9042822265625,0.5270280838012695,-0.4417027235031128,-0.4227088987827301
1783246177749293300,1.914293212890625,0.677818775177002,-0.6688894629478455,-0.22710907459259033
1783246177759305200,1.92430517578125,0.8178038001060486,-0.7979723811149597,-0.11279501765966415
1783246177769317000,1.934317138671875,0.8926053047180176,-0.7944810390472412,-0.11146853119134903
1783246177779329300,1.944329345703125,0.9425784349441528,-0.6208474636077881,-0.20589090883731842
1783246177789341200,1.954341064453125,0.9780136942863464,-0.36222124099731445,-0.32107052206993103
1783246177799352000,1.96435205078125,1.0171037912368774,-0.10425414144992828,-0.394746869802475
1783246177809364200,1.9743642578125,1.0729509592056274,0.06984426826238632,-0.37361446022987366
1783246177819376000,1.984376220703125,1.1159820556640625,0.11662402004003525,-0.22953850030899048
1783246177829388000,1.994387939453125,1.1255180835723877,-0.010227027349174023,0.06270734965801239
1783246177839399400,2.0043994140625,1.0374468564987183,-0.28149235248565674,0.45920464396476746
1783246177849411300,2.014411376953125,0.8617219924926758,-0.7368067502975464,0.7954691648483276
1783246177859423200,2.02442333984375,0.7704415917396545,-1.3309502601623535,1.0019850730895996
1783246177869435400,2.034435302734375,0.7997192144393921,-1.7865713834762573,1.2133135795593262
1783246177879447300,2.044447265625,0.7609587907791138,-2.033567190170288,1.5175563097000122
1783246177889458200,2.054458251953125,0.7174665927886963,-2.114868640899658,1.8309475183486938
1783246177899470300,2.06447021484375,0.7747631669044495,-2.059724807739258,2.019454002380371
1783246177909482200,2.074482177734375,0.9330125451087952,-1.923504114151001,2.027412176132202
1783246177919494100,2.084494140625,1.1023179292678833,-1.811083197593689,1.8817238807678223
1783246177929505300,2.09450537109375,1.2644675970077515,-1.7090115547180176,1.6765111684799194
1783246177939517200,2.10451708984375,1.4080591201782227,-1.6397778987884521,1.442870020866394
1783246177949529000,2.114529052734375,1.557003378868103,-1.6128571033477783,1.21188485622406
1783246177959541200,2.124541259765625,1.7049046754837036,-1.600335717201233,0.9991761445999146
1783246177969553200,2.13455322265625,1.8544483184814453,-1.5649579763412476,0.809243381023407
1783246177979564300,2.144564208984375,1.9911779165267944,-1.497307538986206,0.649873673915863
1783246177989576400,2.154576416015625,2.1091268062591553,-1.3778589963912964,0.5072452425956726
1783246177999588400,2.16458837890625,2.190232038497925,-1.287136197090149,0.40341898798942566
1783246178009600300,2.174600341796875,2.1785240173339844,-1.2336467504501343,0.37067723274230957
1783246178019612400,2.1846123046875,1.9974874258041382,-1.2351658344268799,0.4199334681034088
1783246178029623300,2.194623291015625,1.6506329774856567,-1.202797532081604,0.5727952718734741
1783246178039635200,2.20463525390625,1.3425734043121338,-1.1385515928268433,0.6962964534759521
1783246178049647400,2.2146474609375,1.0486277341842651,-1.014488697052002,0.753241240978241
1783246178059659300,2.2246591796875,0.7360146045684814,-0.8062769770622253,0.7801503539085388
1783246178069670100,2.234670166015625,0.4590425193309784,-0.5863668322563171,0.7890809178352356
1783246178079682300,2.244682373046875,0.2638210952281952,-0.3671063482761383,0.7582157254219055
1783246178089694200,2.254694091796875,0.14513733983039856,-0.15156103670597076,0.7307410836219788
1783246178099706000,2.2647060546875,0.07502217590808868,0.09577951580286026,0.7569934725761414
1783246178109718300,2.27471826171875,0.13073453307151794,0.34794071316719055,0.843102753162384
1783246178119729400,2.2847294921875,0.2434815764427185,0.7853412628173828,1.0361639261245728
1783246178129741300,2.2947412109375,0.35826417803764343,1.2194397449493408,1.3998082876205444
1783246178139753200,2.304753173828125,0.48465806245803833,1.406888723373413,1.9256467819213867
1783246178149765400,2.314765380859375,0.559857964515686,1.1664042472839355,2.389437437057495
1783246178159776300,2.3247763671875,0.5530493259429932,0.5110615491867065,2.462834119796753
1783246178169788200,2.3347880859375,0.5150357484817505,-0.3048483431339264,2.0215492248535156
1783246178179800300,2.34480029296875,0.5333095788955688,-0.9043522477149963,1.2367780208587646
1783246178189812200,2.354812255859375,0.622421145439148,-1.1307746171951294,0.47628819942474365
1783246178199824400,2.364824462890625,0.7225741147994995,-1.0749025344848633,0.06479892134666443
1783246178209835300,2.374835205078125,0.627985954284668,-0.9440457224845886,-0.12713229656219482
1783246178219847200,2.38484716796875,0.3350009024143219,-0.6024330258369446,-0.020278818905353546
1783246178229859000,2.394859130859375,0.00413815351203084,-0.3512696325778961,0.41705307364463806
1783246178239871200,2.404871337890625,-0.1825033575296402,-0.3490573465824127,0.8880538940429688
1783246178249883100,2.414883056640625,-0.18024460971355438,-0.5133153796195984,1.13173246383667
1783246178259894000,2.42489404296875,0.07543084025382996,-0.8316185474395752,1.104671835899353
1783246178269906200,2.43490625,0.5249948501586914,-1.2773991823196411,0.9374179244041443
1783246178279918000,2.44491796875,1.021912932395935,-1.7970921993255615,0.7450742721557617
1783246178289930200,2.45493017578125,1.3936069011688232,-2.4031105041503906,0.5725697875022888
1783246178299941400,2.46494140625,1.5339632034301758,-3.0809342861175537,0.48576080799102783
1783246178309953300,2.474953369140625,1.4733859300613403,-3.6888790130615234,0.49829766154289246
1783246178319965200,2.484965087890625,1.2177945375442505,-4.01271915435791,0.5601730346679688
1783246178329977300,2.494977294921875,0.800438404083252,-3.980297327041626,0.6024743914604187
1783246178339989200,2.5049892578125,0.3039226233959198,-3.634535312652588,0.6497499942779541
1783246178350000000,2.515000244140625,-0.2253982126712799,-3.0725646018981934,0.6987905502319336
1783246178360012300,2.52501220703125,-0.7310233116149902,-2.342805862426758,0.7125529646873474
1783246178370024200,2.535024169921875,-1.2098287343978882,-1.5781466960906982,0.6548011898994446
1783246178380036000,2.5450361328125,-1.6055861711502075,-0.8954062461853027,0.5776875019073486
1783246178390048300,2.55504833984375,-1.8376983404159546,-0.3984895348548889,0.5880983471870422
1783246178400059100,2.56505908203125,-1.8505923748016357,-0.1889594942331314,0.7298858165740967
1783246178410071000,2.575071044921875,-1.566313624382019,-0.4567117393016815,1.0132452249526978
1783246178420083200,2.585083251953125,-1.0288288593292236,-1.181409239768982,1.3411058187484741
1783246178430095000,2.59509521484375,-0.38568592071533203,-2.0902252197265625,1.607405185699463
1783246178440106200,2.605106201171875,0.20216719806194305,-2.8851559162139893,1.6972261667251587
1783246178450118400,2.615118408203125,0.6159790754318237,-3.468412399291992,1.6405009031295776
1783246178460130300,2.62513037109375,0.8338165879249573,-3.7610998153686523,1.5499763488769531
1783246178470142200,2.63514208984375,0.9177254438400269,-3.7698936462402344,1.4724503755569458
1783246178480154400,2.645154296875,0.8836106061935425,-3.568701982498169,1.3787661790847778
1783246178490165200,2.655165283203125,0.71755450963974,-3.2518110275268555,1.236676812171936
1783246178500177200,2.66517724609375,0.4969201683998108,-2.9022791385650635,1.0410043001174927
1783246178510189300,2.675189208984375,0.2587173581123352,-2.507038116455078,0.8094283938407898
1783246178520201200,2.685201171875,0.029646877199411392,-2.041604995727539,0.5964905619621277
1783246178530212000,2.695212158203125,-0.12684549391269684,-1.5439192056655884,0.4108157455921173
1783246178540224300,2.705224365234375,-0.330827921628952,-1.1404534578323364,0.24674029648303986
1783246178550236200,2.715236083984375,-0.5409786105155945,-0.9833745360374451,0.13014687597751617
1783246178560248000,2.725248046875,-0.6862375140190125,-0.9047524333000183,0.06150283291935921
1783246178570260200,2.73526025390625,-0.8279011249542236,-1.093003511428833,0.07071781158447266
1783246178580271400,2.745271240234375,-0.8653731346130371,-1.4316235780715942,0.20264895260334015
1783246178590283300,2.755283203125,-0.6462457180023193,-1.615295648574829,0.43371161818504333
1783246178600295400,2.76529541015625,-0.3950866758823395,-1.4568233489990234,0.649795413017273
1783246178610307300,2.775307373046875,-0.29317113757133484,-0.8561283946037292,0.7734655737876892
1783246178620318200,2.785318115234375,-0.32339081168174744,-0.19284653663635254,0.8041736483573914
1783246178630330400,2.795330322265625,-0.3942204713821411,0.3064056634902954,0.7880644202232361
1783246178640342300,2.80534228515625,-0.4849868416786194,0.7632443308830261,0.7769384980201721
1783246178650354200,2.815354248046875,-0.5110355615615845,1.1975725889205933,0.796638548374176
1783246178660366300,2.825366455078125,-0.462663471698761,1.6579545736312866,0.8739264011383057
1783246178670377200,2.835377197265625,-0.31951507925987244,1.9877796173095703,1.0480989217758179
1783246178680389000,2.84538916015625,-0.22071897983551025,2.168785333633423,1.268514633178711
1783246178690401300,2.8554013671875,-0.18660978972911835,2.1813862323760986,1.5104278326034546
1783246178700413200,2.8654130859375,-0.12043023854494095,2.098405361175537,1.7068194150924683
1783246178710424000,2.875424072265625,-0.034261539578437805,2.0357656478881836,1.776255488395691
1783246178720436200,2.885436279296875,-0.04361189901828766,2.054898738861084,1.5822043418884277
1783246178730448100,2.8954482421875,-0.24542732536792755,2.001131296157837,1.118613362312317
1783246178740460000,2.9054599609375,-0.6122620701789856,1.830014705657959,0.5226207971572876
1783246178750472200,2.91547216796875,-1.0523289442062378,1.6806836128234863,0.014994832687079906
1783246178760483300,2.9254833984375,-1.440237045288086,1.6540056467056274,-0.19508782029151917
1783246178770495200,2.9354951171875,-1.6713333129882812,1.736739158630371,-0.1934714913368225
1783246178780507400,2.94550732421875,-1.7245064973831177,1.9998313188552856,-0.23941287398338318
1783246178790519300,2.955519287109375,-1.5844261646270752,2.473641872406006,-0.43345627188682556
1783246178800531200,2.96553125,-1.198085069656372,2.891387701034546,-0.6834466457366943
1783246178810542300,2.975542236328125,-0.6385467052459717,2.9509074687957764,-0.959860622882843
1783246178820554200,2.98555419921875,-0.032655440270900726,2.5549631118774414,-1.295356035232544
1783246178830566100,2.995566162109375,0.542171835899353,1.7791697978973389,-1.6841171979904175
1783246178840578300,3.005578369140625,1.1314688920974731,0.7171714901924133,-2.010657787322998
1783246178850589200,3.015589111328125,1.6869243383407593,-0.44783440232276917,-2.1693968772888184
1783246178860601000,3.02560107421875,2.139724016189575,-1.451871395111084,-2.152162551879883
1783246178870613200,3.03561328125,2.4526286125183105,-2.0835952758789062,-1.9713735580444336
1783246178880625200,3.045625244140625,2.5001938343048096,-2.1405978202819824,-1.6511963605880737
1783246178890637000,3.055636962890625,2.140242576599121,-1.6187478303909302,-1.4036080837249756
1783246178900648200,3.065648193359375,1.4562453031539917,-0.7261242866516113,-1.4361159801483154
1783246178910660400,3.075660400390625,0.6504364013671875,0.27483758330345154,-1.787724256515503
1783246178920672300,3.08567236328125,-0.05286344885826111,1.1834713220596313,-2.345959186553955
1783246178930684400,3.095684326171875,-0.4163481295108795,1.8852945566177368,-2.8703434467315674
1783246178940696300,3.1056962890625,-0.4996344745159149,2.294278860092163,-3.157686710357666
1783246178950707200,3.115707275390625,-0.37547555565834045,2.27839994430542,-3.144949197769165
1783246178960719400,3.12571923828125,-0.153941810131073,1.8261427879333496,-2.851046562194824
1783246178970731300,3.135731201171875,0.04072514921426773,1.0032440423965454,-2.3111648559570312
1783246178980743200,3.1457431640625,0.1787666380405426,-0.02104010060429573,-1.6115007400512695
1783246178990754000,3.155754150390625,0.27679765224456787,-1.108825445175171,-0.8878189921379089
1783246179000766200,3.16576611328125,0.3587380647659302,-2.1643426418304443,-0.24995574355125427
1783246179010778000,3.175778076171875,0.43572887778282166,-3.019310235977173,0.27133506536483765
1783246179020790300,3.185790283203125,0.513001561164856,-3.5732998847961426,0.7019504308700562
1783246179030802200,3.19580224609375,0.5957346558570862,-3.83701491355896,1.0459460020065308
1783246179040813300,3.205813232421875,0.7025548815727234,-3.7494633197784424,1.3040907382965088
1783246179050825200,3.2158251953125,0.761481761932373,-3.3651578426361084,1.4641939401626587
1783246179060837400,3.22583740234375,0.7229104042053223,-2.8175506591796875,1.5567262172698975
1783246179070849300,3.235849365234375,0.6283364295959473,-2.269010066986084,1.5739201307296753
1783246179080860200,3.245860107421875,0.5281144976615906,-1.779505729675293,1.5186221599578857
1783246179090872300,3.255872314453125,0.45058560371398926,-1.3420391082763672,1.4212353229522705
1783246179100884200,3.26588427734375,0.41192954778671265,-1.0299220085144043,1.2925928831100464
1783246179110896400,3.275896484375,0.3887907564640045,-0.8933560848236084,1.141977310180664
1783246179120908300,3.285908203125,0.3471490442752838,-0.9162147641181946,0.997876763343811
1783246179130919200,3.295919189453125,0.26001593470573425,-1.0041518211364746,0.8589386940002441
1783246179140931000,3.30593115234375,0.1522625833749771,-0.9708181619644165,0.7356777191162109
1783246179150943200,3.315943115234375,0.05312354117631912,-0.8050991892814636,0.6553747057914734
1783246179160955100,3.325955078125,-0.035663582384586334,-0.6267683506011963,0.6307753920555115
1783246179170967300,3.33596728515625,-0.11726901680231094,-0.45488688349723816,0.7069315910339355
1783246179180978200,3.345978271484375,-0.21574686467647552,-0.21437866985797882,0.831606388092041
1783246179190990300,3.355990234375,-0.33411866426467896,-0.014555198140442371,0.8736403584480286
1783246179201002200,3.366002197265625,-0.5263176560401917,0.07886076718568802,0.7631791234016418
1783246179211014100,3.37601416015625,-0.6847542524337769,0.25250300765037537,0.612299919128418
1783246179221025300,3.386025390625,-0.7922996282577515,0.5737478733062744,0.44965559244155884
1783246179231037200,3.396037109375,-0.8546802401542664,0.9408997893333435,0.3546610176563263
1783246179241049300,3.40604931640625,-0.9384901523590088,1.1714879274368286,0.3887476325035095
1783246179251061200,3.416061279296875,-1.1686878204345703,1.1804111003875732,0.565879225730896
1783246179261073200,3.4260732421875,-1.4724277257919312,1.0218839645385742,0.8970859050750732
1783246179271084300,3.436084228515625,-1.703546166419983,0.9255114197731018,1.38664710521698
1783246179281096200,3.44609619140625,-1.7977501153945923,0.8040220141410828,1.9226692914962769
1783246179291108000,3.456108154296875,-1.766408920288086,0.5318808555603027,2.3595848083496094
1783246179301120300,3.466120361328125,-1.7271955013275146,0.1765211820602417,2.662337064743042
1783246179311132200,3.476132080078125,-1.8582121133804321,-0.06871399283409119,2.8385488986968994
1783246179321143000,3.48614306640625,-2.0968403816223145,0.03532852604985237,3.044680595397949
1783246179331155200,3.4961552734375,-2.341674566268921,0.15494585037231445,3.2692790031433105
1783246179341167000,3.5061669921875,-2.484846591949463,0.11462505161762238,3.455359697341919
1783246179351179000,3.516178955078125,-2.5872128009796143,-0.09091782569885254,3.6921191215515137
1783246179361190400,3.5261904296875,-2.6316471099853516,-0.5315862894058228,4.112159729003906
1783246179371201500,3.536201416015625,-2.459608554840088,-1.3982305526733398,4.467747211456299
1783246179381213400,3.54621337890625,-2.012362241744995,-2.4907472133636475,4.524381637573242
1783246179391225300,3.556225341796875,-1.3889294862747192,-3.4321863651275635,4.309957504272461
1783246179401237500,3.566237548828125,-0.7955970764160156,-3.81276798248291,3.9052674770355225
1783246179411248400,3.576248291015625,-0.3037913739681244,-3.519113779067993,3.2473652362823486
1783246179421260300,3.58626025390625,0.051746223121881485,-2.6769859790802,2.3927643299102783
1783246179431272400,3.5962724609375,0.2625855505466461,-1.6224958896636963,1.540101170539856
1783246179441284400,3.606284423828125,0.36310043931007385,-0.7450514435768127,0.7856707572937012
1783246179451295500,3.61629541015625,0.38383057713508606,-0.26837584376335144,0.11346501111984253
1783246179461307400,3.626307373046875,0.3415238857269287,-0.07976093888282776,-0.4644705057144165
1783246179471319600,3.636319580078125,0.33752012252807617,-0.07446998357772827,-0.933722972869873
1783246179481331500,3.64633154296875,0.4544792175292969,-0.15631850063800812,-1.2523763179779053
1783246179491343600,3.656343505859375,0.646501362323761,-0.2748212218284607,-1.4506720304489136
1783246179501354500,3.6663544921875,0.8825903534889221,-0.4169440269470215,-1.5678316354751587
1783246179511366400,3.676366455078125,1.1402326822280884,-0.47776487469673157,-1.5718631744384766
1783246179521378300,3.68637841796875,1.3737266063690186,-0.5117457509040833,-1.4473206996917725
1783246179531390500,3.696390380859375,1.5192524194717407,-0.6181932687759399,-1.2018498182296753
1783246179541402400,3.70640234375,1.5085835456848145,-0.7936567068099976,-0.8394681215286255
1783246179551413200,3.716413330078125,1.3529388904571533,-1.0547027587890625,-0.41255468130111694
1783246179561425400,3.72642529296875,1.1642675399780273,-1.4742555618286133,0.006642844527959824
1783246179571437300,3.736437255859375,0.9976804852485657,-1.9295403957366943,0.42169189453125
1783246179581449500,3.746449462890625,0.8558130860328674,-2.290468454360962,0.8196507096290588
1783246179591460400,3.75646044921875,0.7259838581085205,-2.5317294597625732,1.1748547554016113
1783246179601472300,3.76647216796875,0.5360144376754761,-2.602713108062744,1.5236780643463135
1783246179611484400,3.776484375,0.31971293687820435,-2.512317180633545,1.8287686109542847
1783246179621496300,3.786496337890625,0.1574297696352005,-2.3225605487823486,2.0385613441467285
1783246179631508200,3.79650830078125,0.0810621902346611,-2.0375096797943115,2.1152868270874023
1783246179641519400,3.806519287109375,0.08564043045043945,-1.7107462882995605,2.0844764709472656
1783246179651531500,3.816531494140625,0.1468881368637085,-1.4033702611923218,1.9671943187713623
1783246179661543400,3.82654345703125,0.2433164119720459,-1.1624271869659424,1.7646191120147705
1783246179671555300,3.836555419921875,0.34093984961509705,-0.9906454086303711,1.4956843852996826
1783246179681566500,3.84656640625,0.3912469446659088,-0.8842944502830505,1.224270224571228
1783246179691578400,3.856578369140625,0.3076302707195282,-0.82327800989151,1.0049936771392822
1783246179701590300,3.86659033203125,0.08861537277698517,-0.7980059385299683,0.8381999135017395
1783246179711602400,3.8766025390625,-0.23470664024353027,-0.7104349732398987,0.6610404849052429
1783246179721614300,3.8866142578125,-0.5866129994392395,-0.5485416650772095,0.40293967723846436
1783246179731625200,3.896625244140625,-0.8679355978965759,-0.26523756980895996,0.12618161737918854
1783246179741637400,3.906637451171875,-1.0258314609527588,0.14106199145317078,-0.1366758495569229
1783246179751649300,3.916649169921875,-1.106629729270935,0.6131145358085632,-0.4094887375831604
1783246179761661200,3.9266611328125,-1.1285138130187988,1.1305127143859863,-0.6894370913505554
1783246179771672600,3.936672607421875,-1.1324626207351685,1.704307198524475,-0.9356397986412048
1783246179781684500,3.9466845703125,-1.149403691291809,2.2351021766662598,-1.1259530782699585
1783246179791696400,3.9566962890625,-1.167709231376648,2.661722183227539,-1.2653157711029053
1783246179801708500,3.96670849609375,-1.2120375633239746,2.8634653091430664,-1.3715580701828003
1783246179811720400,3.976720458984375,-1.3337881565093994,2.7466766834259033,-1.3806337118148804
1783246179821731300,3.9867314453125,-1.6945481300354004,2.5248115062713623,-1.1420440673828125
1783246179831743500,3.996743408203125,-2.273820400238037,2.34136700630188,-0.5774810314178467
1783246179841755400,4.00675537109375,-2.8282809257507324,2.2287352085113525,0.1634090393781662
1783246179851767300,4.016767333984375,-3.082890748977661,2.178361177444458,0.867231011390686
1783246179861779500,4.026779541015625,-3.0223910808563232,2.089043617248535,1.3718931674957275
1783246179871790300,4.036790283203125,-2.718611001968384,2.1457080841064453,1.6483585834503174
1783246179881802200,4.04680224609375,-2.353992223739624,2.4527690410614014,1.7462095022201538
1783246179891814400,4.056814453125,-1.9166630506515503,2.6081702709198,1.7494268417358398
1783246179901826300,4.066826416015625,-1.2660181522369385,2.4206979274749756,1.7773038148880005
1783246179911837400,4.07683740234375,-0.5189641118049622,1.8461284637451172,1.6783316135406494
1783246179921849600,4.086849609375,0.05247914418578148,1.163225769996643,1.371563196182251
1783246179931861500,4.096861572265625,0.2714638113975525,0.6732763648033142,0.9513258934020996
1783246179941873400,4.106873291015625,0.21852709352970123,0.5720719695091248,0.6309329271316528
1783246179951885600,4.116885498046875,0.06391468644142151,0.6840225458145142,0.4835965931415558
1783246179961896400,4.126896484375,-0.06179051101207733,0.7622241377830505,0.42785608768463135
1783246179971908400,4.136908447265625,-0.08448202908039093,0.7325639128684998,0.4259659945964813
1783246179981920500,4.14692041015625,-0.05421707034111023,0.5996487140655518,0.38069066405296326
1783246179991932400,4.156932373046875,-0.0447017103433609,0.43605437874794006,0.23898346722126007
1783246180001944300,4.1669443359375,-0.18756087124347687,0.3828452229499817,0.006539295427501202
1783246180011955500,4.17695556640625,-0.476315438747406,0.7251176238059998,-0.22164422273635864
1783246180021967400,4.18696728515625,-0.7721558809280396,1.4202133417129517,-0.3860270380973816
1783246180031979300,4.196979248046875,-1.0030418634414673,2.136906385421753,-0.45856016874313354
1783246180041991400,4.206991455078125,-1.02436363697052,2.6292171478271484,-0.5252931714057922
1783246180052002300,4.217002197265625,-0.7217838168144226,2.6792728900909424,-0.6299972534179688
1783246180062014500,4.227014404296875,-0.05097376927733421,2.2787888050079346,-0.7337806224822998
1783246180072026400,4.2370263671875,0.8916462659835815,1.5541727542877197,-0.7483440041542053
1783246180082038500,4.24703857421875,1.8456096649169922,0.6602004170417786,-0.6973495483398438
1783246180092050400,4.257050537109375,2.5235612392425537,-0.3922453224658966,-0.6679444909095764
1783246180102061600,4.2670615234375,2.852980613708496,-1.3929451704025269,-0.6442279815673828
1783246180112073500,4.277073486328125,2.86946439743042,-2.178166151046753,-0.5903135538101196
1783246180122085400,4.28708544921875,2.643801212310791,-2.6946685314178467,-0.5154078602790833
1783246180132097500,4.29709765625,2.3511383533477783,-2.9454312324523926,-0.4576254189014435
1783246180142108400,4.3071083984375,2.3895418643951416,-2.5906567573547363,-0.47734642028808594
1783246180152120300,4.317120361328125,2.5127620697021484,-2.1017556190490723,-0.5532255172729492
1783246180162132500,4.327132568359375,2.486651659011841,-1.5889161825180054,-0.5772017240524292
1783246180172144400,4.337144287109375,2.262702465057373,-1.2663859128952026,-0.6869553923606873
1783246180182156300,4.34715625,2.0753378868103027,-1.0570776462554932,-0.9795576930046082
1783246180192167200,4.357167236328125,1.8191449642181396,-0.7553017139434814,-1.362539529800415
1783246180202179300,4.367179443359375,1.5221604108810425,-0.35068368911743164,-1.7175055742263794
1783246180212191200,4.377191162109375,1.3262219429016113,0.010141040198504925,-1.9814256429672241
1783246180222203400,4.387203369140625,1.191085934638977,0.40447476506233215,-2.0454349517822266
1783246180232215300,4.39721533203125,1.106216311454773,0.5219577550888062,-1.959082841873169
1783246180242226400,4.407226318359375,1.1537851095199585,0.495339959859848,-1.7461333274841309
1783246180252238600,4.417238525390625,1.2029609680175781,0.742379903793335,-1.4636008739471436
1783246180262250500,4.42725048828125,1.156205415725708,1.1037225723266602,-1.3010138273239136
1783246180272262400,4.437262451171875,1.1621984243392944,1.5402004718780518,-1.2353475093841553
1783246180282273300,4.447273193359375,1.0463088750839233,1.8637471199035645,-1.1904735565185547
1783246180292285400,4.457285400390625,0.7640132904052734,2.247127056121826,-0.9427708387374878
1783246180302297300,4.46729736328125,0.40708979964256287,2.6295650005340576,-0.6953376531600952
1783246180312309500,4.4773095703125,-0.11443956941366196,2.9288711547851562,-0.772158145904541
1783246180322321400,4.4873212890625,-0.7283440232276917,3.3704302310943604,-1.0428935289382935
1783246180332332300,4.497332275390625,-1.2193912267684937,3.9447247982025146,-1.3013761043548584
1783246180342344200,4.50734423828125,-1.6033692359924316,4.54193639755249,-1.270184874534607
1783246180352356400,4.5173564453125,-1.932260513305664,3.919356107711792,-0.6710148453712463
1783246180362368300,4.5273681640625,-1.8810391426086426,4.9642205238342285,0.6589726209640503
1783246180372380400,4.53738037109375,-2.1228392124176025,5.394921779632568,1.5712766647338867
1783246180382392300,4.547392333984375,-2.3883259296417236,5.515072822570801,2.4853131771087646
1783246180392404500,4.557404541015625,-2.5422444343566895,5.572888374328613,3.6038320064544678
1783246180402416400,4.56741650390625,-2.6827070713043213,5.316258907318115,4.554400444030762
1783246180412428300,4.57742822265625,-2.785264730453491,4.907477378845215,5.033652305603027
1783246180422439700,4.587439697265625,-2.8546745777130127,4.306650638580322,5.026706695556641
1783246180432451600,4.59745166015625,-2.9828996658325195,3.479764223098755,4.573709964752197
1783246180442463500,4.60746337890625,-2.9533658027648926,2.961519956588745,3.8973641395568848
1783246180452475600,4.6174755859375,-2.658735752105713,2.838338851928711,3.2272469997406006
1783246180462487600,4.627487548828125,-2.390227794647217,2.7449469566345215,2.566277503967285
1783246180472498400,4.63749853515625,-2.4022397994995117,2.6805548667907715,2.0195255279541016
1783246180482510600,4.647510498046875,-2.6203060150146484,2.5310864448547363,1.779708743095398
1783246180492522500,4.6575224609375,-2.5952911376953125,2.5215585231781006,1.7662345170974731
1783246180502534400,4.667534423828125,-2.317511796951294,2.4749438762664795,1.6982942819595337
1783246180512545500,4.677545654296875,-2.0094900131225586,2.2205281257629395,1.4831033945083618
1783246180522557400,4.687557373046875,-1.6657389402389526,1.9093081951141357,1.0945098400115967
1783246180532569300,4.6975693359375,-1.3231759071350098,1.7418347597122192,0.5515159368515015
1783246180542581500,4.70758154296875,-1.2053145170211792,1.7602044343948364,0.007139422930777073
1783246180552593400,4.717593505859375,-1.2368603944778442,1.7528855800628662,-0.4256349802017212
1783246180562604500,4.7276044921875,-1.3076263666152954,1.6035091876983643,-0.7234299182891846
1783246180572616700,4.73761669921875,-1.3048920631408691,1.4187945127487183,-0.9253496527671814
1783246180582628600,4.747628662109375,-1.3218135833740234,1.2111760377883911,-1.0003376007080078
1783246180592640500,4.757640625,-1.3142108917236328,1.067084789276123,-0.8873372673988342
1783246180602651600,4.767651611328125,-1.218059778213501,0.9796846508979797,-0.7667272090911865
1783246180612663600,4.77766357421875,-0.8804675340652466,0.822414219379425,-0.5794209837913513
1783246180622675500,4.787675537109375,-0.4948197305202484,0.4301638901233673,-0.31185904145240784
1783246180632687600,4.7976875,-0.28687041997909546,-0.2467806488275528,0.06869345158338547
1783246180642699500,4.807699462890625,-0.21209898591041565,-0.7881994247436523,0.49762964248657227
1783246180652710400,4.81771044921875,-0.21236246824264526,-0.8838102221488953,0.8381815552711487
1783246180662722600,4.82772265625,-0.2878257930278778,-0.6078619956970215,1.036927580833435
1783246180672734500,4.837734375,-0.4437229633331299,-0.15740934014320374,1.1009670495986938
1783246180682746400,4.847746337890625,-0.7227567434310913,0.5008162260055542,1.1783143281936646
1783246180692757200,4.85775732421875,-1.0120419263839722,1.275353193283081,1.254189372062683
1783246180702769400,4.867769287109375,-0.9725469350814819,1.4750521183013916,1.2167613506317139
1783246180712781300,4.87778125,-0.6893894672393799,1.6985204219818115,1.100745439529419
1783246180722793500,4.88779345703125,-0.5411145091056824,2.050370216369629,0.8038246631622314
1783246180732805400,4.897805419921875,-0.6916294693946838,2.0766148567199707,0.44733116030693054
1783246180742816500,4.90781640625,-0.9235455393791199,1.8880754709243774,0.20864297449588776
1783246180752828700,4.91782861328125,-1.141933798789978,1.8036248683929443,0.08195015043020248
1783246180762840600,4.927840576171875,-1.3683464527130127,1.6744495630264282,0.02155284956097603
1783246180772852500,4.9378525390625,-1.5702632665634155,1.511510968208313,-0.007476602680981159
1783246180782864600,4.94786474609375,-1.6856484413146973,1.3461915254592896,-0.02485133334994316
1783246180792875500,4.95787548828125,-1.6458532810211182,1.2409157752990723,-0.041746146976947784
1783246180802887400,4.967887451171875,-1.5086591243743896,1.099196195602417,-0.07412086427211761
1783246180812899600,4.977899658203125,-1.393515706062317,0.799480140209198,-0.02379663661122322
1783246180822911500,4.987911376953125,-1.3697643280029297,0.5053417086601257,0.14506028592586517
1783246180832922400,4.99792236328125,-1.3932743072509766,0.3083226680755615,0.310131698846817
1783246180842934300,5.007934326171875,-1.399045467376709,0.18774139881134033,0.45473629236221313
1783246180852946400,5.017946533203125,-1.352925181388855,0.16300877928733826,0.630282998085022
1783246180862958300,5.027958251953125,-1.2895348072052002,0.1688847690820694,0.8166049718856812
1783246180872970500,5.037970458984375,-1.2629350423812866,0.189067542552948,0.946462094783783
1783246180882981600,5.047981689453125,-1.2561779022216797,0.16534224152565002,0.9748250246047974
1783246180892993500,5.05799365234375,-1.2546523809432983,-0.014420549385249615,0.9519087076187134
1783246180903005700,5.068005615234375,-1.3013423681259155,-0.30769744515419006,0.9521846175193787
1783246180913017600,5.078017578125,-1.3302106857299805,-0.3655853271484375,1.033262014389038
1783246180923028500,5.088028564453125,-1.2196228504180908,-0.09959493577480316,1.1379364728927612
1783246180933040400,5.098040283203125,-1.1605184078216553,0.07667404413223267,1.3733359575271606
1783246180943052500,5.108052490234375,-1.1215920448303223,-0.13818392157554626,1.87787663936615
1783246180953064400,5.118064453125,-1.1575993299484253,-0.6605013012886047,2.685702085494995
1783246180963076600,5.12807666015625,-1.4552243947982788,-1.1737017631530762,3.4560487270355225
1783246180973087500,5.13808740234375,-1.859794020652771,-1.5335558652877808,3.844625949859619
1783246180983099400,5.148099365234375,-2.1575634479522705,-1.6671451330184937,3.7327795028686523
1783246180993111300,5.158111328125,-2.321690559387207,-1.6902045011520386,3.006697654724121
1783246181003123500,5.16812353515625,-2.323960065841675,-1.680359125137329,1.7620089054107666
1783246181013134600,5.178134521484375,-2.2342448234558105,-1.6448663473129272,0.4030986428260803
1783246181023146500,5.188146484375,-2.1025609970092773,-1.5380115509033203,-0.5110728740692139
1783246181033158700,5.19815869140625,-1.973634958267212,-1.4443368911743164,-0.7029738426208496
1783246181043170600,5.208170654296875,-1.8498631715774536,-1.3972710371017456,-0.31506097316741943
1783246181053182500,5.218182373046875,-1.8095921277999878,-1.4561058282852173,0.2633620500564575
1783246181063193600,5.228193603515625,-1.738292932510376,-1.5201449394226074,0.6110776662826538
1783246181073205500,5.23820556640625,-1.5164180994033813,-1.5184370279312134,0.5799793601036072
1783246181083217400,5.248217529296875,-1.2766236066818237,-1.2492918968200684,0.29579660296440125
1783246181093229600,5.2582294921875,-1.1378405094146729,-0.7268237471580505,-0.08849303424358368
1783246181103241500,5.268241455078125,-1.1033122539520264,-0.3087325096130371,-0.4990614056587219
1783246181113252400,5.27825244140625,-1.1991026401519775,-0.26172736287117004,-0.8898018002510071
1783246181123264500,5.288264404296875,-1.5005227327346802,-0.5790166258811951,-1.2879425287246704
1783246181133276400,5.2982763671875,-1.8857338428497314,-0.937567412853241,-1.708359956741333
1783246181143288300,5.308288330078125,-2.19205379486084,-1.0023852586746216,-2.1690971851348877
1783246181153299500,5.318299560546875,-2.30818247795105,-0.6467953324317932,-2.5644493103027344
1783246181163311400,5.328311279296875,-2.267423629760742,-0.0855594351887703,-2.74863600730896
1783246181173323500,5.338323486328125,-2.103027105331421,0.3820911645889282,-2.668987274169922
1783246181183335400,5.34833544921875,-1.7319037914276123,0.719900906085968,-2.248628854751587
1783246181193346600,5.3583466796875,-1.3749960660934448,0.6505860090255737,-1.5965567827224731
1783246181203358500,5.3683583984375,-1.3730216026306152,0.060969866812229156,-0.8263338804244995
1783246181213370600,5.37837060546875,-1.5919941663742065,-0.5202029943466187,-0.07886506617069244
1783246181223382500,5.388382568359375,-1.7716352939605713,-0.8988491296768188,0.39964184165000916
1783246181233394400,5.39839453125,-1.7945677042007446,-0.9739832282066345,0.5003827214241028
1783246181243405600,5.408405517578125,-1.6654292345046997,-0.6739272475242615,0.3508113622665405
1783246181253417500,5.41841748046875,-1.483498215675354,-0.1979297697544098,0.08959955722093582
1783246181263429400,5.428429443359375,-1.335338830947876,0.13196371495723724,-0.0959244966506958
1783246181273441500,5.438441650390625,-1.2649531364440918,0.1818569302558899,-0.10703165084123611
1783246181283453400,5.448453369140625,-1.2517260313034058,0.03973866626620293,0.024970317259430885
1783246181293464300,5.45846435546875,-1.2084506750106812,-0.1752960979938507,0.1937565952539444
1783246181303476500,5.4684765625,-1.129203200340271,-0.42707186937332153,0.30556994676589966
1783246181313488400,5.47848828125,-1.0596957206726074,-0.6754277348518372,0.3548992872238159
1783246181323500300,5.488500244140625,-1.0319029092788696,-0.8330972194671631,0.38020971417427063
1783246181333511700,5.49851171875,-1.0366369485855103,-0.8345895409584045,0.3907807469367981
1783246181343523600,5.508523681640625,-1.0575801134109497,-0.7401288151741028,0.3719780147075653
1783246181353535500,5.518535400390625,-1.0723596811294556,-0.568528950214386,0.3688480257987976
1783246181363547600,5.528547607421875,-1.0443352460861206,-0.3670152425765991,0.41473111510276794
1783246181373559000,5.53855908203125,-1.019922137260437,-0.22981569170951843,0.48767486214637756
1783246181383570000,5.54856982421875,-1.0172462463378906,-0.16846737265586853,0.5670604705810547
1783246181393581800,5.558581787109375,-1.0369938611984253,-0.23405207693576813,0.6433257460594177
1783246181403593700,5.56859375,-1.1188405752182007,-0.35762330889701843,0.7107080221176147
1783246181413606000,5.57860595703125,-1.217973232269287,-0.4041286110877991,0.7319375276565552
1783246181423616800,5.58861669921875,-1.2820491790771484,-0.3516201376914978,0.7156057357788086
1783246181433628700,5.598628662109375,-1.315832257270813,-0.3213787376880646,0.6944994926452637
1783246181443640800,5.608640869140625,-1.3361018896102905,-0.3054274618625641,0.6990716457366943
1783246181453652700,5.61865283203125,-1.3431713581085205,-0.307932049036026,0.6631420254707336
1783246181463665000,5.628664794921875,-1.3662198781967163,-0.29060232639312744,0.5763258934020996
1783246181473676000,5.638676025390625,-1.4031909704208374,-0.10725434869527817,0.5755913853645325
1783246181483688000,5.64868798828125,-1.4588958024978638,0.1468905806541443,0.7187919616699219
1783246181493699800,5.658699951171875,-1.6122907400131226,0.2590008080005646,0.9728447198867798
1783246181503712000,5.6687119140625,-1.820726990699768,0.19981445372104645,1.2786741256713867
1783246181513723000,5.678722900390625,-2.0535130500793457,-0.07368919998407364,1.6128129959106445
1783246181523734800,5.68873486328125,-2.2516417503356934,-0.36539188027381897,2.019947052001953
1783246181533747000,5.698746826171875,-2.3390488624572754,-0.6338827610015869,2.335895538330078
1783246181543758800,5.7087587890625,-2.398674488067627,-0.8631942272186279,2.2617716789245605
1783246181553770800,5.718770751953125,-2.4488160610198975,-0.832250714302063,1.7757340669631958
1783246181563782000,5.728781982421875,-2.47255277633667,-0.4476226270198822,1.091488003730774
1783246181573793800,5.738793701171875,-2.3206028938293457,0.02764573134481907,0.566794753074646
1783246181583805700,5.7488056640625,-1.947163462638855,0.1962914764881134,0.3448200225830078
1783246181593817900,5.75881787109375,-1.4844677448272705,0.04383077099919319,0.4912565350532532
1783246181603829000,5.7688291015625,-0.9706448912620544,-0.21615473926067352,0.9452186822891235
1783246181613841000,5.7788408203125,-0.4343538284301758,-0.5667370557785034,1.5378673076629639
1783246181623853000,5.78885302734375,-0.015262551605701447,-1.1635849475860596,2.024214506149292
1783246181633865000,5.798864990234375,0.2223699688911438,-1.823965311050415,2.1340181827545166
1783246181643876900,5.808876953125,0.29934170842170715,-2.3129513263702393,1.7120317220687866
1783246181653888000,5.818887939453125,0.2492501139640808,-2.2669243812561035,0.8593514561653137
1783246181663900000,5.82889990234375,0.09912773221731186,-1.6524595022201538,-0.14411774277687073
1783246181673911800,5.838911865234375,-0.08365898579359055,-0.8190069198608398,-1.006615161895752
1783246181683924000,5.848924072265625,-0.27342918515205383,-0.2031298577785492,-1.6261625289916992
1783246181693935900,5.858935791015625,-0.4500875771045685,-0.06555760651826859,-1.9841455221176147
1783246181703946800,5.86894677734375,-0.6423659324645996,-0.43144211173057556,-2.1447439193725586
1783246181713959000,5.878958984375,-0.833804726600647,-0.9350923895835876,-2.123501777648926
1783246181723970800,5.888970703125,-0.9241412878036499,-1.154227614402771,-1.9399816989898682
1783246181733982700,5.898982666015625,-0.8843387365341187,-0.9957652688026428,-1.6096947193145752
1783246181743994000,5.908994140625,-0.7303845882415771,-0.6054031252861023,-1.1728646755218506
1783246181754006000,5.919006103515625,-0.5854110717773438,-0.3011702001094818,-0.6754685044288635
1783246181764018000,5.929017822265625,-0.6035173535346985,-0.2329365313053131,-0.19832535088062286
1783246181774030000,5.939030029296875,-0.7221999168395996,-0.26425275206565857,0.13892234861850739
1783246181784042000,5.9490419921875,-0.8330822587013245,-0.30157455801963806,0.2832222580909729
1783246181794052900,5.959052978515625,-0.9056097865104675,-0.3072091341018677,0.2594892382621765
1783246181804065000,5.96906494140625,-0.894360363483429,-0.1665649116039276,0.16649697721004486
1783246181814077000,5.979076904296875,-0.7944955825805664,0.028187524527311325,0.13244381546974182
1783246181824088800,5.9890888671875,-0.699340283870697,0.12245144695043564,0.18124890327453613
1783246181834100000,5.999099853515625,-0.6569892168045044,0.07300863415002823,0.2921450436115265
1783246181844112000,6.00911181640625,-0.6765490770339966,-0.03897995501756668,0.4276368319988251
1783246181854123800,6.019123779296875,-0.7329500317573547,-0.1708487719297409,0.5331435203552246
1783246181864136000,6.029135986328125,-0.822446882724762,-0.25769203901290894,0.5752142667770386
1783246181874147800,6.03914794921875,-0.9060752391815186,-0.2691650092601776,0.5305091738700867
1783246181884159000,6.049158935546875,-0.965598464012146,-0.25016680359840393,0.40802478790283203
1783246181894171000,6.0591708984375,-1.0286953449249268,-0.10679510980844498,0.20951709151268005
1783246181904182800,6.069182861328125,-1.051984190940857,0.15297281742095947,-0.007218157406896353
1783246181914195000,6.07919482421875,-1.022116780281067,0.35994648933410645,-0.16662921011447906
1783246181924205800,6.089205810546875,-0.9584687948226929,0.39569091796875,-0.22030894458293915
1783246181934218000,6.099218017578125,-0.8682406544685364,0.2694871723651886,-0.1540849208831787
1783246181944230000,6.10922998046875,-0.7921591997146606,0.03271671012043953,0.02156227082014084
1783246181954242000,6.119241943359375,-0.7577136754989624,-0.13019849359989166,0.29490652680397034
1783246181964254000,6.12925390625,-0.7401796579360962,-0.14487223327159882,0.5922748446464539
1783246181974264800,6.139264892578125,-0.7379533648490906,-0.08937766402959824,0.7957948446273804
1783246181984277000,6.149277099609375,-0.7512471079826355,0.004880924709141254,0.8916800618171692
1783246181994289000,6.159288818359375,-0.7425153255462646,0.09065047651529312,0.9283589720726013
1783246182004300800,6.16930078125,-0.7173953652381897,0.13112600147724152,0.9249160885810852
1783246182014311700,6.179311767578125,-0.6776219010353088,0.011799550615251064,0.9552391171455383
1783246182024323800,6.18932373046875,-0.6186448335647583,-0.2263917177915573,1.0715787410736084
1783246182034335700,6.199335693359375,-0.599772036075592,-0.4867931306362152,1.3335278034210205
1783246182044348000,6.209347900390625,-0.5373448729515076,-0.9763839244842529,1.253447413444519
1783246182054359800,6.21935986328125,-0.4741019010543823,-1.2054725885391235,1.0286030769348145
1783246182064371000,6.229370849609375,-0.41330060362815857,-0.9644877314567566,0.8098642826080322
1783246182074382800,6.2393828125,-0.38943782448768616,-0.4287078380584717,0.7017786502838135
1783246182084395000,6.24939501953125,-0.4568759799003601,-0.025564920157194138,0.5950543284416199
1783246182094407000,6.259406982421875,-0.5562033653259277,0.10200364142656326,0.45398369431495667
1783246182104417800,6.269417724609375,-0.6330539584159851,-0.015816204249858856,0.3738286793231964
1783246182114430000,6.279429931640625,-0.586234450340271,-0.29604750871658325,0.42816007137298584
1783246182124441900,6.28944189453125,-0.4165327548980713,-0.7631904482841492,0.4242372214794159
