time,seconds_elapsed,z,y,x
1783246147750003700,0.070003662109375,-16.560291901284454,-5.392914105060696,-2.157771323606372
1783246147760016000,0.080015869140625,-18.02746405622959,-2.591502347844839,-1.3740961041018367
1783246147770027800,0.09002783203125,-14.438665657770633,0.07679536264985799,0.1684934031382203
1783246147780039000,0.100038818359375,-7.670870143449306,1.587543332210183,0.6794442990489303
1783246147790051000,0.110051025390625,-0.35342005468308924,2.630010357676446,-0.45081192289888855
1783246147800063000,0.12006298828125,4.350923172673583,3.0051588445648547,-5.175660178145766
1783246147810075000,0.130074951171875,4.527148339107632,1.6457926920831203,-9.878889891302585
1783246147820087000,0.140087158203125,3.3780320799976584,1.1320265926212072,-9.469018466079234
1783246147830098000,0.150097900390625,2.1137673467069864,3.093606651085615,-6.346051864996552
1783246147840109800,0.16010986328125,0.6813292360126971,6.112094640561938,-2.6824802573651074
1783246147850122000,0.1701220703125,-1.1039613586097956,7.750379148972034,1.6544626130118965
1783246147860134000,0.1801337890625,-3.529837090924382,8.666192848163842,4.9623026741474865
1783246147870144800,0.190144775390625,-5.608582224088907,8.516227912145853,5.316090393099189
1783246147880157000,0.200156982421875,-6.281693082332611,6.65505059415102,4.367863493819534
1783246147890168800,0.2101689453125,-4.948335523593426,4.529354909241199,3.030882776147127
1783246147900180700,0.2201806640625,-1.673479155910015,2.39483104410097,1.8800149971947073
1783246147910193000,0.23019287109375,2.2691449554234744,-0.11891639361316338,1.4829536614447831
1783246147920204000,0.2402041015625,5.412308541360497,-1.802449819216132,1.6963360076233744
1783246147930216000,0.2502158203125,6.969988065704703,-2.094468479736149,2.5660648319885135
1783246147940228000,0.26022802734375,7.350244104865193,-1.7058835881695151,3.575615091758966
1783246147950240000,0.270239990234375,6.813311064827442,-1.3057619880661369,4.732614797595143
1783246147960252000,0.280251953125,5.917393321716785,-0.7781693886298686,5.42194438471198
1783246147970263000,0.290262939453125,5.493453623652458,-0.1785245294176042,5.4226458109796045
1783246147980275000,0.30027490234375,5.947856264519691,0.006875877118855714,5.366154692950844
1783246147990286800,0.310286865234375,6.883245017275214,-0.30287030940204857,4.918970312899351
1783246148000299000,0.320299072265625,7.2817726261854165,-0.8029191414177417,3.86632530002892
1783246148010311000,0.330310791015625,7.607005866304039,-1.2019048693589864,2.590498723760247
1783246148020321800,0.34032177734375,7.811933395609259,-1.9315863406084477,1.3915671711236237
1783246148030334000,0.350333984375,7.65681882174313,-1.9148828969582914,1.2321414560601114
1783246148040345900,0.360345947265625,7.9221373991250985,-2.032638338766992,1.6900737323582171
1783246148050357800,0.370357666015625,7.8451015057176345,-2.3034289178192613,2.1200638165026904
1783246148060370000,0.380369873046875,7.3993199782013885,-2.3126772231578827,2.839656732197106
1783246148070380800,0.390380859375,6.708243839678168,-2.380907586558163,3.0667136757239697
1783246148080393000,0.40039306640625,4.283827074000239,-2.622438753378391,2.7390061544463036
1783246148090404900,0.41040478515625,0.41450434572100636,-2.3609791895121335,1.71602942686975
1783246148100417000,0.4204169921875,-1.9700550413429736,-2.1080226655751466,-1.1782453229606151
1783246148110429000,0.430428955078125,-2.475501056227088,-3.883682093021273,-4.428613730597496
1783246148120440000,0.440440185546875,-0.7951800715982914,-6.208466518080234,-5.648900790473818
1783246148130452000,0.450451904296875,1.6462299144566057,-6.774330469048023,-4.8587528678238385
1783246148140463900,0.4604638671875,1.7121692443102596,-5.687462284058332,-2.033991214680672
1783246148150476000,0.47047607421875,1.4237415940195322,-4.231604719331861,-0.8509995739758014
1783246148160488000,0.480488037109375,-2.514516723319888,-4.30363973571211,-2.5872373838767406
1783246148170498800,0.490498779296875,-8.073901493519545,-5.5716696667551995,-4.414267225337028
1783246148180511000,0.500510986328125,-10.32456211322546,-5.5119905663400885,-7.304644967728853
1783246148190523000,0.51052294921875,-12.495638908606766,-4.479463043347001,-9.519302546161413
1783246148200534800,0.52053466796875,-12.994202178239822,-2.252346965357661,-9.838013106513023
1783246148210547000,0.530546875,-11.42409221138954,-0.026945874592661855,-8.729712841916085
1783246148220557800,0.540557861328125,-9.532316341513395,1.2389789008647203,-8.141095791870356
1783246148230569700,0.55056982421875,-7.361445297837257,2.039931856776029,-7.218194180244207
1783246148240582000,0.560581787109375,-4.5714007378101345,3.7569378735929724,-5.019640179872512
1783246148250593800,0.57059375,-2.4913415994375945,5.53942217862308,-2.8611338199898597
1783246148260605000,0.58060498046875,-1.1479232499331236,7.131668573957681,-1.508963131970167
1783246148270617000,0.5906171875,-2.482237086483836,8.732962199100852,-1.5239651785299182
1783246148280629000,0.60062890625,-6.037589726936817,9.682321025019883,-2.4113167533472177
1783246148290641000,0.610640869140625,-7.785207885769009,9.37120866471231,-3.1315321848541497
1783246148300653000,0.620653076171875,-6.6891486785858865,7.021593749779463,-3.88188848760277
1783246148310664000,0.630663818359375,-4.082552221983671,6.848937674003839,-4.02112014042139
1783246148320675800,0.64067578125,0.034896541336178775,8.941205136564374,-3.683885204602778
1783246148330688000,0.65068798828125,3.2259131808161734,10.308368518793582,-3.182756176134944
1783246148340700700,0.66070068359375,4.076683622211218,12.137415837556123,-2.0335531155243514
1783246148350712600,0.670712646484375,3.502048335766792,13.913890088516473,-0.9050009210154414
1783246148360723500,0.680723388671875,2.4858769042909143,14.973995354264973,-1.0530044938325882
1783246148370735600,0.690735595703125,-0.6266162335723638,14.89658595137,-2.7943527786150573
1783246148380747500,0.70074755859375,-3.866401872396469,14.102476723873615,-4.316937900963425
1783246148390759400,0.710759521484375,-5.100878785666823,12.899531843942404,-4.765832007542253
1783246148400771600,0.720771484375,-6.357718337392806,10.390802471852302,-4.78551227504611
1783246148410782500,0.730782470703125,-8.361564589178561,6.686266401147842,-4.33485115879476
1783246148420794400,0.74079443359375,-9.539771918216347,3.0409523347407577,-2.4408985294014216
1783246148430806500,0.750806640625,-8.805783689683675,0.04706511803567409,0.1581476579517126
1783246148440818400,0.760818359375,-6.436774922972917,-3.107587245643139,1.896455259864032
1783246148450830300,0.770830322265625,-3.515841883319616,-6.047572776290774,2.569410635285079
1783246148460841700,0.780841796875,-1.6585463751941918,-8.381027999061345,2.024867120243609
1783246148470853600,0.790853515625,-1.508798881319165,-9.17320245910287,1.3463044263347983
1783246148480865500,0.800865478515625,-1.0331506233274936,-6.205439863735437,4.005006917749345
1783246148490877700,0.810877685546875,0.17049597513228654,-4.799156769517063,5.040882289865612
1783246148500889600,0.8208896484375,-2.5842238812744616,-8.623204770308732,2.61582985663265
1783246148510900500,0.830900390625,-4.780436871477962,-9.66127005368471,1.6399293530076742
1783246148520912600,0.84091259765625,-5.273390484535694,-8.343131106865405,0.27313538861274717
1783246148530924500,0.850924560546875,-4.3654368511945005,-6.972754607808589,-0.7242465867191553
1783246148540936400,0.8609365234375,-2.8349577607259153,-7.152600887349248,-0.8837892061606049
1783246148550947600,0.870947509765625,0.18598872781842946,-7.909299544861912,0.11106178938895463
1783246148560959500,0.88095947265625,3.1016496722877025,-8.747842372846604,0.7085422371089458
1783246148570971400,0.890971435546875,4.224846477243304,-9.443417576354742,0.4483949248850345
1783246148580983600,0.900983642578125,2.899744997934997,-9.27116657424867,0.4358756350517273
1783246148590995500,0.910995361328125,0.16586510046124459,-8.663750715708732,0.7970604785174131
1783246148601007400,0.92100732421875,-2.795334483128786,-7.227514966297149,1.396587337373197
1783246148611018800,0.931018798828125,-4.422876648250222,-6.456908779463172,2.185298212957382
1783246148621030700,0.94103076171875,-5.191287370866537,-6.768316907846927,3.4461768109411
1783246148631042600,0.95104248046875,-4.418966489069163,-7.034451477786898,4.53468750244081
1783246148641054700,0.9610546875,-1.559085299488902,-7.985585496684909,4.076652934812009
1783246148651065600,0.971065673828125,0.878494314622879,-9.110660954993962,2.9237630023822185
1783246148661077500,0.981077392578125,1.7133189988672732,-9.796180628433824,1.883659783437848
1783246148671089700,0.991089599609375,0.9788923789173364,-9.7103973649472,0.7967462980017066
1783246148681101600,1.0011015625,-0.8674766615241766,-9.036651131409407,-0.08544891696572303
1783246148691113500,1.011113525390625,-2.950638442087173,-7.7450816270858045,-0.0914367592036724
1783246148701124600,1.02112451171875,-4.044293510738015,-5.48746402784884,1.009104269568622
1783246148711136500,1.031136474609375,-4.7305736471563575,-6.280517024290561,1.7644181947246194
1783246148721148400,1.0411484375,-1.3271984515875577,-5.136777782043814,3.082429715771973
1783246148731160600,1.05116064453125,1.16145084002614,-5.6180491406142705,2.1190885417297483
1783246148741172500,1.06117236328125,2.173224913325906,-6.1614616057991975,0.8115244726777077
1783246148751183600,1.07118359375,2.4233839154988526,-4.7623418273389335,0.008906652294099331
1783246148761195800,1.08119580078125,0.7498322788745164,-2.3123960681289435,-0.7397671041950583
1783246148771207700,1.091207763671875,-4.136178013709188,1.2217922037422657,-1.5291808673515914
1783246148781219600,1.101219482421875,-9.162583449932932,5.412393297034502,-1.725143584434688
1783246148791231700,1.111231689453125,-12.072189039885997,8.584551506787538,-2.2866604461088773
1783246148801242600,1.12124267578125,-11.22452240972519,11.385160715448857,-3.5831434414371848
1783246148811254500,1.131254638671875,-7.718787494400143,13.872640378761291,-4.081492191536724
1783246148821266700,1.1412666015625,-3.9368887825518843,15.142060595118998,-4.249308426065743
1783246148831278600,1.151278564453125,0.2561117730975151,15.814922447037697,-4.764333001156151
1783246148841289500,1.16128955078125,2.8263205730229615,16.5239545134902,-5.08400714584291
1783246148851301600,1.171301513671875,2.4135166014790532,16.962966693001984,-4.816796178843081
1783246148861313500,1.1813134765625,-0.8008791600227355,15.220819074535369,-3.7277488962486385
1783246148871325400,1.191325439453125,-4.65751717877388,13.43197867847681,-3.057365417142212
1783246148881337600,1.201337646484375,-6.9133911492139095,14.594218623054026,-3.8259541266739365
1783246148891348500,1.211348388671875,-6.585185030764341,16.29218573901057,-5.284414567375183
1783246148901360400,1.2213603515625,-5.177738737985491,16.34938822017908,-6.508714370024204
1783246148911372500,1.23137255859375,-4.631767235967517,15.286004955673217,-7.14052992580533
1783246148921384400,1.241384521484375,-5.036298469206691,13.78254568181634,-7.389077401128411
1783246148931396600,1.251396728515625,-5.52519316226244,11.550958011370897,-7.113413955342769
1783246148941407700,1.26140771484375,-5.574975722563266,8.55847364720106,-6.208299344819784
1783246148951419600,1.271419677734375,-5.616162888476253,5.163300462788343,-5.6534477862536905
1783246148961431600,1.281431640625,-6.289623875331879,1.4668945070475339,-5.217519544231891
1783246148971443700,1.291443603515625,-7.271670334365964,-2.1491355972081423,-4.442718243795633
1783246148981455600,1.30145556640625,-7.851510788238048,-5.029630243489146,-4.340935739405453
1783246148991466500,1.311466552734375,-7.8344263824462885,-7.1555176515787835,-5.881047166094183
1783246149001478700,1.321478759765625,-5.623546568986773,-9.836001182168722,-7.947745303112268
1783246149011490600,1.331490478515625,-1.8536808247596024,-12.36500761861205,-7.221100423079728
1783246149021502500,1.34150244140625,1.3443114989519118,-13.583727575302124,-4.469703281354904
1783246149031514600,1.3515146484375,4.044273636993766,-13.05360596884489,-2.2297253837049005
1783246149041525500,1.361525390625,6.538657088345289,-12.025142042028904,-0.35751200017184015
1783246149051537400,1.371537353515625,8.291375785186887,-10.764842705237864,1.7682611338883638
1783246149061549600,1.381549560546875,9.125271664148569,-9.525198618462682,3.594511515408754
1783246149071561500,1.3915615234375,9.292612097859383,-8.267139169552921,4.85519751342982
1783246149081573400,1.401573486328125,8.69117063755393,-7.177092354527115,5.720147579085826
1783246149091584500,1.41158447265625,7.617068995156884,-6.669491791957617,6.311189225929975
1783246149101596700,1.4215966796875,5.948890283742546,-6.771137810486555,6.417241370463371
1783246149111608600,1.431608642578125,4.029865464673936,-6.8304287883669135,6.249607506763935
1783246149121620700,1.441620849609375,2.5051123506367206,-6.355444547241926,6.201476220801473
1783246149131631600,1.451631591796875,1.3014417867794632,-5.463984952583909,6.498375346839428
1783246149141643500,1.4616435546875,0.5751689549297094,-5.213135045537352,6.951582055920362
1783246149151655700,1.47165576171875,-0.16735972293317317,-5.821134841445088,7.330013217741251
1783246149161667600,1.48166748046875,-0.5723585736840963,-6.4926639834553,7.292955698978901
1783246149171679500,1.491679443359375,-0.7451362300127744,-6.844845436254143,6.908855843871831
1783246149181690400,1.5016904296875,-0.7907721920281648,-7.159548514530062,6.400484296929836
1783246149191702500,1.51170263671875,-0.6482622481912375,-7.4222683075904845,5.8986699165463445
1783246149201714400,1.52171435546875,-0.4099813153386116,-7.4716709286630145,5.576288558727502
1783246149211726600,1.5317265625,-0.06032441258132457,-7.505508900856971,5.136825128316879
1783246149221738500,1.541738525390625,0.3656552668780088,-7.758919013780355,4.54431048631072
1783246149231749600,1.55174951171875,1.0434563287645577,-7.975550424882769,4.077082850661873
1783246149241761500,1.561761474609375,1.8408669358938932,-8.000460994255542,3.741187054492533
1783246149251773700,1.571773681640625,2.477028411924839,-7.986168265008926,3.2532243815898894
1783246149261785600,1.58178564453125,2.4141414553791285,-8.17709766409993,2.5138249416634437
1783246149271797800,1.5917978515625,1.2528548660039902,-8.424626902291179,1.3103925704762338
1783246149281808600,1.60180859375,-0.30208208163380623,-8.415146541762352,-0.04166588934063911
1783246149291820500,1.611820556640625,-1.1946212882220744,-7.65681940626502,-1.3166150982528924
1783246149301832700,1.621832763671875,-2.172422364771366,-6.588509206750989,-1.5351903368994593
1783246149311844600,1.6318447265625,-3.3578082071363924,-5.722623029288649,-1.1632540900558233
1783246149321856500,1.6418564453125,-3.0618741267383096,-3.587415419667959,-1.5958476346969603
1783246149331867400,1.651867431640625,-1.8874825565963982,-0.8561638248711824,-2.459154024799168
1783246149341879600,1.661879638671875,-0.8389139993846416,1.4266057512789965,-3.272578485879302
1783246149351891700,1.6718916015625,1.6001351027578115,4.904579383975267,-4.849896776673197
1783246149361903600,1.681903564453125,2.2699457504123446,7.356987733906507,-5.041897604387998
1783246149371914800,1.691914794921875,2.591483058622479,8.532847038513422,-4.438553525331616
1783246149381926700,1.7019267578125,0.8214695281088352,10.194583149659634,-3.8772681343257425
1783246149391938600,1.7119384765625,-2.0001900673657653,13.143605973243712,-3.5042838397338985
1783246149401950700,1.72195068359375,-3.9699212835818525,17.22325078334808,-3.957508961254358
1783246149411962600,1.731962646484375,-4.325859458565712,21.2697602165699,-5.089049816185236
1783246149421973800,1.741973876953125,-3.060553107267618,24.267412923288344,-7.026934526285529
1783246149431985700,1.751985595703125,-2.184172423797846,26.386858900153637,-9.141957426011562
1783246149441997600,1.76199755859375,-3.110322223564982,27.82909418224096,-10.539642787754534
1783246149452009700,1.772009765625,-6.300511764571071,28.149271892535683,-10.967227564322949
1783246149462021600,1.782021728515625,-10.859455756390094,27.123241914868352,-10.145195726156235
1783246149472032500,1.792032470703125,-13.75579796014428,24.838217253267764,-8.813582380735873
1783246149482044700,1.802044677734375,-13.753874883127212,21.47506067084074,-6.685106709718704
1783246149492056600,1.812056640625,-11.371429127216338,18.03282061482668,-3.356266822913289
1783246149502068700,1.82206884765625,-7.586654567670822,14.378139585137367,-0.11041735400557517
1783246149512080600,1.83208056640625,-3.6380361843585964,10.404005652296542,2.025737765598297
1783246149522091500,1.842091552734375,-1.6736738016992807,6.716703624987602,2.3922978723615405
1783246149532103400,1.852103515625,-2.3997768299400803,2.9349235710829493,2.5511907957226034
1783246149542115600,1.862115478515625,-3.318848654145002,-1.2560060235112904,2.9882734684765335
1783246149552127500,1.87212744140625,-3.410411085554957,-5.099017083448171,3.024623715752363
1783246149562138600,1.882138671875,-2.3456869278341532,-7.551224942371249,2.4311112948805094
1783246149572150800,1.89215087890625,-0.279987738725543,-8.523688165023922,1.5185639040082692
1783246149582162700,1.90216259765625,1.3759282879650592,-9.252709711059927,1.2383517088770866
1783246149592174600,1.912174560546875,2.9629999110102654,-10.125525395524502,1.7241800000995398
1783246149602186800,1.922186767578125,4.039800290971995,-11.030721839112042,2.455116439846158
1783246149612197600,1.93219775390625,4.64030417816639,-10.969196234047413,3.7178105628192424
1783246149622209500,1.94220947265625,4.746718141749501,-10.094725768113136,5.574467773041129
1783246149632221700,1.9522216796875,4.327270494407415,-9.19791078390181,7.31632546865046
1783246149642233600,1.962233642578125,4.49897321498096,-7.952405696138739,8.691474588936567
1783246149652245800,1.972245849609375,5.850214220935106,-6.885451002886891,9.304809316131472
1783246149662256600,1.982256591796875,7.632608509594202,-6.218207575371861,9.494050031483173
1783246149672268500,1.9922685546875,9.426378763270378,-5.780526352202892,9.41809316548407
1783246149682280400,2.002280517578125,10.201386984455585,-6.008939971035718,9.252474733260273
1783246149692292600,2.012292724609375,9.873684139353037,-6.621655105027556,9.060807667544484
1783246149702304500,2.022304443359375,8.566054896110296,-7.021212056985497,8.502232120019197
1783246149712315600,2.032315673828125,6.631782531288266,-7.202424948704242,7.800678426623344
1783246149722327800,2.042327880859375,4.569416285994649,-7.204680618676543,6.95412180353105
1783246149732339700,2.052339599609375,2.346713056011498,-7.347330263245105,5.937253621962666
1783246149742351600,2.0623515625,0.2730620311155915,-7.633628500291705,4.960977563023567
1783246149752362800,2.07236279296875,-1.535392581473291,-7.594447998026013,3.9668180568695064
1783246149762374700,2.082374755859375,-2.5595374760463834,-7.407727156540751,3.1730349925875663
1783246149772386600,2.092386474609375,-2.6397540453165766,-7.388537302902341,2.878351204511523
1783246149782398700,2.102398681640625,-2.0415210256636143,-7.533599269309639,2.906217701080441
1783246149792410600,2.11241064453125,-1.399163033080101,-7.408100666028261,2.975671176534891
1783246149802421500,2.12242138671875,-1.2513769024059176,-7.247927055206895,2.8362533534944054
1783246149812433700,2.13243359375,-1.975283881907165,-6.82815967439115,2.7334073115259407
1783246149822445600,2.142445556640625,-3.230742500668764,-6.206946176645159,2.935907905945182
1783246149832457500,2.15245751953125,-4.068274690306186,-5.595044112601876,2.6574668121397496
1783246149842469600,2.1624697265625,-4.512562764394283,-5.576511846089363,1.992663763514161
1783246149852480800,2.172480712890625,-3.053081748473644,-5.39083729878664,1.4501216514229773
1783246149862492700,2.18249267578125,-0.6886264072835445,-4.498664002901315,0.8961059591591357
1783246149872504800,2.1925048828125,1.0974638132840395,-3.9135412247121333,0.6327905382931233
1783246149882516700,2.202516845703125,2.625352594998479,-2.652424726319313,-0.09720832834243774
1783246149892528600,2.212528564453125,2.096268514895439,-1.932056442338228,-1.550567646512389
1783246149902539800,2.222539794921875,0.9843938989430665,-0.315506795874238,-4.682860294345021
1783246149912551700,2.2325517578125,-1.712646214172244,2.8618296932995317,-8.378542027464508
1783246149922563600,2.2425634765625,-4.554745371085405,4.632741049435735,-10.695551142346858
1783246149932575700,2.25257568359375,-4.247415451925993,8.635987094992398,-12.879079423022269
1783246149942587600,2.262587646484375,-3.846656722962856,13.25761813687086,-12.878193287837504
1783246149952598500,2.2725986328125,-2.954029838091135,16.306123078948257,-11.394976007020473
1783246149962610700,2.282610595703125,-2.0581027426302434,19.620052396869657,-9.769184484958648
1783246149972622600,2.29262255859375,-3.127679601079225,19.928165575361252,-7.611562214434146
1783246149982634500,2.302634521484375,-2.0854244647979736,20.491801328885554,-6.491304385539889
1783246149992645600,2.312645751953125,-1.1183733303219079,19.396318460285663,-4.5241731226891275
1783246150002657500,2.322657470703125,-1.2408552161306141,16.620606376993656,-4.128194613739848
1783246150012669400,2.33266943359375,-1.7633061418294906,15.64532926596403,-5.495255120116472
1783246150022681600,2.342681640625,-3.4086078355252742,15.741517019087075,-6.717895465120673
1783246150032693500,2.352693603515625,-6.57888330027163,16.27059116231799,-6.914798093402386
1783246150042704600,2.36270458984375,-10.378639740371703,15.689728379660844,-5.676000394323468
1783246150052716800,2.372716796875,-12.99842125723958,13.701515750336647,-4.265568948253989
1783246150062728700,2.382728759765625,-13.679360032629965,11.739030267465115,-2.981132364550233
1783246150072740600,2.39274072265625,-11.942049917322397,9.57160322676301,-1.182255143123865
1783246150082752800,2.402752685546875,-8.173477135515213,7.25821113333404,1.218447569489479
1783246150092763600,2.412763671875,-4.846546881723404,5.514211749520897,4.719244443890452
1783246150102775600,2.422775634765625,-2.6701819168061016,3.7504999494999645,8.126414355567098
1783246150112787700,2.43278759765625,-2.2092238629460335,1.178456335362792,10.63618709923029
1783246150122799600,2.442799560546875,-1.6620348018318414,-2.010627290228009,12.1073959623456
1783246150132811500,2.4528115234375,-0.6563508621007204,-4.834478258267045,11.771315749520063
1783246150142822700,2.46282275390625,0.3757254099935293,-7.1227727353185415,10.85879057047963
1783246150152834600,2.47283447265625,1.7686399040728806,-9.023877574554085,10.275293932187557
1783246150162846500,2.482846435546875,3.025523294940591,-9.877969853848219,9.967309348511696
1783246150172858600,2.492858642578125,4.154461273896694,-9.896229148638248,9.108665981784462
1783246150182869800,2.502869873046875,4.920784668844938,-9.798166833814978,8.258555465602875
1783246150192881700,2.512881591796875,5.211093895098567,-9.557277764290571,7.982092393872142
1783246150202893800,2.522893798828125,5.142049584966897,-8.90309138674736,8.036948019653558
1783246150212905700,2.53290576171875,4.6722687577039,-8.181562242293356,8.003091927281021
1783246150222917600,2.542917724609375,4.300097825321555,-7.587222138425707,7.376029703506827
1783246150232928800,2.5529287109375,4.180247457060218,-7.1282345078557725,6.574422229209542
1783246150242940700,2.562940673828125,3.9419928276926277,-6.643668199393153,5.771220763719081
1783246150252952600,2.57295263671875,3.4064547491446135,-6.29096359950304,4.932980133551359
1783246150262964700,2.58296484375,2.8366446908995506,-6.129041099187732,3.912644568133354
1783246150272976600,2.5929765625,2.507976507896185,-6.078019352480768,2.7963685023516414
1783246150282987500,2.602987548828125,2.3504864370703697,-6.280102598270774,1.7426228347629307
1783246150292999700,2.612999755859375,2.081315275913477,-6.4125160955071445,1.019007531684637
1783246150303011600,2.623011474609375,1.657180932059884,-6.213370656734704,0.7780424743145704
1783246150313023500,2.6330234375,1.1604138981938361,-5.806846203851699,0.8239835567563771
1783246150323035600,2.64303564453125,0.5412941578567028,-5.505802233093977,0.9072095369756221
1783246150333046800,2.653046875,-0.36473464490175245,-5.4273383527100085,0.9909148251444101
1783246150343058000,2.663057861328125,-1.1312217059791088,-5.413732436683774,1.2715244951605795
1783246150353069800,2.67306982421875,-1.3257216570332646,-5.078210442262888,1.9104624501675367
1783246150363082000,2.68308203125,-1.2072066290289163,-4.439184224450588,2.544655256474018
1783246150373092900,2.6930927734375,-0.7843865826442837,-4.023146093291044,2.8881249950289725
1783246150383104800,2.703104736328125,-0.5498644178032874,-3.910296543702483,3.1951556389808653
1783246150393117000,2.713116943359375,-0.4177627629950642,-3.8044735317498444,3.1761230217307803
1783246150403128800,2.72312890625,0.1792138268560171,-3.5354590224593876,2.487578447511792
1783246150413141000,2.73314111328125,0.6647106941670179,-3.0736183405458926,1.7589421014010904
1783246150423151900,2.74315185546875,0.779203042526543,-2.65811855404675,0.8543693426698445
1783246150433163800,2.753163818359375,0.8499374977022409,-2.1091163060307503,0.005948094749450683
1783246150443175700,2.76317578125,0.9565385082900524,-1.0263286683529615,-0.8336492107242345
1783246150453187800,2.773187744140625,0.6678589290648699,0.7098767005831003,-2.6347937925606963
1783246150463199700,2.78319970703125,-0.20535364576280116,3.329768692088127,-4.584424470034241
1783246150473211000,2.7932109375,-1.5053046094626188,6.771869631892442,-5.796496074751019
1783246150483223000,2.80322314453125,-2.3200591501027343,10.024772526443003,-7.2035028070688245
1783246150493235000,2.81323486328125,-2.186585330158472,12.907454453635214,-7.929433401352167
1783246150503246800,2.823246826171875,-2.137138285422325,15.066764823377131,-7.163449613621831
1783246150513258000,2.833258056640625,-2.311926112529635,16.38620608496666,-4.805614567354321
1783246150523270000,2.843269775390625,-1.620651236563921,16.827980714929105,-2.054689719316363
1783246150533281800,2.85328173828125,-0.09866320332586764,17.283168953216077,-0.1761474250227213
1783246150543294000,2.8632939453125,2.4150001180350777,16.645357371890544,1.4153046050637959
1783246150553305900,2.873305908203125,3.1190438746809956,14.549308637225627,1.44463357540071
1783246150563316700,2.883316650390625,2.342873039457202,13.73975984853506,-0.311545491027832
1783246150573329000,2.893328857421875,-0.17840484856069086,15.292260508936643,-2.095336202481389
1783246150583340800,2.9033408203125,-4.46818118635416,17.360886983668802,-3.2700241252213713
1783246150593352700,2.913352783203125,-9.381608478173613,18.170725695216653,-3.553979598534107
1783246150603364900,2.92336474609375,-13.236174366825818,17.421598934262988,-3.2222558273524045
1783246150613376000,2.9333759765625,-15.239247880673407,15.949802042126654,-2.7136685918331143
1783246150623388000,2.943387939453125,-15.30323198480606,14.144101696681975,-1.7133815427094696
1783246150633400000,2.953400146484375,-13.441632642006873,11.5489741440773,-0.37505145625472064
1783246150643412000,2.963411865234375,-10.250990681058168,8.325956100180745,0.6486947943896055
1783246150653423900,2.973423828125,-6.84860040487349,5.172185780033469,1.3650105881094932
1783246150663435000,2.98343505859375,-4.376970637121796,1.9178402854591607,1.7882167112022638
1783246150673447000,2.993447021484375,-3.1691426613241434,-1.1141671108037232,2.4606033468246458
1783246150683458800,3.003458740234375,-2.9190257447272536,-3.314636004886031,3.5929333063066005
1783246150693471000,3.013470947265625,-2.882342319974303,-4.428646463823318,4.869032269775867
1783246150703481900,3.02348193359375,-3.0347493884474037,-5.312617164030671,6.238027543607354
1783246150713493800,3.03349365234375,-3.237325386190414,-6.603453677904605,7.1836413377791635
1783246150723506000,3.043505859375,-2.632620540174842,-7.942759331393241,7.143370702189206
1783246150733517800,3.053517822265625,-1.5269441943407058,-8.903457297450304,6.497977871954441
1783246150743529700,3.06352978515625,-0.2117880627244711,-9.532667639169096,5.7698693491101265
1783246150753541000,3.073541015625,1.0272957598194479,-9.949067589378357,5.295252772253751
1783246150763553000,3.083552978515625,1.8054367260724304,-9.841925896042584,5.141538128313422
1783246150773565000,3.09356494140625,2.175270739939809,-9.247765824916959,4.958573424491286
1783246150783577000,3.1035771484375,2.0856597348585724,-8.476682668220997,4.76826128051579
1783246150793589000,3.113589111328125,1.8326359909042715,-8.318289511075616,4.482164703521132
1783246150803600000,3.123599853515625,1.2582593553960322,-8.293165591213107,4.03986341933608
1783246150813612000,3.133612060546875,0.7970765528693795,-7.922033938750624,3.703306821170449
1783246150823624000,3.1436240234375,0.7275903441891074,-7.38234546252489,3.4592730238795277
1783246150833635800,3.1536357421875,0.8548769999310374,-6.842020441961288,3.3264772493273016
1783246150843648000,3.16364794921875,1.2094137836843728,-6.472153110346198,3.3278315865457055
1783246150853659000,3.173658935546875,1.6275754828691482,-6.209563081145286,3.3318098425269125
1783246150863670800,3.1836708984375,1.6735639115840195,-5.971238893672823,3.3171190538734194
1783246150873683000,3.193682861328125,1.134647296513617,-5.734169674697518,3.3063246881365775
1783246150883694800,3.20369482421875,0.1372422325670719,-5.600970580041408,3.320290669646859
1783246150893705700,3.213705810546875,-0.9077537268549203,-5.708655294212699,3.490091355991363
1783246150903718000,3.2237177734375,-1.8224068578347563,-6.022098143294453,3.6065012284100053
1783246150913729800,3.233729736328125,-2.4698528212070463,-6.031268707221746,3.7440842372387646
1783246150923741700,3.24374169921875,-2.3871505726009605,-5.881196219176053,3.846776549950242
1783246150933753900,3.25375390625,-1.8146306708753108,-5.945371461966634,3.8653374580353494
1783246150943765000,3.263764892578125,-1.479486569856107,-5.793801428839564,3.916244053930044
1783246150953777000,3.27377685546875,-1.2253157016932963,-5.497163584086299,3.9118174696594474
1783246150963789000,3.2837890625,-0.818107358199358,-5.326807601946592,3.713873807892203
1783246150973801000,3.293801025390625,-0.8512696230888366,-5.303934091359377,3.4299966605126855
1783246150983812900,3.303812744140625,-0.9713543846279382,-5.247453494724631,3.118677963978052
1783246150993824000,3.313823974609375,-0.9204220697700977,-4.726156415235996,2.8807991821855303
1783246151003836000,3.3238359375,-0.5731558615416288,-3.6236195364713666,2.6179525478750465
1783246151013847800,3.333847900390625,-0.2572562669575214,-2.057591870498657,1.889655808982253
1783246151023860000,3.34385986328125,-0.4563607891976833,0.8559539815127849,0.37002047635018825
1783246151033872000,3.353871826171875,-1.7987006958156824,4.763620761233568,-1.9788824909210203
1783246151043882800,3.3638828125,-3.91599037142992,8.553358496144414,-4.978121005526185
1783246151053895000,3.37389501953125,-5.620502378985285,12.619130848240852,-7.153337384930253
1783246151063906800,3.38390673828125,-5.618865133172274,16.45158836545944,-6.708718471452594
1783246151073918700,3.393918701171875,-2.677835061907768,18.289320510458946,-5.026052385002374
1783246151083929900,3.403929931640625,0.9519827446818351,17.724878116726874,-3.3060037856191395
1783246151093942000,3.41394189453125,4.4351708971559995,16.033705483216046,-2.5626293045818804
1783246151103954000,3.423953857421875,6.3592538763970134,15.066652595174311,-3.222783066096902
1783246151113966000,3.433966064453125,5.019025262844562,13.91624337364435,-4.2756069426655765
1783246151123978000,3.44397802734375,1.9582675729155539,13.71667123389244,-5.615851338309049
1783246151133988900,3.45398876953125,-0.5290449171364308,16.194878041946886,-6.7388301165997975
1783246151144001000,3.4640009765625,-3.6098604757100343,19.374436298823355,-6.756471571752429
1783246151154013000,3.474012939453125,-7.497440745213628,20.810424210953713,-6.417815955480933
1783246151164024800,3.48402490234375,-9.939486106562613,19.234443306243417,-5.191699458798766
1783246151174037000,3.494037109375,-10.662715040671825,15.299914238560198,-4.353919431880116
1783246151184047900,3.5040478515625,-9.949020827627182,11.683550956827402,-4.379532596564292
1783246151194059800,3.514059814453125,-7.693573558166623,8.750660937398672,-3.871614054086804
1783246151204072000,3.524072021484375,-4.4390854402512305,5.985683598610758,-2.857386742416024
1783246151214083800,3.534083740234375,-2.211442123517394,3.04370835545063,-1.630862249454856
1783246151224095700,3.544095703125,-1.3598831620931624,0.7091542315274476,-0.004236030134558678
1783246151234107000,3.55410693359375,-1.6536889982908962,-1.2356459570497274,2.2493951298147437
1783246151244119000,3.564119140625,-2.755924848282337,-2.6360405777513978,5.061877731621265
1783246151254131000,3.574130859375,-3.8990927203819155,-3.8862031359314915,7.52983144120872
1783246151264143000,3.58414306640625,-4.962301505103707,-4.376130679166317,9.806489841002225
1783246151274155000,3.594155029296875,-6.135923844438791,-5.239822561454773,11.589507229995727
1783246151284166000,3.604165771484375,-6.838781021648645,-6.682398035281897,11.55432836458683
1783246151294178000,3.614177978515625,-6.622072453656792,-7.350293204703926,10.133465540874004
1783246151304190000,3.62418994140625,-5.91986584931016,-7.657702618840337,8.37415694424808
1783246151314201900,3.634201904296875,-4.622187506717443,-7.724694672617316,7.015135951942205
1783246151324212700,3.644212646484375,-2.568532975667715,-7.798971038183569,6.038356619656086
1783246151334225000,3.654224853515625,-0.47575376419275994,-7.49284757220447,5.415577187767624
1783246151344237300,3.6642373046875,1.2621753597959875,-6.652975541442633,5.106375629517435
1783246151354249200,3.674249267578125,2.261483042493462,-6.018845278978348,5.076027837526798
1783246151364261400,3.684261474609375,2.664845524214208,-5.808028107112646,5.237426021707058
1783246151374272300,3.694272216796875,2.7745722656071186,-5.829072064185143,5.423544221124053
1783246151384284200,3.7042841796875,2.5330969206273553,-6.020950142303109,5.431265170764923
1783246151394296000,3.714296142578125,1.6752169394880532,-6.442406791380048,5.07231320091784
1783246151404308200,3.72430810546875,0.4070265571862459,-6.762317959693074,4.58908895471394
1783246151414320000,3.734320068359375,-0.5240794036835432,-6.958122271344065,4.173143178012967
1783246151424331300,3.744331298828125,-1.3083844455242155,-7.236415481111407,3.624100597986579
1783246151434343400,3.754343505859375,-1.896947719556093,-7.531455243018269,2.96134922119379
1783246151444355300,3.764355224609375,-2.007507696902752,-7.858273706501722,2.36102302865386
1783246151454367200,3.7743671875,-1.7227420762509107,-8.008778156223892,2.0422423256754874
1783246151464379400,3.78437939453125,-1.048472695621848,-7.5635332198023795,1.93626792255342
1783246151474390300,3.794390380859375,-0.4080412871867418,-6.882939896848797,1.9780559769690036
1783246151484402200,3.804402099609375,-0.07486234876066446,-6.32561522616744,2.043221984362602
1783246151494414300,3.814414306640625,-0.1975944099381566,-5.726515945073962,2.2968092074185606
1783246151504426200,3.82442626953125,-0.7580828053474425,-4.823802550473809,2.9203596236795186
1783246151514438100,3.834438232421875,-1.0268766576245427,-4.094804385313392,3.4609032554298635
1783246151524449300,3.84444921875,-0.5447822922334075,-3.8528251824647186,3.791726862901449
1783246151534461200,3.854461181640625,0.6467196949243545,-3.649018181622028,3.858141409051418
1783246151544473000,3.86447314453125,2.143342985281348,-3.0282892525225877,3.262132495188713
1783246151554485200,3.8744853515625,2.820293567818403,-1.8478367749065159,2.228527113831043
1783246151564497200,3.8844970703125,2.414992519250512,-0.6989601697713136,0.7335363931119442
1783246151574508300,3.89450830078125,1.278107088421285,0.9666273561060428,-0.727680652821064
1783246151584520400,3.9045205078125,-0.6148696816772222,3.762830438762903,-1.8886387408941983
1783246151594532400,3.914532470703125,-2.1495225506991145,7.691848049548268,-3.172957251176238
1783246151604544300,3.924544189453125,-2.7282868997722862,11.480786158514022,-4.057978921741247
1783246151614556400,3.934556396484375,-1.7036919233441352,13.774087650072573,-4.390612208983302
1783246151624567300,3.9445673828125,1.0229694210529328,14.406746086418627,-3.649339668661356
1783246151634579200,3.9545791015625,4.113975534251332,14.452385555565357,-2.560750066706538
1783246151644591400,3.96459130859375,6.155604696464538,15.153977827405928,-2.4433681343853473
1783246151654603300,3.974603271484375,5.82663285433948,15.993120959371327,-2.6427064653813837
1783246151664615200,3.984615234375,4.774186578911543,15.666282037621736,-2.746704015472531
1783246151674626300,3.994626220703125,3.7846108934164047,16.02633349314332,-3.1406857976466416
1783246151684638200,4.00463818359375,1.258388534733653,17.370450930827854,-3.5699610115200278
1783246151694650000,4.014650146484375,-3.1367543034166094,19.12050596141815,-4.046520539137721
1783246151704662300,4.024662353515625,-7.4710226938873525,21.20250980411768,-3.569414483553171
1783246151714674200,4.034674072265625,-10.714322478312253,21.92676749675274,-2.2018232313007116
1783246151724685300,4.044685302734375,-12.186865220379829,20.103596961069105,-0.7678548422992229
1783246151734697200,4.054697265625,-12.022738488018511,16.216538085091113,0.07778408142626285
1783246151744709400,4.06470947265625,-11.709324865031242,12.132397132611274,0.281776375707984
1783246151754721300,4.07472119140625,-11.679303820776939,8.365310789969563,-0.0007458499312400817
1783246151764732400,4.084732421875,-11.516701521503924,4.910533323943615,-0.20164543889462946
1783246151774744300,4.094744384765625,-10.799792438066005,1.8057149584919214,0.15990005457699297
1783246151784756200,4.104756103515625,-9.555065933459996,-1.0925754567205905,1.2025444824367761
1783246151794768400,4.114768310546875,-8.076543532460928,-3.89362890201807,2.3418214845776557
1783246151804780300,4.1247802734375,-6.537196952664852,-5.950846093985438,3.166570765009522
1783246151814791200,4.134791259765625,-5.3638569374024865,-7.029622742456198,3.663432491421699
1783246151824803300,4.14480322265625,-4.679071423456072,-8.46233324035108,3.994112014247477
1783246151834815200,4.154815185546875,-3.853589152574539,-10.256105247592926,4.182158843639493
1783246151844827100,4.1648271484375,-2.850615056324005,-11.373213088023661,4.078150479893386
1783246151854839300,4.17483935546875,-2.0616209798842666,-11.92354278525114,3.408412020692229
1783246151864850200,4.18485009765625,-1.9875708242893217,-12.381087815797327,2.2745213877648114
1783246151874862000,4.194862060546875,-2.5136644904047247,-12.126601013553142,0.9114403064131736
1783246151884874200,4.204874267578125,-2.8633149634212254,-11.101903745794296,-0.592967354209721
1783246151894886100,4.21488623046875,-2.8566806399732827,-9.89005192130804,-1.8676041361719369
1783246151904898000,4.22489794921875,-3.247091577923298,-8.76263720639646,-2.444524610944092
1783246151914909400,4.234909423828125,-3.3138591752946374,-7.227966217195987,-2.1924340561866758
1783246151924921300,4.24492138671875,-2.5893758572101593,-5.575995713260769,-1.5263643486261367
1783246151934933200,4.254933349609375,-1.8026017949074506,-4.524334450730681,-0.8724936129033565
1783246151944945400,4.2649453125,-0.9619745618641375,-4.007071741324663,-0.12559095773994922
1783246151954957300,4.274957275390625,-0.12062602880895137,-3.5139591383129356,0.5590431650370359
1783246151964968200,4.28496826171875,0.5840910970538854,-2.952475594386458,1.2253937353655695
1783246151974980400,4.29498046875,1.2820453046530484,-2.4238141236096618,1.7984405835747719
1783246151984992300,4.3049921875,1.7714596376687288,-1.6856395493030547,2.1632059158757326
1783246151995004200,4.315004150390625,2.276506424102187,-1.0757201835095882,2.499055242554843
1783246152005016300,4.325016357421875,2.7726041804045436,-0.9572913724839687,2.7612743926167487
1783246152015027200,4.335027099609375,3.1874832046568393,-0.8634782395377755,2.967884468181431
1783246152025039000,4.3450390625,3.6051579971075056,-0.7437862767085432,2.8801629301086065
1783246152035051300,4.35505126953125,3.9344630167096852,-0.5705906872287392,2.5321739605635405
1783246152045063200,4.365063232421875,4.061380839139223,-0.1500406316027045,2.1830825827345253
1783246152055074300,4.37507421875,4.269865768665075,0.34125235476642846,1.855781596431136
1783246152065086500,4.38508642578125,4.623923536729812,0.8447104107037187,1.6454355492085218
1783246152075098400,4.395098388671875,4.813957448285818,1.426604582235217,1.558490548466146
1783246152085110300,4.4051103515625,4.629824285206198,1.9807213967859745,1.2682552642315625
1783246152095122400,4.415122314453125,4.168596182233095,2.256888700440526,0.514976644295454
1783246152105133300,4.42513330078125,3.138480396556854,2.698566884291172,0.05879793366640806
1783246152115145200,4.435145263671875,2.3019126680374145,3.835117968599498,-0.19810119041651486
1783246152125157400,4.445157470703125,1.9583231024950742,5.437687897288799,-0.9510670911416411
1783246152135169300,4.455169189453125,2.129279388615489,6.89335958405435,-2.246856551247835
1783246152145181200,4.46518115234375,1.6913018128484487,8.365775484871865,-3.759245566013455
1783246152155192300,4.4751923828125,0.4734644842118024,9.73518284663558,-5.5201557526171205
1783246152165204200,4.485204345703125,-0.5691150617182255,9.382299383047222,-7.17232908564806
1783246152175216000,4.495216064453125,-2.5742905162811276,7.283951723790168,-7.762540126886964
1783246152185228300,4.505228271484375,-5.928452475869655,5.4612815388441085,-8.399551497745513
1783246152195239400,4.515239501953125,-9.193741389262676,4.900376671588421,-8.781347752085328
1783246152205251300,4.525251220703125,-13.23926531857848,5.537345372349024,-8.23547386522293
1783246152215263500,4.535263427734375,-17.1466012589097,6.222683259481191,-7.262271222379804
1783246152225275400,4.545275390625,-19.75123079935312,5.632478063461184,-6.558472964927554
1783246152235287300,4.555287353515625,-21.54796691709757,3.7693373364388942,-5.525892834964394
1783246152245298400,4.56529833984375,-21.512367195928096,2.1913858623079956,-4.3327199919849635
1783246152255310300,4.575310302734375,-20.714347516989708,1.333288146764785,-3.733251293057203
1783246152265322200,4.585322265625,-20.723003117132187,0.6372179993465542,-3.136387223669886
1783246152275334400,4.59533447265625,-20.525577341759202,0.35205022763460875,-2.400464227682352
1783246152285346300,4.60534619140625,-18.273241482317445,0.3815601074963808,-1.5847203837439416
1783246152295357200,4.615357177734375,-13.221945934987067,0.29312399141341444,0.10132160888016223
1783246152305369300,4.625369384765625,-6.200213653519749,-0.006171966633200645,2.252522321924567
1783246152315381200,4.63538134765625,2.0040005655646325,-0.8828887501895427,3.8067590123385187
1783246152325393200,4.64539306640625,9.36068843974173,-2.558304427120089,4.799809388206899
1783246152335404000,4.655404052734375,14.468371060204506,-4.17364060614109,4.696671962076425
1783246152345416200,4.665416259765625,15.936428181290626,-5.304794507580995,3.2062112860023975
1783246152355428400,4.675428466796875,13.925602738142013,-5.395173282164335,0.5217090212903917
1783246152365440300,4.685440185546875,10.122866989970207,-4.352250037363171,-1.517775383979082
1783246152375452200,4.6954521484375,6.007606676605343,-2.8144194150879978,-2.5027836154282093
1783246152385463600,4.705463623046875,2.5022119530200957,-1.2303262233316898,-2.81595349278748
1783246152395475500,4.715475341796875,0.5777484500288963,0.3404465913414955,-2.0731544735506175
1783246152405487400,4.7254873046875,1.0688082121640443,1.7688409796029327,-0.4531657925486564
1783246152415499500,4.73549951171875,3.9712493173152206,2.792743297591805,1.304612525770068
1783246152425511400,4.745511474609375,7.581765042063593,3.144868344028294,2.8209850572139024
1783246152435522300,4.755522216796875,10.630893668997286,3.1735376814126965,3.978783219951391
1783246152445534500,4.765534423828125,12.33546471326351,3.240029968973994,4.601953696984053
1783246152455546400,4.77554638671875,12.548157031351327,3.3941157843142746,4.728720128244161
1783246152465558300,4.785558349609375,11.72844340699911,3.529042433415353,4.392034350740909
1783246152475569400,4.7955693359375,10.67907931549549,3.4617467205166816,3.44965442392379
1783246152485581300,4.805581298828125,9.599636896592378,3.4512463692903514,2.2039546903714538
1783246152495593200,4.81559326171875,8.61865719000697,3.7219486855372783,0.8276926404073834
1783246152505605400,4.82560546875,8.255404308095574,3.918159239901602,-0.4928755793854594
1783246152515617300,4.8356171875,8.077901376810669,3.8558895384714007,-1.3206200961105525
1783246152525628400,4.84562841796875,7.544542103606462,3.929728097142279,-1.1693912776365876
1783246152535640600,4.855640625,7.3135291159302,4.368253369919955,-0.2936591212034225
1783246152545652500,4.865652587890625,7.203228081780671,4.893172439298033,0.7123679328769446
1783246152555664400,4.875664306640625,7.0039622314989565,5.46237868643105,1.3970901723287998
1783246152565675500,4.885675537109375,6.9768076825916765,5.700715733385086,1.1503718851942568
1783246152575687400,4.8956875,6.302845175954699,5.7965141949296,0.5650002468105405
1783246152585699300,4.90569921875,5.25478515278697,5.857512561249733,-0.26623386559598144
1783246152595711500,4.91571142578125,4.32660998467207,6.034383039849996,-0.9699584002248942
1783246152605723400,4.925723388671875,3.4091222147881983,6.988034010004997,-1.1500190531685948
1783246152615734300,4.935734375,2.8859073189795015,7.838709174332022,-0.7951700616609305
1783246152625746400,4.945746337890625,2.6094787340402603,6.950435808494687,-0.4344478672709316
1783246152635758300,4.95575830078125,2.3821079022586344,5.667187557792663,-0.5109126827921718
1783246152645770200,4.965770263671875,2.2683441604346037,4.565819722807407,-1.1956943242810665
1783246152655782400,4.975782470703125,1.5924591613024472,3.4042437950968742,-2.115571473519504
1783246152665793500,4.98579345703125,-0.26184359474778174,2.1658003162831068,-2.8518180023729798
1783246152675805400,4.995805419921875,-3.2866637098550795,1.0608388407200575,-3.691130061164498
1783246152685817600,5.005817626953125,-7.087597961562872,0.28195991558134553,-4.772284836943447
1783246152695829500,5.01582958984375,-10.367826085412501,-0.11614683756828308,-5.962831715333461
1783246152705840400,5.02584033203125,-11.894066515398025,-0.004594342052936554,-6.825313637310266
1783246152715852500,5.0358525390625,-10.561069022142886,-1.0082079052507877,-6.363312796398997
1783246152725864400,5.045864501953125,-8.157970354303718,-2.819271239033341,-4.800326982340216
1783246152735876400,5.05587646484375,-6.176424197131395,-4.721967731374502,-3.140075556793809
1783246152745888500,5.065888427734375,-5.975674245771765,-6.8178066226810214,-1.5039524642013014
1783246152755899400,5.0758994140625,-7.274606387817859,-8.122168388560414,0.4431676186908036
1783246152765911300,5.085911376953125,-8.367738893899322,-8.321176464688778,3.062720222173631
1783246152775923500,5.09592333984375,-9.504701189357041,-7.7027084662586445,4.779479424622655
1783246152785935400,5.105935302734375,-12.303531113386153,-6.904892200937867,4.99903695230484
1783246152795947300,5.115947265625,-14.904227990555762,-6.578147387212515,5.49451277731657
1783246152805958400,5.12595849609375,-15.199210469317435,-6.289000774997472,6.003836510416865
1783246152815970300,5.13597021484375,-13.020435520648956,-5.75837355710566,6.335623994484544
1783246152825982200,5.145982177734375,-9.583841946089267,-5.513548901697993,6.617513767439126
1783246152835994400,5.155994384765625,-6.36724312158525,-5.26485646494627,5.898009406810998
1783246152846005500,5.166005615234375,-4.623735320681333,-4.816719314214587,2.632179810670018
1783246152856017400,5.176017333984375,-4.254844725143909,-4.473601457837224,-1.7579598123654723
1783246152866029600,5.186029541015625,-3.6671903826504946,-3.7122576048672196,-4.640604622417688
1783246152876041500,5.19604150390625,-1.962644472825527,-2.2056442508935925,-5.702679142412543
1783246152886053400,5.206053466796875,0.3898690861582756,-0.9867881006032228,-5.690455620655417
1783246152896064300,5.216064208984375,2.5050977375894785,-0.4235889849305153,-5.484395872449874
1783246152906076400,5.226076416015625,3.5963270403981205,-0.41312896571457386,-5.050405320492387
1783246152916088300,5.23608837890625,4.319557143551111,-0.7050052951544523,-4.327682582339644
1783246152926100500,5.2461005859375,4.861291446390748,-0.1529582726150751,-3.4580113333806395
1783246152936111400,5.256111328125,4.815826749289036,1.3433961376726626,-2.3692886065654455
1783246152946123300,5.266123291015625,4.402722918015718,3.0560780076801777,-1.1669977335635573
1783246152956135400,5.276135498046875,3.991774218949675,4.772594341284036,0.087603537716344
1783246152966147300,5.286147216796875,3.559145602995157,6.098818394881486,1.2786340349048375
1783246152976159200,5.2961591796875,2.660606279209256,6.584952391052246,1.8534426320895552
1783246152986170400,5.30617041015625,2.0650772578179835,6.776151254734397,1.8840242328360675
1783246152996182500,5.3161826171875,2.3178397204875947,7.106910564798116,1.9976208013996481
1783246153006194400,5.3261943359375,3.0766134307086466,7.425954302626848,2.202524803698808
1783246153016206600,5.33620654296875,4.451076322296261,7.508992066797614,2.0410772274188695
1783246153026217500,5.346217529296875,6.413377680772543,7.222465281692147,1.4341855388835072
1783246153036229400,5.3562294921875,7.695657963225245,6.748840053960681,0.9427192417740822
1783246153046241300,5.3662412109375,8.093628522774576,6.549712150844932,0.6947033891096711
1783246153056253400,5.37625341796875,7.734115996435285,6.657035630488395,0.6395307332683354
1783246153066265300,5.386265380859375,6.595346359294653,6.638265463566779,0.6319218656998127
1783246153076276200,5.396276123046875,5.571318369099497,6.571660947802663,0.5641377116970717
1783246153086288400,5.406288330078125,4.902327805656195,6.380445717507601,0.3635624958498403
1783246153096300300,5.41630029296875,4.499437909883261,6.409117685240507,0.27690915326410903
1783246153106312400,5.4263125,4.108248973298073,6.77521251257956,0.3265087764797732
1783246153116323600,5.436323486328125,3.3784348155796526,7.168947626516222,0.3281418941069394
1783246153126335500,5.44633544921875,2.266731464540958,7.521371655899286,0.26327154519166795
1783246153136347400,5.456347412109375,1.6949989138007162,7.800224837636947,0.2595614386273548
1783246153146359600,5.466359619140625,1.9591782580196857,7.803273703813552,0.5162754154017195
1783246153156371500,5.476371337890625,2.85056829457283,7.679633880141377,0.5887296070421114
1783246153166382300,5.48638232421875,3.7260020525813102,7.375514155200124,0.5945036603989079
1783246153176394500,5.49639453125,4.081165736061334,6.914338074675202,0.5862922968925908
1783246153186406400,5.506406494140625,3.9875627387344834,6.369280764892697,0.241117672382202
1783246153196418300,5.516418212890625,3.8541035318374632,5.711162893119454,-0.24435497380299492
1783246153206430500,5.526430419921875,3.3532629649221897,5.033728910979629,-0.5453403645075857
1783246153216441300,5.53644140625,2.263182832148671,4.534018809399009,-0.4958816293336451
1783246153226453200,5.546453369140625,0.7974351570487022,4.546722808149457,-0.3505492850197479
1783246153236465400,5.55646533203125,-0.7653244470387697,4.221013182690739,-0.16666216912306844
1783246153246477300,5.566477294921875,-2.2408903363198043,2.9321757336795327,-0.17856891654860227
1783246153256488400,5.576488525390625,-3.159135062050819,1.0339344671815633,-0.3599249795977026
1783246153266500400,5.586500244140625,-3.359797335126996,-1.1887298920959233,-0.5083799859767779
1783246153276512500,5.596512451171875,-2.8819629652678964,-3.831352186325192,-0.5236992087269201
1783246153286524400,5.6065244140625,-2.4063807582497594,-6.516427720880508,-0.9835236919797956
1783246153296536300,5.616536376953125,-1.65145349432379,-7.798108868396282,-1.7822579489283263
1783246153306547500,5.62654736328125,-1.8292656376883387,-8.228119995328784,-1.174168209714815
1783246153316559400,5.636559326171875,-4.257775225637853,-8.502270113942027,-0.08447974314000457
1783246153326571500,5.646571533203125,-6.392333723700046,-9.238003140315413,1.2693524118185042
1783246153336583400,5.65658349609375,-5.324719689756631,-9.832146844828129,2.657171044063568
1783246153346594300,5.66659423828125,-3.0430735646784304,-10.063799883973598,3.731716338574886
1783246153356606500,5.6766064453125,-1.7200936075687407,-10.683280858838557,4.181640372723341
1783246153366618400,5.686618408203125,-1.1185232601866126,-11.002720902508496,3.411701709887385
1783246153376630500,5.696630615234375,-1.4522776604130863,-10.76333931493759,0.8953911619532853
1783246153386642400,5.706642333984375,-3.9455373684316872,-10.209399610519409,-2.133277079949528
1783246153396653300,5.7166533203125,-6.7621747518301,-8.668034676638245,-4.28803124769181
1783246153406665200,5.726665283203125,-8.111334275335073,-6.334694020158052,-5.438192339679598
1783246153416677400,5.736677490234375,-8.722087753865122,-4.023088810145855,-5.155433967196941
1783246153426689300,5.746689208984375,-8.701325536343456,-2.404550035691261,-3.7495951096147295
1783246153436700400,5.756700439453125,-7.7179779315829276,-1.0467582929193973,-2.4246790698759257
1783246153446712600,5.766712646484375,-6.085987554880976,-0.0135112234801054,-1.8058720487497746
1783246153456724500,5.776724365234375,-4.019052101975679,0.7734574846118688,-1.3549037662453949
1783246153466736600,5.786736572265625,-1.6190484775424003,1.3470838862746952,-0.38964813688397404
1783246153476748500,5.79674853515625,0.2802449283570051,1.78158414131999,0.3499719600558281
1783246153486759400,5.806759521484375,1.295916009095311,1.7566420077651739,-0.05080576586872339
1783246153496771300,5.816771240234375,1.7121259896904228,1.165132743409276,-1.336071493873
1783246153506783500,5.826783447265625,1.460116975736618,0.8042588655889034,-2.402923895794153
1783246153516795400,5.83679541015625,0.5546557437330484,1.4763707759231328,-2.410892828846723
1783246153526807600,5.8468076171875,0.21424597727060316,2.542050042411685,-1.5251833221480249
1783246153536818400,5.856818359375,0.08031915286183357,3.1946219704955814,-0.07247384618893266
1783246153546830300,5.866830322265625,0.07130991697609425,3.584338496440649,1.2819167098373174
1783246153556842200,5.87684228515625,0.06058510934412479,4.03730905867815,1.9829951869368552
1783246153566854400,5.8868544921875,0.2751777080953121,4.323182348310947,2.0792859620429573
1783246153576865500,5.896865478515625,0.9773094936400651,4.460408214265108,1.6212036097496747
1783246153586877400,5.90687744140625,2.127540435993671,4.683246663314104,0.8014686503484845
1783246153596889600,5.9168896484375,3.64149830751121,4.898646486794949,0.051014732444286344
1783246153606901500,5.926901611328125,5.189869320762157,4.736394316133857,-0.3871506209798157
1783246153616913400,5.936913330078125,6.502573383051157,4.396787098225951,-0.4776605476621538
1783246153626924500,5.946924560546875,7.3346975761651985,4.404801477855444,-0.3070910689022392
1783246153636936400,5.9569365234375,7.279820907595753,4.719918397629261,-0.030869039385765788
1783246153646948400,5.9669482421875,6.482876164412498,5.073465878084302,0.30338235057741403
1783246153656960500,5.97696044921875,5.6337669342279435,5.543549487686157,0.5665300136610866
1783246153666971400,5.986971435546875,4.614164359259605,6.063251406937837,0.9234384219165891
1783246153676983300,5.9969833984375,3.534986728772521,6.585905161732435,1.4249720125973224
1783246153686995500,6.006995361328125,2.6031542071938514,7.01443627924025,1.624330801859498
1783246153697007400,6.01700732421875,2.0694804612129927,7.099482460623979,1.4738396500103175
1783246153707019300,6.027019287109375,2.1502619708895683,6.757611389437318,1.0585141971647738
1783246153717030400,6.037030517578125,2.5564929937839507,6.329432154107093,0.6281935658916831
1783246153727042600,6.04704248046875,3.030832507264614,6.05129150455296,0.21452325984202325
1783246153737054500,6.057054443359375,3.403391562181711,5.747630044773221,-0.18236765124443918
1783246153747066600,6.067066650390625,3.0222634163618087,5.294655390882491,-0.6911380978435278
1783246153757077500,6.077077392578125,2.0615882466584443,4.598276469776034,-1.0046722054053097
1783246153767089400,6.08708935546875,1.2863906403809786,3.7516841908484695,-0.9115204589772969
1783246153777101600,6.0971015625,0.6386077001392841,2.5612001485615967,-0.732514648848772
1783246153787113500,6.107113525390625,-0.4774661210685968,1.3039321422904728,-0.7299526894062757
1783246153797125400,6.11712548828125,-2.131942470344901,0.278051802226901,-0.6971060663372278
1783246153807136500,6.127136474609375,-3.984008845645189,-0.14581541512310503,-0.6719071815423667
1783246153817148400,6.1371484375,-5.357462267929315,-0.6859288387626409,-0.7841821461133659
1783246153827160300,6.147160400390625,-5.950989886370301,-2.20755154581964,-0.963812225620076
1783246153837172500,6.15717236328125,-6.300664324784279,-4.566740344783663,-1.2906854149654508
1783246153847184400,6.167184326171875,-5.975209550869464,-6.8651575719207525,-1.513178119316697
1783246153857195300,6.1771953125,-4.1807507304072375,-7.900249392443895,-1.1178340358134358
1783246153867207400,6.18720751953125,-3.373597896942496,-8.641545313641428,0.6973021734312176
1783246153877219300,6.19721923828125,-4.332480338010192,-9.916462958371639,3.285040200306475
1783246153887231200,6.207231201171875,-5.01628911587894,-10.60574987539053,4.892944475761055
1783246153897242600,6.21724267578125,-5.516103262355923,-10.494155294299125,5.780902199777961
1783246153907254500,6.227254638671875,-6.418403984501958,-10.05057332265377,5.6486921161592
1783246153917266400,6.237266357421875,-7.442952783700823,-9.384809904563426,4.611114616300165
1783246153927278600,6.247278564453125,-7.669291934347152,-8.94932589917779,3.111927028413117
1783246153937290500,6.25729052734375,-6.486003941044211,-9.259942584922909,1.3272456517301499
1783246153947301400,6.26730126953125,-4.723759290966392,-9.028912646111845,-0.6281500190109014
1783246153957313500,6.2773134765625,-4.749511571860313,-8.04949653558135,-2.604322666451335
1783246153967325400,6.287325439453125,-6.4911553324580185,-6.163112880137563,-3.9955268494814633
1783246153977337300,6.29733740234375,-7.938830175250768,-4.068483364620804,-4.022466294333339
1783246153987348500,6.307348388671875,-8.327560028246044,-2.649183552441001,-2.7008725308850408
1783246153997360400,6.3173603515625,-7.589815662050246,-1.526373116454482,-0.7995336636979132
1783246154007372300,6.327372314453125,-5.76624472887218,-0.37962124838829037,0.5458657766211777
1783246154017384400,6.337384521484375,-3.8015538449108597,0.5070680631279945,1.0326398242611436
1783246154027396400,6.347396240234375,-2.160902607369423,1.1264046610862015,0.5029834972281009
1783246154037407500,6.357407470703125,-0.6811901198029517,1.3190841187149285,-0.6606627339504659
1783246154047419600,6.367419677734375,0.7446423090159893,1.3871364951997995,-1.6377366652689873
1783246154057431600,6.377431640625,1.8706448190420866,1.6540648458659648,-1.8214948575563727
1783246154067443500,6.387443359375,2.2800392744034528,2.3195202209204435,-1.0708188213340937
1783246154077454300,6.397454345703125,1.9038696277737617,3.277884191071987,0.03713131465092301
1783246154087466500,6.407466552734375,1.484170051497221,4.335495886439085,1.0996806125506757
1783246154097478400,6.417478515625,0.8765104473292827,5.302708933478594,2.1257129283055662
1783246154107490600,6.427490478515625,0.21595395023226738,5.8707233404785395,2.9373072513490914
1783246154117502500,6.43750244140625,-0.011571779850125313,6.121662094852328,3.3081665166109797
1783246154127513300,6.447513427734375,0.44574119550585745,6.1314393925011155,3.2203380110323425
1783246154137525200,6.457525146484375,1.3962450998067855,5.865334633177518,2.632797650307417
1783246154147537400,6.467537353515625,2.5159470483839512,5.346147093188763,1.92937670173496
1783246154157549300,6.47754931640625,3.629542496779561,4.899889764854311,1.4075287103652954
1783246154167561500,6.4875615234375,4.368040896213055,4.8129362885445355,1.210190174884349
1783246154177572600,6.497572509765625,4.9236236916631455,5.036977683642506,1.2548939706161617
1783246154187584500,6.50758447265625,5.448309829068184,5.1875154511123895,1.3235875676140187
1783246154197596700,6.5175966796875,5.928184764844179,5.3527551131516695,1.2855424991190432
1783246154207608600,6.527608642578125,6.121978321194648,5.256791816434264,1.0041150829792023
1783246154217619500,6.537619384765625,5.785722751802206,5.182815895119309,0.8782490346249192
1783246154227631400,6.54763134765625,5.349553102239966,5.333069584950804,0.7891146340794861
1783246154237643500,6.5576435546875,5.071732770681381,5.438441346004605,0.8629147604361176
1783246154247655400,6.567655517578125,4.80904921797812,5.517261784741282,0.9476499031092971
1783246154257667600,6.57766748046875,4.614518579524756,5.651853795060515,0.6279201557777822
1783246154267678500,6.587678466796875,4.356095606875419,5.714221111646294,0.17988529637679457
1783246154277690400,6.5976904296875,4.033866224747896,5.79039600431025,-0.06364822324179112
1783246154287702300,6.607702392578125,3.9991666672885415,5.875155185446143,-0.1369815358042717
1783246154297714400,6.61771435546875,4.292437081435322,5.723915407186746,-0.22076325021013615
1783246154307725300,6.627725341796875,4.691954870426654,5.429406975677609,-0.31587614064328373
1783246154317737200,6.6377373046875,4.7658068731009955,5.015500595849752,-0.45448761573694646
1783246154327749400,6.647749267578125,4.06947938992083,4.546687152314186,-0.41126448701694607
1783246154337761300,6.65776123046875,2.853604885789752,4.249748278787732,-0.43860089529715474
1783246154347773400,6.6677734375,1.1761726083397865,3.7097283786505457,-0.7590345531143248
1783246154357784600,6.67778466796875,-0.37434535381197925,2.793379841929674,-1.1961883914083242
1783246154367796500,6.68779638671875,-1.5852116743922233,1.4629296950697899,-1.4620434137545526
1783246154377808400,6.697808349609375,-2.1872224590182303,-0.26573300340175626,-2.030985603123903
1783246154387820500,6.707820556640625,-1.6075573617130516,-2.3089847983807323,-2.7631802262380716
1783246154397832400,6.71783251953125,-1.01952424903512,-3.8340631988495586,-3.332739524592459
1783246154407843300,6.72784326171875,-1.4550526780843733,-4.9630783346951,-3.766375856284797
1783246154417855500,6.73785546875,-2.4691285985857245,-6.12990209993124,-2.906041467730701
1783246154427867400,6.747867431640625,-2.8607559265881775,-6.60180415713191,-1.243440264187753
1783246154437879300,6.75787939453125,-2.856047310505807,-6.331609498146176,1.0262189243681727
1783246154447890400,6.767890380859375,-2.535106214623153,-6.732879099240899,4.265733198904991
1783246154457902300,6.77790234375,-1.3464847513377665,-7.89809484475851,6.788487004694343
1783246154467914200,6.787914306640625,0.5464455492705106,-9.064726302292943,7.855818714565038
1783246154477926400,6.797926513671875,1.554931979201734,-9.978657256478071,7.441853882548212
1783246154487938300,6.807938232421875,-0.1394984870612621,-10.564369232732057,5.22015106177926
1783246154497949400,6.817949462890625,-3.832962544131279,-10.393271492314337,2.5373320739790794
1783246154507961600,6.827961669921875,-7.228690439817309,-9.139676621598005,0.04978383894246071
1783246154517973500,6.837973388671875,-9.09475611437559,-8.353302372267843,-1.6005178184650837
1783246154527985400,6.8479853515625,-8.583162682777642,-7.965542241087555,-2.3148142351865766
1783246154537996500,6.85799658203125,-6.073980306223034,-6.996932771253586,-2.1704782449662683
1783246154548008400,6.868008544921875,-3.401711061748862,-5.233741780236363,-1.6647855618447065
1783246154558020400,6.878020263671875,-0.9151485132813453,-3.452105031946301,-1.2973843280822037
1783246154568032500,6.888032470703125,1.3300322137087583,-2.356350945189595,-1.114101571286842
1783246154578044400,6.89804443359375,3.0877848130643364,-1.6904951726406812,-1.0988180043719709
1783246154588055300,6.90805517578125,4.288438367187976,-0.6564853021353483,-1.417122760401666
1783246154598067500,6.9180673828125,3.9139877994358536,0.8096779680281877,-2.3146296723999082
1783246154608079400,6.928079345703125,1.3373919288218021,2.2796517363905906,-3.216642663645744
1783246154618091300,6.93809130859375,-1.7414765873372553,3.132829238927364,-3.4685219137400387
1783246154628102700,6.9481025390625,-3.9932752711623904,3.8650539649188516,-2.7387308446362613
1783246154638114600,6.958114501953125,-4.9179772102087735,4.571461528086662,-1.0944254685014485
1783246154648126500,6.96812646484375,-4.59272760347724,5.028201671990752,1.000935576160252
1783246154658138600,6.978138671875,-3.1221798346191645,5.17235178425014,2.7177923937648534
1783246154668150500,6.988150634765625,-1.018938558101654,5.208573436710238,3.635159167617559
1783246154678161400,6.998161376953125,0.8957973316013812,5.060959447732568,3.720030869217217
1783246154688173600,7.008173583984375,2.2296002960205077,4.725383092775941,3.1339795780062674
1783246154698185500,7.018185546875,2.862068178230524,4.114171933606267,2.212882531584054
1783246154708197400,7.028197265625,2.971837881982326,3.641726271048188,1.47546184438467
1783246154718208500,7.03820849609375,3.060644877204299,3.638998307389021,1.1305129731878638
1783246154728220400,7.048220458984375,3.6409149546653032,3.8962574969559904,1.0250906509906053
1783246154738232300,7.058232421875,4.409118756532669,4.040318761888146,0.9908483357794582
1783246154748244500,7.068244384765625,4.902575642937421,4.072285094991326,0.9811097627058625
1783246154758256400,7.07825634765625,5.136169294756651,4.1141684264749285,0.8942065552785992
1783246154768267500,7.088267578125,5.3150592964857815,4.224602731615304,0.7265327979601919
1783246154778279400,7.098279541015625,5.505368517851829,4.315808020150661,0.6766076143182814
1783246154788291300,7.108291259765625,5.638066677248478,4.45958345387876,0.7049846907578409
1783246154798303500,7.118303466796875,5.755622797092795,4.563573405185341,0.654864276804775
1783246154808315400,7.1283154296875,5.891144197216629,4.6990474590361115,0.6886505188114941
1783246154818326500,7.138326416015625,5.830542721259594,4.851315411299467,0.7753935672409832
1783246154828338400,7.14833837890625,5.567838125768303,5.092753931400179,0.9977752124331891
1783246154838350600,7.1583505859375,5.312139025124907,5.40303393253684,1.4483514268800615
1783246154848362500,7.168362548828125,4.897614805659652,5.722812414380908,1.7837892501488326
1783246154858373400,7.178373291015625,4.856965399885177,5.94451864452958,2.1372906995050607
1783246154868385500,7.188385498046875,5.353714313572645,6.051026131615043,2.243146444683522
1783246154878397400,7.1983974609375,4.895160982766747,5.944529165923595,1.645233596895635
1783246154888409300,7.208409423828125,4.551247007575631,5.55919129345417,0.9447522089064121
1783246154898421500,7.21842138671875,4.042954371088743,5.112047829934954,0.2900292402684688
1783246154908432400,7.228432373046875,2.699997209355235,4.990004920065402,0.22216259561404583
1783246154918444300,7.2384443359375,1.3310147950053215,4.901041272976994,0.6642730334021151
1783246154928456400,7.24845654296875,0.44782443152070045,4.584826621094345,1.3243242113254963
