time,seconds_elapsed,z,y,x
1783246183260510500,0.059510498046875,1.6842249631881714,-2.704989433288574,-0.2501497268676758
1783246183270522600,0.069522705078125,1.6188322305679321,-2.564279317855835,-0.6808135509490967
1783246183280534500,0.079534423828125,1.6011096239089966,-1.9403090476989746,-1.2092914581298828
1783246183290545400,0.08954541015625,1.5080986022949219,-1.3979829549789429,-1.6877002716064453
1783246183300557600,0.0995576171875,1.2814841270446777,-1.0619410276412964,-2.078334331512451
1783246183310569500,0.109569580078125,1.0605144500732422,-0.9145025014877319,-2.5520198345184326
1783246183320581400,0.119581298828125,1.0253013372421265,-0.8303066492080688,-3.159196376800537
1783246183330593500,0.129593505859375,1.209678292274475,-0.7577335834503174,-3.7937355041503906
1783246183340604400,0.1396044921875,1.5241167545318604,-0.6509709358215332,-4.287248134613037
1783246183350616600,0.149616455078125,1.8434959650039673,-0.7081859111785889,-4.5117902755737305
1783246183360628500,0.15962841796875,1.8589049577713013,-1.0895947217941284,-4.403354644775391
1783246183370640600,0.169640625,1.434675693511963,-1.3290865421295166,-4.018688678741455
1783246183380651800,0.17965185546875,0.9399284720420837,-1.2292941808700562,-3.5955650806427
1783246183390663700,0.18966357421875,0.7104116082191467,-0.9075794816017151,-3.353740692138672
1783246183400675600,0.199675537109375,0.7185379862785339,-0.6004283428192139,-3.3302948474884033
1783246183410687700,0.209687744140625,0.8846486806869507,-0.379635214805603,-3.4028706550598145
1783246183420699600,0.21969970703125,1.1074402332305908,-0.31050965189933777,-3.5016438961029053
1783246183430710500,0.22971044921875,1.2766485214233398,-0.23679247498512268,-3.588984251022339
1783246183440722700,0.23972265625,1.4285117387771606,-0.12760499119758606,-3.5939321517944336
1783246183450734600,0.249734619140625,1.5971122980117798,-0.05236222967505455,-3.4839932918548584
1783246183460746800,0.259746826171875,1.7632687091827393,-0.10633464902639389,-3.2412593364715576
1783246183470757600,0.269757568359375,1.8972713947296143,-0.341346800327301,-2.915367364883423
1783246183480769500,0.27976953125,1.9488186836242676,-0.7563024759292603,-2.5336039066314697
1783246183490781400,0.289781494140625,1.8653392791748047,-1.1442466974258423,-2.1399409770965576
1783246183500793600,0.299793701171875,1.7324321269989014,-1.3554006814956665,-1.8170992136001587
1783246183510805500,0.309805419921875,1.6130613088607788,-1.4780093431472778,-1.6689485311508179
1783246183520816600,0.319816650390625,1.5165376663208008,-1.5043396949768066,-1.6434024572372437
1783246183530828800,0.329828857421875,1.445466160774231,-1.389675259590149,-1.6655417680740356
1783246183540840700,0.3398408203125,1.4540817737579346,-1.0900044441223145,-1.7124029397964478
1783246183550852600,0.3498525390625,1.5073320865631104,-0.7179861664772034,-1.7834008932113647
1783246183560863700,0.35986376953125,1.5299077033996582,-0.4621221423149109,-1.8781037330627441
1783246183570875600,0.369875732421875,1.4655070304870605,-0.398880273103714,-2.026205062866211
1783246183580887600,0.379887451171875,1.315088152885437,-0.4395486116409302,-2.2327446937561035
1783246183590899700,0.389899658203125,1.14678955078125,-0.47737669944763184,-2.3299994468688965
1783246183600911600,0.39991162109375,0.9473267197608948,-0.5728094577789307,-2.178069829940796
1783246183610922500,0.409922607421875,0.7551368474960327,-0.5589247941970825,-1.7352741956710815
1783246183620934700,0.4199345703125,0.6420374512672424,-0.2924765646457672,-1.3260188102722168
1783246183630946600,0.429946533203125,0.38291192054748535,-0.11671081185340881,-1.125282883644104
1783246183640958500,0.43995849609375,-0.03775806725025177,0.10073549300432205,-1.102502703666687
1783246183650969900,0.449969970703125,-0.5053001642227173,0.5791333317756653,-1.1437137126922607
1783246183660981800,0.459981689453125,-0.7996801137924194,1.6794825792312622,-1.2814496755599976
1783246183670993700,0.46999365234375,-1.0269142389297485,2.6026697158813477,-1.620091438293457
1783246183681005800,0.480005859375,-1.1540404558181763,3.1561362743377686,-1.7138581275939941
1783246183691017700,0.490017822265625,-1.1791291236877441,3.555567502975464,-1.380803108215332
1783246183701028600,0.500028564453125,-1.1196980476379395,3.7166149616241455,-0.8113706111907959
1783246183711040800,0.510040771484375,-0.8035902976989746,4.219171047210693,0.12759427726268768
1783246183721052700,0.520052734375,-0.5469388365745544,4.120882511138916,1.1107326745986938
1783246183731064600,0.530064697265625,-0.5209964513778687,3.094855785369873,1.8176034688949585
1783246183741076700,0.54007666015625,-0.7849327325820923,1.815611720085144,2.2213408946990967
1783246183751087600,0.550087646484375,-1.1420619487762451,1.0658752918243408,2.379969835281372
1783246183761099500,0.560099609375,-1.5672801733016968,0.848290741443634,2.1141884326934814
1783246183771111700,0.570111572265625,-2.055391550064087,0.8816454410552979,1.3183422088623047
1783246183781123600,0.58012353515625,-2.509239673614502,1.2938957214355469,0.20162679255008698
1783246183791134700,0.590134765625,-2.8787968158721924,1.7867028713226318,-0.8628861308097839
1783246183801146600,0.600146728515625,-2.787203550338745,1.800728678703308,-1.3054959774017334
1783246183811158800,0.61015869140625,-2.1916236877441406,1.9750523567199707,-0.7044378519058228
1783246183821170700,0.620170654296875,-1.5258660316467285,1.1645402908325195,0.10353831201791763
1783246183831182600,0.6301826171875,-1.2440677881240845,-0.5974796414375305,0.6890006065368652
1783246183841193700,0.64019384765625,-1.0711321830749512,-1.8498129844665527,0.9233510494232178
1783246183851205600,0.65020556640625,-0.8126785755157471,-2.2090835571289062,0.7786955237388611
1783246183861217800,0.6602177734375,-0.6967160105705261,-2.1901931762695312,0.30715063214302063
1783246183871229700,0.670229736328125,-1.0763980150222778,-2.156275987625122,-0.3454388976097107
1783246183881241600,0.68024169921875,-1.7412029504776,-1.9724631309509277,-1.0721830129623413
1783246183891252700,0.690252685546875,-2.67081618309021,-1.7826545238494873,-1.9096753597259521
1783246183901264600,0.7002646484375,-3.8928325176239014,-1.3291038274765015,-2.8739240169525146
1783246183911276500,0.710276611328125,-4.660107612609863,-1.2095142602920532,-3.3930554389953613
1783246183921288700,0.720288818359375,-4.798605918884277,-1.5903053283691406,-3.390617847442627
1783246183931299600,0.730299560546875,-4.349738597869873,-2.4343714714050293,-2.9855270385742188
1783246183941311500,0.7403115234375,-3.604055166244507,-3.461000919342041,-2.4031922817230225
1783246183951323600,0.75032373046875,-2.88447904586792,-3.840317487716675,-1.7353594303131104
1783246183961335600,0.76033544921875,-2.5233654975891113,-4.936131954193115,-1.321834683418274
1783246183971347500,0.770347412109375,-2.469639539718628,-5.343039035797119,-1.170660376548767
1783246183981358600,0.780358642578125,-2.4769625663757324,-5.171146869659424,-0.9303106069564819
1783246183991370800,0.790370849609375,-2.6964004039764404,-4.371486186981201,-0.7040852904319763
1783246184001382700,0.800382568359375,-3.10774564743042,-3.1018576622009277,-0.5763888359069824
1783246184011394800,0.810394775390625,-3.6429178714752197,-1.9471763372421265,-0.5827356576919556
1783246184021405700,0.82040576171875,-4.101292133331299,-0.9088919758796692,-0.704344630241394
1783246184031417600,0.83041748046875,-4.415911674499512,0.29208269715309143,-0.8444064259529114
1783246184041429800,0.8404296875,-4.702774524688721,1.6474131345748901,-0.9468424916267395
1783246184051441700,0.850441650390625,-4.856130123138428,2.9997100830078125,-1.011816382408142
1783246184061453600,0.86045361328125,-4.749382019042969,4.113883972167969,-1.214930534362793
1783246184071464400,0.87046435546875,-4.586208820343018,4.6792311668396,-1.6608444452285767
1783246184081476600,0.8804765625,-4.480513095855713,4.479413986206055,-2.254971981048584
1783246184091488500,0.890488525390625,-4.362075328826904,3.605179786682129,-2.636775493621826
1783246184101500700,0.900500732421875,-4.322936058044434,2.6897664070129395,-2.788315534591675
1783246184111511800,0.91051171875,-4.238260746002197,2.1837527751922607,-2.756335496902466
1783246184121523700,0.920523681640625,-3.8863790035247803,2.1655983924865723,-2.5689196586608887
1783246184131535600,0.93053564453125,-3.433480978012085,2.333512306213379,-2.3457536697387695
1783246184141547800,0.9405478515625,-3.0125515460968018,2.2922048568725586,-2.17273211479187
1783246184151559700,0.9505595703125,-2.5267186164855957,1.9197906255722046,-2.0838027000427246
1783246184161570600,0.960570556640625,-1.8791370391845703,1.4810582399368286,-2.129047393798828
1783246184171582700,0.970582763671875,-1.1427804231643677,0.9386243224143982,-2.254467248916626
1783246184181594600,0.9805947265625,-0.49202004075050354,0.33667057752609253,-2.4492931365966797
1783246184191606800,0.990606689453125,-0.1269824355840683,0.023528914898633957,-2.7266528606414795
1783246184201617700,1.00061767578125,-0.8466958403587341,0.08382155001163483,-3.0192484855651855
1783246184211629600,1.010629638671875,-2.2545762062072754,0.8209179043769836,-2.992358684539795
1783246184221641500,1.020641357421875,-3.397449254989624,2.1138248443603516,-2.5968902111053467
1783246184231653600,1.030653564453125,-3.7440781593322754,3.0103883743286133,-2.3554346561431885
1783246184241665500,1.04066552734375,-3.532660961151123,3.4422006607055664,-2.1900858879089355
1783246184251676700,1.0506767578125,-3.18359375,3.6517701148986816,-1.8519971370697021
1783246184261688800,1.060688720703125,-2.8567495346069336,3.6690852642059326,-1.2508937120437622
1783246184271700700,1.07070068359375,-2.4868967533111572,3.446096658706665,-0.43665751814842224
1783246184281712600,1.080712646484375,-1.9903416633605957,2.816110610961914,0.38109833002090454
1783246184291724800,1.090724853515625,-1.3625284433364868,2.0797762870788574,1.1934373378753662
1783246184301735700,1.100735595703125,-0.7137320041656494,1.382171630859375,2.002166986465454
1783246184311747600,1.11074755859375,-0.47400036454200745,0.48766323924064636,2.8650248050689697
1783246184321759700,1.120759765625,-0.9030891060829163,-0.45990386605262756,3.6323933601379395
1783246184331771600,1.130771728515625,-1.8081978559494019,-1.3659257888793945,3.873676300048828
1783246184341782500,1.140782470703125,-2.65415358543396,-2.593966245651245,3.2718284130096436
1783246184351794700,1.150794677734375,-3.070528507232666,-3.5002803802490234,2.1567704677581787
1783246184361806600,1.160806640625,-2.9426746368408203,-3.5428597927093506,1.0269423723220825
1783246184371818500,1.170818603515625,-2.2243571281433105,-2.8859379291534424,0.42122799158096313
1783246184381830400,1.180830322265625,-1.169572353363037,-2.653668165206909,0.6703965663909912
1783246184391841500,1.190841552734375,-0.218130424618721,-2.950453758239746,1.3476154804229736
1783246184401853400,1.200853515625,0.4515712261199951,-3.580301523208618,2.1163036823272705
1783246184411865600,1.210865478515625,0.840380847454071,-4.638355731964111,2.8045477867126465
1783246184421877500,1.22087744140625,1.011417031288147,-5.892725467681885,3.3829329013824463
1783246184431888400,1.230888427734375,1.101542592048645,-7.050358295440674,3.8546574115753174
1783246184441900500,1.240900634765625,1.227158784866333,-7.934357166290283,4.164294242858887
1783246184451912400,1.250912353515625,1.4178639650344849,-8.549440383911133,4.23762321472168
1783246184461924400,1.26092431640625,1.7011792659759521,-9.303972244262695,4.210809707641602
1783246184471936500,1.2709365234375,2.0109407901763916,-9.448551177978516,3.704416036605835
1783246184481947400,1.280947509765625,2.320645570755005,-9.363188743591309,3.1177115440368652
1783246184491959300,1.290959228515625,2.5336923599243164,-9.15575122833252,2.500312089920044
1783246184501971500,1.300971435546875,2.637049913406372,-8.474859237670898,1.7254085540771484
1783246184511983400,1.3109833984375,2.6935291290283203,-7.105722904205322,0.7841524481773376
1783246184521994200,1.320994140625,2.718106269836426,-5.337029933929443,-0.23652563989162445
1783246184532006400,1.33100634765625,2.654015064239502,-3.5747506618499756,-1.207619071006775
1783246184542018300,1.341018310546875,2.5746517181396484,-2.1315712928771973,-2.0570755004882812
1783246184552030200,1.3510302734375,2.5305185317993164,-1.0985159873962402,-2.7958028316497803
1783246184562042400,1.36104248046875,2.456770181655884,-0.3669893741607666,-3.4672048091888428
1783246184572053500,1.371053466796875,2.185411214828491,0.20872119069099426,-4.093428134918213
1783246184582065400,1.3810654296875,1.758736491203308,0.720447301864624,-4.652719020843506
1783246184592077600,1.39107763671875,1.2352712154388428,0.9899587035179138,-4.998222351074219
1783246184602089500,1.40108935546875,0.7120017409324646,0.9494149684906006,-5.08003044128418
1783246184612100400,1.411100341796875,0.38117510080337524,0.7807178497314453,-4.971114158630371
1783246184622112500,1.421112548828125,0.2448289841413498,0.6064304709434509,-4.786590099334717
1783246184632124400,1.43112451171875,0.25322866439819336,0.4706527292728424,-4.604149341583252
1783246184642136300,1.44113623046875,0.41156426072120667,0.4211874306201935,-4.516200542449951
1783246184652148500,1.4511484375,0.6260910630226135,0.49988847970962524,-4.542021751403809
1783246184662159400,1.461159423828125,0.8527734875679016,0.6421577334403992,-4.647949695587158
1783246184672171300,1.471171142578125,1.0652445554733276,0.8424198627471924,-4.790594577789307
1783246184682183400,1.481183349609375,1.2363710403442383,1.0371265411376953,-4.928220748901367
1783246184692195300,1.4911953125,1.3488808870315552,1.179219126701355,-5.0446085929870605
1783246184702206500,1.50120654296875,1.3636488914489746,1.293325424194336,-5.103021621704102
1783246184712218400,1.51121826171875,1.283028483390808,1.3687574863433838,-5.0776896476745605
1783246184722230500,1.52123046875,1.1297551393508911,1.3071420192718506,-4.9638352394104
1783246184732242400,1.531242431640625,0.8848402500152588,1.153476595878601,-4.699568748474121
1783246184742254600,1.541254638671875,0.5636555552482605,0.9385589361190796,-4.2491536140441895
1783246184752265500,1.551265380859375,0.1948111206293106,0.695928692817688,-3.6786274909973145
1783246184762277400,1.56127734375,-0.16493400931358337,0.4735563099384308,-3.0567824840545654
1783246184772289500,1.57128955078125,-0.4534790813922882,0.29454490542411804,-2.442167043685913
1783246184782301400,1.581301513671875,-0.6776376366615295,0.22024138271808624,-1.852799892425537
1783246184792313300,1.591313232421875,-0.8284249901771545,0.13116317987442017,-1.323538899421692
1783246184802324200,1.60132421875,-0.8701881766319275,0.037643346935510635,-0.8716154098510742
1783246184812336400,1.61133642578125,-0.8827337622642517,0.045179832726716995,-0.5141132473945618
1783246184822348300,1.621348388671875,-0.9061011075973511,0.2505931854248047,-0.323751300573349
1783246184832360400,1.6313603515625,-0.848599910736084,0.5653057098388672,-0.3270556330680847
1783246184842371600,1.64137158203125,-0.7450956106185913,0.908193826675415,-0.4898775517940521
1783246184852383500,1.651383544921875,-0.675096869468689,1.3247041702270508,-0.5832627415657043
1783246184862395400,1.6613955078125,-0.5922677516937256,1.8106790781021118,-0.5874679088592529
1783246184872407600,1.671407470703125,-0.4003978967666626,2.0375545024871826,-0.6051371693611145
1783246184882419500,1.68141943359375,0.13645756244659424,1.6890424489974976,-0.7445842623710632
1783246184892430300,1.691430419921875,1.1039544343948364,0.5703481435775757,-1.1148426532745361
1783246184902442500,1.7014423828125,2.1831839084625244,-0.7688106894493103,-1.5476340055465698
1783246184912454400,1.711454345703125,2.822991132736206,-1.5760819911956787,-1.7699192762374878
1783246184922466300,1.72146630859375,2.5611181259155273,-1.705919861793518,-1.8078086376190186
1783246184932478500,1.731478515625,1.4347004890441895,-1.0865496397018433,-1.8195773363113403
1783246184942489300,1.7414892578125,-0.02657170593738556,0.03714533522725105,-2.043137788772583
1783246184952501200,1.751501220703125,-1.1986585855484009,1.2617191076278687,-2.6159679889678955
1783246184962513400,1.761513427734375,-1.5930403470993042,2.122713088989258,-3.4634690284729004
1783246184972525300,1.771525390625,-1.220139980316162,2.3599727153778076,-4.261828422546387
1783246184982536200,1.7815361328125,-0.5701397657394409,2.0495338439941406,-4.6624345779418945
1783246184992548400,1.79154833984375,-0.07959440350532532,1.4006325006484985,-4.487009048461914
1783246185002560300,1.801560302734375,0.12381118535995483,0.5803375840187073,-3.847823143005371
1783246185012572400,1.811572509765625,0.1458684504032135,-0.2967067360877991,-2.9803097248077393
1783246185022584300,1.821584228515625,0.07444486767053604,-1.1738166809082031,-2.1422600746154785
1783246185032595500,1.831595458984375,-0.0001459058839827776,-1.9041498899459839,-1.523269772529602
1783246185042607400,1.841607421875,-0.032241787761449814,-2.4096243381500244,-1.1562731266021729
1783246185052619500,1.85161962890625,0.045571357011795044,-2.6277477741241455,-1.01045823097229
1783246185062631400,1.86163134765625,0.1864624321460724,-2.485523223876953,-1.0504690408706665
1783246185072643300,1.871643310546875,0.26681387424468994,-2.0469586849212646,-1.251533031463623
1783246185082654500,1.881654541015625,0.2491520643234253,-1.473978042602539,-1.525233268737793
1783246185092666400,1.891666259765625,0.145987868309021,-0.9372402429580688,-1.7887201309204102
1783246185102678300,1.90167822265625,-0.027491509914398193,-0.48039230704307556,-1.9993655681610107
1783246185112690400,1.9116904296875,-0.24909263849258423,-0.09526005387306213,-2.117403984069824
1783246185122701300,1.921701416015625,-0.4044044613838196,0.16797557473182678,-2.0995869636535645
1783246185132713200,1.931713134765625,-0.41177645325660706,0.18260075151920319,-1.9366616010665894
1783246185142725400,1.941725341796875,-0.2959052324295044,0.008220154792070389,-1.627441167831421
1783246185152737300,1.9517373046875,-0.10779403150081635,-0.2500580847263336,-1.2014096975326538
1783246185162749200,1.961749267578125,0.06232096627354622,-0.5229477286338806,-0.706592857837677
1783246185172760600,1.971760498046875,0.13146942853927612,-0.8174304366111755,-0.20593076944351196
1783246185182772500,1.9817724609375,0.03382223844528198,-1.0886659622192383,0.21471872925758362
1783246185192784400,1.991784423828125,-0.2062842696905136,-1.2532545328140259,0.5013315081596375
1783246185202796500,2.001796630859375,-0.4918885827064514,-1.2672467231750488,0.6650016903877258
1783246185212807400,2.011807373046875,-0.7719855904579163,-1.1320207118988037,0.7167750597000122
1783246185222819300,2.0218193359375,-1.0114670991897583,-0.9493916630744934,0.6880232691764832
1783246185232831500,2.03183154296875,-1.1406058073043823,-0.7799599170684814,0.5964726209640503
1783246185242843400,2.041843505859375,-1.1704920530319214,-0.5848391056060791,0.46675723791122437
1783246185252855300,2.051855224609375,-1.1212316751480103,-0.36613428592681885,0.33642861247062683
1783246185262866400,2.061866455078125,-1.0189716815948486,-0.14883656799793243,0.23029497265815735
1783246185272878300,2.07187841796875,-0.8952590227127075,0.06882938742637634,0.17079788446426392
1783246185282890200,2.08189013671875,-0.8500286936759949,0.24366697669029236,0.16338257491588593
1783246185292902400,2.09190234375,-0.9599090218544006,0.3108426332473755,0.19088825583457947
1783246185302913500,2.10191357421875,-1.185396432876587,0.35789376497268677,0.24991348385810852
1783246185312925400,2.111925537109375,-1.429402470588684,0.4215633273124695,0.3382451832294464
1783246185322937600,2.1219375,-1.6566662788391113,0.48783689737319946,0.41374126076698303
1783246185332949500,2.131949462890625,-1.834840178489685,0.5766485333442688,0.450965940952301
1783246185342961400,2.14196142578125,-1.9801148176193237,0.7571999430656433,0.4094078242778778
1783246185352972500,2.15197265625,-2.0991883277893066,1.023972988128662,0.26771754026412964
1783246185362984400,2.161984375,-2.1506805419921875,1.4130600690841675,0.036402035504579544
1783246185372996400,2.171996337890625,-2.124807596206665,1.8971675634384155,-0.24090392887592316
1783246185383008500,2.182008544921875,-2.1060526371002197,2.2971248626708984,-0.5041651725769043
1783246185393019400,2.192019287109375,-2.069091320037842,2.4130747318267822,-0.7385776042938232
1783246185403031600,2.202031494140625,-1.9539293050765991,2.3661532402038574,-0.9092761278152466
1783246185413043500,2.21204345703125,-1.8026683330535889,2.3636667728424072,-1.0201793909072876
1783246185423055400,2.222055419921875,-1.7458561658859253,2.5867691040039062,-1.082979679107666
1783246185433067500,2.232067626953125,-1.7682007551193237,3.0764012336730957,-1.0315228700637817
1783246185443078400,2.242078369140625,-1.7549456357955933,3.78691029548645,-0.9226105213165283
1783246185453090300,2.25209033203125,-1.9025629758834839,4.47511100769043,-0.9074157476425171
1783246185463102500,2.2621025390625,-2.346503734588623,4.894280910491943,-1.0192794799804688
1783246185473114400,2.2721142578125,-2.7809345722198486,4.781247138977051,-1.3018442392349243
1783246185483126500,2.28212646484375,-2.8369157314300537,4.2046403884887695,-1.787749171257019
1783246185493137700,2.2921376953125,-2.654796600341797,3.4505562782287598,-2.3891327381134033
1783246185503149600,2.302149658203125,-2.3210110664367676,2.73579478263855,-3.025036096572876
1783246185513161500,2.312161376953125,-1.808316707611084,2.072955846786499,-3.5694615840911865
1783246185523173600,2.322173583984375,-1.1203728914260864,1.4112718105316162,-3.938786029815674
1783246185533184500,2.3321845703125,-0.45336249470710754,0.8649657368659973,-4.1533427238464355
1783246185543196400,2.342196533203125,0.04049089550971985,0.6355637311935425,-4.233672142028809
1783246185553208600,2.35220849609375,0.33549004793167114,0.7113037109375,-4.154290199279785
1783246185563220500,2.362220458984375,0.4431603252887726,0.8271869421005249,-3.8987720012664795
1783246185573232400,2.372232421875,0.34506678581237793,0.869839072227478,-3.527425527572632
1783246185583243500,2.382243408203125,0.015650013461709023,0.8393850326538086,-3.143062114715576
1783246185593255400,2.39225537109375,-0.5031507015228271,0.798011302947998,-2.797262668609619
1783246185603267300,2.402267333984375,-0.9980440139770508,0.7424125075340271,-2.5056657791137695
1783246185613279500,2.412279541015625,-1.2515678405761719,0.7935789823532104,-2.2658743858337402
1783246185623291400,2.42229150390625,-1.4212833642959595,0.7811864614486694,-2.046985626220703
1783246185633302500,2.432302490234375,-1.576749324798584,0.6482867002487183,-1.850785255432129
1783246185643314700,2.442314697265625,-1.5714882612228394,0.47053852677345276,-1.655387282371521
1783246185653326600,2.45232666015625,-1.4148733615875244,0.24340039491653442,-1.4865747690200806
1783246185663338500,2.46233837890625,-1.1898138523101807,-0.04524924233555794,-1.3437528610229492
1783246185673349600,2.472349609375,-0.9538205862045288,-0.33417052030563354,-1.2310315370559692
1783246185683361500,2.482361572265625,-0.7291646003723145,-0.6177468299865723,-1.1574742794036865
1783246185693373400,2.49237353515625,-0.5475038290023804,-0.8973293900489807,-1.0979317426681519
1783246185703385600,2.502385498046875,-0.42092859745025635,-1.1573537588119507,-1.0356963872909546
1783246185713397500,2.5123974609375,-0.36395424604415894,-1.3706002235412598,-0.9699599146842957
1783246185723408400,2.522408447265625,-0.42725250124931335,-1.4721993207931519,-0.9031510353088379
1783246185733420500,2.532420654296875,-0.6164475083351135,-1.4154574871063232,-0.8113605380058289
1783246185743432400,2.542432373046875,-0.8289176821708679,-1.3505836725234985,-0.7378865480422974
1783246185753444400,2.5524443359375,-0.9731217622756958,-1.275476336479187,-0.7474260926246643
1783246185763455700,2.562455810546875,-1.0476340055465698,-1.11318039894104,-0.8279390335083008
1783246185773467600,2.572467529296875,-1.1129205226898193,-0.8841679096221924,-0.9758114814758301
1783246185783479600,2.5824794921875,-1.1572768688201904,-0.624403178691864,-1.1511108875274658
1783246185793491700,2.59249169921875,-1.161451816558838,-0.3827681243419647,-1.3166029453277588
1783246185803503600,2.602503662109375,-1.099135160446167,-0.28802376985549927,-1.4789081811904907
1783246185813514500,2.612514404296875,-0.9764333963394165,-0.33702558279037476,-1.65333092212677
1783246185823526700,2.622526611328125,-0.8197503089904785,-0.3535377085208893,-1.8682045936584473
1783246185833538600,2.63253857421875,-0.6302622556686401,-0.4013828933238983,-2.1244726181030273
1783246185843550500,2.642550537109375,-0.4269257187843323,-0.5565301775932312,-2.3548836708068848
1783246185853561600,2.6525615234375,-0.2205047309398651,-0.708877444267273,-2.460010528564453
1783246185863573500,2.662573486328125,-0.049198489636182785,-0.8685315847396851,-2.407257318496704
1783246185873585400,2.67258544921875,0.03779315948486328,-1.0251120328903198,-2.240854501724243
1783246185883597600,2.68259765625,0.02065199241042137,-1.1060458421707153,-2.016775608062744
1783246185893609500,2.692609375,-0.0033906088210642338,-1.0266057252883911,-1.7462280988693237
1783246185903620600,2.70262060546875,-0.011486884206533432,-0.7831344604492188,-1.405226230621338
1783246185913632500,2.712632568359375,-0.11651938408613205,-0.5923219919204712,-0.9592120051383972
1783246185923644400,2.72264453125,-0.2855190634727478,-0.584642231464386,-0.4363935887813568
1783246185933656600,2.732656494140625,-0.4741153419017792,-0.7102150917053223,0.06657367199659348
1783246185943668500,2.74266845703125,-0.6749797463417053,-0.9991017580032349,0.5573396682739258
1783246185953679600,2.7526796875,-0.64450603723526,-1.3231244087219238,1.0014840364456177
1783246185963691500,2.76269140625,-0.39849281311035156,-1.2641832828521729,1.1425352096557617
1783246185973703700,2.77270361328125,-0.08624796569347382,-0.6992391347885132,0.7083786725997925
1783246185983715600,2.782715576171875,0.1807461827993393,-0.10260500013828278,-0.23667386174201965
1783246185993726500,2.7927265625,0.5238764882087708,-0.11743305623531342,-1.4092812538146973
1783246186003738400,2.80273828125,0.929644763469696,-0.44955718517303467,-2.374620199203491
1783246186013750500,2.81275048828125,1.0473917722702026,-0.6279489398002625,-2.9780032634735107
1783246186023762400,2.822762451171875,0.7416709661483765,-0.5462189316749573,-3.29459810256958
1783246186033774600,2.832774658203125,0.2216840535402298,-0.3641428053379059,-3.2729015350341797
1783246186043785500,2.842785400390625,-0.11674804985523224,-0.3052099645137787,-3.103391408920288
1783246186053797400,2.85279736328125,-0.15076944231987,-0.4340718686580658,-3.0778348445892334
1783246186063809500,2.8628095703125,-0.08373075723648071,-0.74566650390625,-3.1931979656219482
1783246186073821400,2.872821533203125,-0.05782829597592354,-1.1188256740570068,-3.304015874862671
1783246186083833300,2.882833251953125,0.011021608486771584,-1.4500150680541992,-3.3212428092956543
1783246186093844500,2.892844482421875,0.1621079295873642,-1.7177693843841553,-3.256639003753662
1783246186103856600,2.902856689453125,0.3612908124923706,-1.8821836709976196,-3.19903564453125
1783246186113868500,2.91286865234375,0.5246188044548035,-1.8597526550292969,-3.1981470584869385
1783246186123880700,2.922880615234375,0.6061171293258667,-1.7131059169769287,-3.270186424255371
1783246186133891600,2.9328916015625,0.6306860446929932,-1.5129550695419312,-3.419308662414551
1783246186143903500,2.942903564453125,0.6171407103538513,-1.2644953727722168,-3.6208982467651367
1783246186153915400,2.952915283203125,0.5851852893829346,-1.0462936162948608,-3.8554909229278564
1783246186163927600,2.962927490234375,0.5521703958511353,-0.8744593262672424,-4.111089706420898
1783246186173939500,2.972939453125,0.5034332275390625,-0.6662991642951965,-4.362948417663574
1783246186183950300,2.982950439453125,0.4224603474140167,-0.40872061252593994,-4.524723529815674
1783246186193962500,2.99296240234375,0.36454808712005615,-0.12555676698684692,-4.543122291564941
1783246186203974400,3.002974365234375,0.37712860107421875,0.0013172958279028535,-4.427114963531494
1783246186213986600,3.012986572265625,0.43332552909851074,-0.07212501764297485,-4.2157979011535645
1783246186223997700,3.022997802734375,0.5163043141365051,-0.21255509555339813,-3.9488883018493652
1783246186234009600,3.033009521484375,0.6256022453308105,-0.3169372081756592,-3.6753010749816895
1783246186244021500,3.043021484375,0.7144858241081238,-0.35399243235588074,-3.438397169113159
1783246186254033700,3.05303369140625,0.7660768032073975,-0.3633156418800354,-3.2323977947235107
1783246186264045600,3.063045654296875,0.7933350205421448,-0.34414246678352356,-3.030775785446167
1783246186274056400,3.073056396484375,0.7785636782646179,-0.2398502677679062,-2.830869674682617
1783246186284068600,3.083068603515625,0.6900975108146667,-0.017587900161743164,-2.643235206604004
1783246186294080500,3.09308056640625,0.5781412124633789,0.2632982134819031,-2.465428352355957
1783246186304092400,3.103092529296875,0.4717806875705719,0.5600614547729492,-2.2814292907714844
1783246186314103600,3.113103515625,0.3879601061344147,0.867461085319519,-2.071471691131592
1783246186324115500,3.123115478515625,0.34733888506889343,1.231948733329773,-1.8193902969360352
1783246186334127400,3.13312744140625,0.33785367012023926,1.5887176990509033,-1.569349765777588
1783246186344139500,3.143139404296875,0.3479164242744446,1.8413512706756592,-1.3350014686584473
1783246186354151400,3.1531513671875,0.35487625002861023,1.9690468311309814,-1.1011414527893066
1783246186364162600,3.16316259765625,0.31827405095100403,1.982479214668274,-0.8644126057624817
1783246186374174700,3.1731748046875,0.23747959733009338,1.8802742958068848,-0.6251488327980042
1783246186384186600,3.1831865234375,0.12055644392967224,1.6505426168441772,-0.3903370797634125
1783246186394198500,3.193198486328125,-0.008067026734352112,1.3415237665176392,-0.13141515851020813
1783246186404210400,3.20321044921875,-0.14997810125350952,0.9956178069114685,0.16409531235694885
1783246186414221300,3.21322119140625,-0.31984302401542664,0.6489037275314331,0.48145604133605957
1783246186424233500,3.2232333984375,-0.5109583735466003,0.32533422112464905,0.8178215026855469
1783246186434245400,3.233245361328125,-0.7005445957183838,0.18431980907917023,1.1493282318115234
1783246186444257500,3.243257568359375,-0.8867397904396057,0.20266713201999664,1.4176270961761475
1783246186454268400,3.253268310546875,-1.0558679103851318,0.3830573558807373,1.577202558517456
1783246186464280300,3.2632802734375,-1.236074447631836,0.7615373134613037,1.6510299444198608
1783246186474292200,3.273292236328125,-1.4765764474868774,1.163558006286621,1.6912552118301392
1783246186484304400,3.283304443359375,-1.8502471446990967,1.4341869354248047,1.7416718006134033
1783246186494316300,3.29331640625,-2.3086135387420654,1.5096042156219482,1.8457494974136353
1783246186504327400,3.303327392578125,-2.8239545822143555,1.446642279624939,1.9091111421585083
1783246186514339300,3.31333935546875,-3.418574810028076,1.418331503868103,1.8815271854400635
1783246186524351200,3.323351318359375,-3.958946704864502,1.4914827346801758,1.7665859460830688
1783246186534363400,3.33336328125,-4.162046432495117,1.6411298513412476,1.5237082242965698
1783246186544375300,3.343375244140625,-3.7894604206085205,1.8373390436172485,1.0530003309249878
1783246186554386400,3.353386474609375,-2.722015619277954,1.8885109424591064,0.2489134520292282
1783246186564398300,3.3633984375,-1.247862696647644,1.625195860862732,-1.0991473197937012
1783246186574410500,3.373410400390625,-0.1366824209690094,1.210510492324829,-2.666987895965576
1783246186584422400,3.38342236328125,0.30412694811820984,0.8447165489196777,-3.881052255630493
1783246186594433300,3.393433349609375,0.35131123661994934,0.6402997374534607,-4.445925712585449
1783246186604445400,3.403445556640625,0.17931149899959564,0.5012869834899902,-4.467055320739746
1783246186614457300,3.413457275390625,-0.2063777893781662,0.3227250576019287,-4.175135135650635
1783246186624469200,3.42346923828125,-0.5707927346229553,0.17537447810173035,-3.797183036804199
1783246186634481400,3.4334814453125,-0.7123336791992188,0.20375393331050873,-3.440480947494507
1783246186644492300,3.4434921875,-0.6271828413009644,0.33309751749038696,-3.2009739875793457
1783246186654504200,3.453504150390625,-0.437910258769989,0.4653680622577667,-3.1457600593566895
1783246186664516400,3.463516357421875,-0.27380919456481934,0.6193608045578003,-3.2074220180511475
1783246186674528300,3.4735283203125,-0.18640239536762238,0.8277283906936646,-3.2633376121520996
1783246186684539400,3.483539306640625,-0.17007268965244293,0.9938220381736755,-3.231480360031128
1783246186694551600,3.493551513671875,-0.17240430414676666,1.0183206796646118,-3.030571937561035
1783246186704563500,3.5035634765625,-0.15089847147464752,0.9580922722816467,-2.6573119163513184
1783246186714575400,3.513575439453125,-0.06317728012800217,0.8365147709846497,-2.196737766265869
1783246186724587500,3.52358740234375,0.10113976150751114,0.6664817929267883,-1.7609221935272217
1783246186734598400,3.533598388671875,0.27383822202682495,0.4833209812641144,-1.4035285711288452
1783246186744610300,3.5436103515625,0.4054439067840576,0.2874404489994049,-1.1766029596328735
1783246186754622500,3.55362255859375,0.4371652901172638,0.2144540250301361,-1.0482491254806519
1783246186764634400,3.56363427734375,0.3255186378955841,0.27717384696006775,-0.9557503461837769
1783246186774646300,3.573646240234375,0.11302810907363892,0.37092792987823486,-0.8885324001312256
1783246186784657400,3.583657470703125,-0.09218869358301163,0.4427432715892792,-0.8479260802268982
1783246186794669300,3.59366943359375,-0.020383428782224655,0.2858666479587555,-0.8878075480461121
1783246186804681200,3.60368115234375,0.1481480598449707,-0.022494135424494743,-1.0357626676559448
1783246186814693400,3.613693359375,0.3489815294742584,-0.2642951011657715,-1.1828633546829224
1783246186824704500,3.62370458984375,0.44827136397361755,-0.4002681076526642,-1.2660080194473267
1783246186834716400,3.63371630859375,0.3881208598613739,-0.5212971568107605,-1.3561820983886719
1783246186844728600,3.643728515625,0.32655948400497437,-0.5596522688865662,-1.5240203142166138
1783246186854740500,3.653740478515625,0.3521195650100708,-0.5204998850822449,-1.8215774297714233
1783246186864752400,3.66375244140625,0.34932804107666016,-0.23185214400291443,-2.1801912784576416
1783246186874763500,3.673763427734375,0.2589547634124756,0.3142394721508026,-2.5174238681793213
1783246186884775400,3.683775390625,0.12516209483146667,0.8745264410972595,-2.792095899581909
1783246186894787300,3.693787353515625,-0.025668060407042503,1.307281255722046,-2.9924256801605225
1783246186904799500,3.703799560546875,-0.16219954192638397,1.5762532949447632,-3.116973638534546
1783246186914811400,3.713811279296875,-0.3440265953540802,1.6706465482711792,-3.151392936706543
1783246186924822300,3.723822265625,-0.5859854221343994,1.7689987421035767,-3.106232166290283
1783246186934834400,3.73383447265625,-0.8291167616844177,2.0012266635894775,-2.9108471870422363
1783246186944846300,3.743846435546875,-0.9512631297111511,2.0975136756896973,-2.617365598678589
1783246186954858200,3.753858154296875,-0.9245327711105347,2.1948516368865967,-2.2103652954101562
1783246186964869400,3.763869384765625,-0.8028904795646667,2.307925224304199,-1.7008016109466553
1783246186974881500,3.773881591796875,-0.6247391700744629,2.4098973274230957,-1.1273949146270752
1783246186984893400,3.7838935546875,-0.47073042392730713,2.521759033203125,-0.5134790539741516
1783246186994905300,3.7939052734375,-0.46771031618118286,2.4944000244140625,0.13365043699741364
1783246187004917500,3.80391748046875,-0.5876331925392151,2.7557239532470703,0.9721157550811768
1783246187014928400,3.813928466796875,-0.7192295789718628,2.8292109966278076,1.8318591117858887
1783246187024940500,3.8239404296875,-0.7413655519485474,2.314730644226074,2.3524951934814453
1783246187034952400,3.833952392578125,-0.8007445931434631,1.6003233194351196,2.59029483795166
1783246187044964400,3.84396435546875,-1.0039578676223755,1.3599072694778442,2.8088934421539307
1783246187054975500,3.8539755859375,-1.2897497415542603,1.7033987045288086,3.0263941287994385
1783246187064987400,3.8639873046875,-1.5306289196014404,2.0592174530029297,3.121755361557007
1783246187074999300,3.873999267578125,-1.684525489807129,2.098844051361084,2.945098638534546
1783246187085011500,3.884011474609375,-1.7178694009780884,2.0944290161132812,2.582812786102295
1783246187095023400,3.8940234375,-1.607336401939392,2.147812604904175,2.0461530685424805
1783246187105034200,3.9040341796875,-1.4364186525344849,2.2098820209503174,1.3733564615249634
1783246187115046400,3.91404638671875,-1.1546881198883057,2.2109105587005615,0.9089885354042053
1783246187125058300,3.924058349609375,-0.5078898668289185,2.2166295051574707,0.8495436310768127
1783246187135070200,3.9340703125,0.23047319054603577,1.84195077419281,0.8391689658164978
1783246187145082400,3.944082275390625,0.66939377784729,1.1887372732162476,0.7408493161201477
1783246187155093500,3.954093505859375,0.8721463084220886,0.44457143545150757,0.45681414008140564
1783246187165105400,3.96410546875,1.0644617080688477,-0.19459441304206848,-0.09186308085918427
1783246187175117600,3.97411767578125,1.4278995990753174,-0.49464723467826843,-0.8452770113945007
1783246187185129500,3.98412939453125,1.9587689638137817,-0.6291587352752686,-1.6474149227142334
1783246187195140400,3.994140380859375,2.3757009506225586,-0.8583443760871887,-2.2960402965545654
1783246187205152500,4.004152587890625,2.4433045387268066,-1.0662736892700195,-2.518827199935913
1783246187215164400,4.014164306640625,2.2728278636932373,-1.1298332214355469,-2.2984025478363037
1783246187225176300,4.02417626953125,2.0448710918426514,-0.9687098860740662,-1.7804381847381592
1783246187235188500,4.0341884765625,1.8279551267623901,-0.39568817615509033,-1.169123888015747
1783246187245199400,4.044199462890625,1.5617891550064087,0.42875245213508606,-0.7452799677848816
1783246187255211300,4.054211181640625,1.2039847373962402,1.1758421659469604,-0.6126316785812378
1783246187265223400,4.064223388671875,0.8714818358421326,1.587504267692566,-0.6414470672607422
1783246187275235300,4.0742353515625,0.6206628680229187,1.7343699932098389,-0.6461387872695923
1783246187285246500,4.08424658203125,0.37704935669898987,1.7090705633163452,-0.5935304760932922
1783246187295258400,4.09425830078125,0.15448550879955292,1.5055488348007202,-0.5984861254692078
1783246187305270500,4.1042705078125,-0.040665335953235626,1.2500475645065308,-0.6916570663452148
1783246187315282400,4.114282470703125,-0.21769613027572632,1.0356065034866333,-0.8433030843734741
1783246187325294600,4.124294677734375,-0.40188008546829224,0.7832248210906982,-0.9987861514091492
1783246187335305500,4.134305419921875,-0.6325542330741882,0.526553750038147,-1.0639952421188354
1783246187345317400,4.1443173828125,-0.9141390323638916,0.18215349316596985,-0.8788190484046936
1783246187355329500,4.15432958984375,-1.1524415016174316,-0.04621799662709236,-0.431901216506958
1783246187365341400,4.164341552734375,-1.266814112663269,-0.13470152020454407,0.024012530222535133
1783246187375352300,4.174352294921875,-1.355573296546936,0.01563306525349617,0.33185678720474243
1783246187385365000,4.184364990234375,-1.5232142210006714,0.6535296440124512,0.4203440546989441
1783246187395377200,4.194377197265625,-1.7618449926376343,1.1298723220825195,0.2708785831928253
1783246187405389000,4.20438916015625,-1.8824489116668701,1.5986113548278809,0.0934894010424614
1783246187415401000,4.21440087890625,-1.8350129127502441,2.177450656890869,-0.04090270400047302
1783246187425412000,4.224412109375,-1.7524421215057373,2.6007800102233887,-0.1756512075662613
1783246187435424000,4.234424072265625,-1.7627524137496948,2.7941060066223145,-0.24007633328437805
1783246187445436000,4.244435791015625,-1.8631658554077148,2.7721734046936035,-0.15380457043647766
1783246187455448000,4.254447998046875,-1.914506435394287,2.3606326580047607,0.23887999355793
1783246187465460000,4.2644599609375,-1.7992116212844849,2.2263336181640625,0.8357332944869995
1783246187475471000,4.27447119140625,-1.7346538305282593,2.1583762168884277,1.3224680423736572
1783246187485483300,4.284483154296875,-1.7051353454589844,2.1083474159240723,1.6430364847183228
1783246187495495200,4.2944951171875,-1.7119908332824707,1.9922301769256592,1.7340061664581299
1783246187505507000,4.304507080078125,-1.7440330982208252,1.8917126655578613,1.6038167476654053
1783246187515518000,4.31451806640625,-1.8448725938796997,1.8366994857788086,1.3555703163146973
1783246187525530000,4.324530029296875,-2.00152850151062,1.8169913291931152,1.120678186416626
1783246187535542000,4.3345419921875,-2.1219146251678467,1.9827544689178467,1.0458686351776123
1783246187545554200,4.34455419921875,-2.0845518112182617,2.1867034435272217,1.292955994606018
1783246187555566000,4.354566162109375,-1.9592711925506592,2.3115434646606445,1.7863755226135254
1783246187565577000,4.364576904296875,-1.9302242994308472,2.2319350242614746,2.353262186050415
1783246187575589000,4.374589111328125,-1.9287112951278687,1.9503878355026245,2.9588983058929443
1783246187585601000,4.38460107421875,-1.9203011989593506,1.7736234664916992,3.4371187686920166
1783246187595613000,4.394613037109375,-2.119215488433838,1.6556591987609863,3.524076461791992
1783246187605624000,4.4046240234375,-2.3799054622650146,1.5202052593231201,3.415468692779541
1783246187615636200,4.41463623046875,-2.476179361343384,1.7455822229385376,3.280419111251831
1783246187625648000,4.424648193359375,-2.491429567337036,2.3101742267608643,3.107672929763794
1783246187635660300,4.434660400390625,-2.455176591873169,2.8320343494415283,3.020256280899048
1783246187645672200,4.444672119140625,-2.4076950550079346,3.0891592502593994,3.0148046016693115
1783246187655683000,4.45468310546875,-2.3539695739746094,2.8687117099761963,3.043389081954956
1783246187665695000,4.464695068359375,-2.2998669147491455,2.127864122390747,3.1510088443756104
1783246187675707100,4.47470703125,-2.058131694793701,1.2489209175109863,3.2649085521698
1783246187685719000,4.484718994140625,-1.5436241626739502,0.5821548700332642,3.1952829360961914
1783246187695731200,4.494731201171875,-0.9862515926361084,0.05033682659268379,2.9221858978271484
1783246187705742000,4.5047421875,-0.5983225107192993,-0.28739383816719055,2.650834321975708
1783246187715754000,4.51475390625,-0.4248189330101013,-0.3227986693382263,2.5012106895446777
1783246187725766100,4.52476611328125,-0.3210587203502655,0.06261053681373596,2.3517234325408936
1783246187735778000,4.534778076171875,-0.08235698938369751,0.861850917339325,1.9863051176071167
1783246187745789000,4.544788818359375,0.5654332041740417,0.5659691691398621,1.2805981636047363
1783246187755801000,4.554801025390625,1.147879719734192,0.10395509749650955,0.7452272772789001
1783246187765813000,4.56481298828125,1.4038276672363281,-0.5390174984931946,0.10286137461662292
1783246187775825000,4.574824951171875,1.3814786672592163,-1.3440678119659424,-0.7660803198814392
1783246187785837000,4.584837158203125,1.1987075805664062,-1.7695109844207764,-1.5742381811141968
1783246187795848200,4.59484814453125,0.982105016708374,-1.6757838726043701,-2.2036330699920654
1783246187805860000,4.604860107421875,0.7086161971092224,-1.425255298614502,-2.6607604026794434
1783246187815872000,4.6148720703125,0.3498712182044983,-1.0935617685317993,-2.8599014282226562
1783246187825884200,4.62488427734375,-0.021123364567756653,-0.7079413533210754,-2.6975088119506836
1783246187835895000,4.63489501953125,-0.3258776366710663,-0.28465068340301514,-2.160170078277588
1783246187845907000,4.644906982421875,-0.5135508179664612,0.20386278629302979,-1.386385440826416
1783246187855919000,4.654919189453125,-0.48250386118888855,0.5420207381248474,-0.5306721329689026
1783246187865931000,4.664930908203125,-0.27384066581726074,0.5505295395851135,0.20307452976703644
1783246187875943000,4.67494287109375,-0.11181709915399551,0.1735023707151413,0.668364942073822
1783246187885954000,4.6849541015625,-0.1159423366189003,-0.4724947512149811,0.8542591333389282
1783246187895966000,4.694966064453125,-0.3012678325176239,-1.148104190826416,0.8017967939376831
1783246187905977900,4.704977783203125,-0.5553930997848511,-1.4776791334152222,0.5137317180633545
1783246187915990000,4.714989990234375,-0.8337530493736267,-1.3421425819396973,0.053268469870090485
1783246187926001200,4.725001220703125,-1.0951873064041138,-0.7497296333312988,-0.4753378629684448
1783246187936013000,4.735012939453125,-1.2523436546325684,0.08667124062776566,-0.9283765554428101
1783246187946025200,4.745025146484375,-1.2846510410308838,0.869263231754303,-1.2049006223678589
1783246187956037000,4.755037109375,-1.208094835281372,1.345585823059082,-1.233141303062439
1783246187966049000,4.765049072265625,-1.0979467630386353,1.279515266418457,-1.0052849054336548
1783246187976060200,4.77506005859375,-1.0314114093780518,0.7982290983200073,-0.6009840965270996
1783246187986072000,4.785072021484375,-0.9824329614639282,0.17834186553955078,-0.12976330518722534
1783246187996084000,4.795083984375,-0.8950878977775574,-0.3560626804828644,0.32490813732147217
1783246188006096100,4.80509619140625,-0.7934667468070984,-0.6875420212745667,0.6979770660400391
1783246188016107000,4.81510693359375,-0.6876508593559265,-0.7397826313972473,0.9048296213150024
1783246188026119000,4.825118896484375,-0.5627871751785278,-0.5282269716262817,0.9332157373428345
1783246188036131000,4.835131103515625,-0.43571752309799194,-0.10560313612222672,0.8410384654998779
1783246188046143000,4.84514306640625,-0.3469884395599365,0.29434266686439514,0.7235118746757507
1783246188056155000,4.85515478515625,-0.3117721378803253,0.4749896824359894,0.6519529223442078
1783246188066166300,4.865166259765625,-0.2605249285697937,0.41626936197280884,0.6469731330871582
1783246188076178200,4.87517822265625,-0.19452151656150818,0.13281704485416412,0.7103449702262878
1783246188086190000,4.885190185546875,-0.15259644389152527,-0.30740639567375183,0.8034043312072754
1783246188096202200,4.8952021484375,-0.16625207662582397,-0.7756527066230774,0.92796391248703
1783246188106214100,4.905214111328125,-0.21296657621860504,-0.9655541777610779,1.0486726760864258
1783246188116225000,4.91522509765625,-0.2640499174594879,-0.697041928768158,1.0253366231918335
1783246188126237200,4.9252373046875,-0.2764810025691986,-0.0839923843741417,0.7839370369911194
1783246188136249000,4.9352490234375,-0.15875723958015442,0.7632390856742859,0.49962708353996277
1783246188146261000,4.945260986328125,0.04384592920541763,1.469669222831726,0.38159552216529846
1783246188156272000,4.955272216796875,0.0645776242017746,1.6143908500671387,0.4721539318561554
1783246188166284000,4.965283935546875,-0.23050621151924133,1.1949714422225952,0.6814850568771362
1783246188176296000,4.9752958984375,-0.8072593808174133,0.5300710201263428,0.881133496761322
1783246188186308000,4.98530810546875,-1.3287596702575684,-0.2401558756828308,0.8988592624664307
1783246188196320000,4.995320068359375,-1.6367812156677246,-0.6671971678733826,0.7249509692192078
1783246188206331100,5.0053310546875,-1.5726590156555176,-0.4592854976654053,0.6291413307189941
1783246188216343000,5.015343017578125,-1.113078236579895,0.034346990287303925,0.7576413750648499
1783246188226355200,5.025355224609375,-0.5498358607292175,0.2654888927936554,1.1641242504119873
1783246188236367000,5.0353671875,-0.0760178193449974,0.175802543759346,1.9224975109100342
1783246188246378000,5.0453779296875,0.2640542685985565,-0.14090216159820557,2.7980830669403076
1783246188256390100,5.05539013671875,0.4172218143939972,-0.5748782157897949,3.4541683197021484
1783246188266402000,5.065402099609375,0.43347054719924927,-1.0672893524169922,3.4745254516601562
1783246188276414200,5.075414306640625,0.4763459861278534,-1.506051778793335,2.599085807800293
1783246188286426000,5.085426025390625,0.6046887636184692,-1.6231350898742676,1.002623438835144
1783246188296437000,5.09543701171875,0.6709017753601074,-1.2803518772125244,-0.8172517418861389
1783246188306449200,5.10544921875,0.5519335865974426,-0.561565637588501,-2.3931758403778076
1783246188316461000,5.1154609375,0.30277660489082336,0.18585331737995148,-3.5909132957458496
1783246188326473000,5.125472900390625,-0.01848263293504715,0.8031131029129028,-4.437762260437012
1783246188336483800,5.13548388671875,-0.3750782907009125,1.1756045818328857,-4.808560371398926
1783246188346496000,5.14549609375,-0.6449161171913147,1.1800731420516968,-4.587184906005859
1783246188356508000,5.1555078125,-0.6945064067840576,0.8056419491767883,-3.798173427581787
1783246188366520000,5.16552001953125,-0.46341437101364136,0.2415282428264618,-2.5523293018341064
1783246188376532000,5.175531982421875,-0.07440261542797089,-0.2300030142068863,-1.0884507894515991
1783246188386542800,5.18554296875,0.30271485447883606,-0.5425675511360168,0.21902680397033691
1783246188396554800,5.1955546875,0.5430206060409546,-0.7301369309425354,1.1315337419509888
1783246188406567000,5.20556689453125,0.6659665107727051,-0.717322587966919,1.634818196296692
1783246188416578800,5.215578857421875,0.6934719085693359,-0.5497854948043823,1.697924256324768
1783246188426589700,5.225589599609375,0.6549232006072998,-0.27614840865135193,1.4190627336502075
1783246188436601900,5.235601806640625,0.49532341957092285,0.04675615206360817,0.9654587507247925
1783246188446613800,5.24561376953125,0.26636481285095215,0.3690654933452606,0.46883004903793335
1783246188456625700,5.255625732421875,0.08588377386331558,0.6487150192260742,0.030319493263959885
1783246188466637800,5.265637939453125,-0.025433963164687157,0.8745662569999695,-0.2741061747074127
1783246188476648700,5.275648681640625,-0.10442709177732468,0.9494284391403198,-0.4226239025592804
1783246188486660600,5.28566064453125,-0.16938930749893188,0.8812882900238037,-0.435579389333725
1783246188496672800,5.2956728515625,-0.215837761759758,0.6878051161766052,-0.356305330991745
1783246188506684700,5.3056845703125,-0.246487557888031,0.420185387134552,-0.21981139481067657
1783246188516695800,5.31569580078125,-0.2788032591342926,0.14532895386219025,-0.09397675842046738
1783246188526708000,5.3257080078125,-0.2940019369125366,-0.05303393304347992,-0.02004660852253437
1783246188536720000,5.335719970703125,-0.266210675239563,-0.11245188117027283,-0.027918577194213867
1783246188546731800,5.345731689453125,-0.18076342344284058,-0.06630568951368332,-0.11342468857765198
1783246188556744000,5.355743896484375,-0.08758696913719177,0.009944764897227287,-0.23918843269348145
1783246188566754800,5.3657548828125,-0.05898968130350113,0.07142943143844604,-0.3413321077823639
1783246188576766700,5.3757666015625,-0.06500139087438583,0.10251767933368683,-0.37883874773979187
1783246188586779000,5.38577880859375,-0.0671771913766861,0.10769753158092499,-0.36756452918052673
1783246188596790800,5.395790771484375,-0.05033231899142265,0.12579168379306793,-0.3382267653942108
1783246188606802700,5.405802734375,-0.01041526347398758,0.1591949164867401,-0.2892139256000519
1783246188616813600,5.4158134765625,0.027294877916574478,0.2693840563297272,-0.17305639386177063
1783246188626825700,5.42582568359375,0.07729493081569672,0.40103715658187866,-0.015190600417554379
1783246188636837600,5.435837646484375,0.14681455492973328,0.4032880365848541,0.08558440953493118
1783246188646849800,5.445849853515625,0.18611055612564087,0.2866556942462921,0.1457795798778534
1783246188656861000,5.45586083984375,0.16983799636363983,0.12477558106184006,0.21391935646533966
1783246188666872800,5.465872802734375,0.12777283787727356,-0.06976966559886932,0.25650328397750854
1783246188676885000,5.475885009765625,0.07454602420330048,-0.24104857444763184,0.2634391784667969
1783246188686897000,5.48589697265625,0.03544975444674492,-0.30854055285453796,0.2732659876346588
1783246188696908800,5.49590869140625,0.0020181264262646437,-0.22694623470306396,0.3119520843029022
1783246188706919700,5.505919677734375,-0.057769306004047394,-0.013242739252746105,0.32254934310913086
1783246188716931800,5.515931884765625,-0.176762655377388,0.22392523288726807,0.2721669673919678
1783246188726943700,5.52594384765625,-0.3570682406425476,0.43881461024284363,0.28441113233566284
1783246188736956000,5.535955810546875,-0.5974430441856384,0.5656380653381348,0.5793887376785278
1783246188746966800,5.545966796875,-0.8159325122833252,0.44096511602401733,1.1144835948944092
1783246188756978700,5.555978759765625,-0.9350465536117554,-0.022175777703523636,1.6020876169204712
1783246188766990600,5.565990478515625,-0.9567782282829285,-0.6178132891654968,1.8281193971633911
1783246188777002800,5.576002685546875,-0.8155251145362854,-1.0473196506500244,1.8254643678665161
1783246188787014700,5.5860146484375,-0.4467009902000427,-1.1783548593521118,1.6176332235336304
1783246188797025800,5.59602587890625,-0.017613543197512627,-1.0089945793151855,1.2190337181091309
1783246188807038000,5.606037841796875,0.4067896902561188,-0.6499139070510864,0.8504668474197388
1783246188817049900,5.6160498046875,0.827355146408081,-0.4491417407989502,0.7852199673652649
1783246188827061800,5.626061767578125,1.014544129371643,-0.6994042992591858,0.8743839263916016
1783246188837073000,5.636072998046875,0.8268847465515137,-1.1773324012756348,0.8818649649620056
1783246188847084800,5.646084716796875,0.49717873334884644,-1.5459946393966675,0.5906887650489807
1783246188857096700,5.6560966796875,0.21545784175395966,-1.649459958076477,-0.018156860023736954
1783246188867108900,5.66610888671875,-0.02067718654870987,-1.4087485074996948,-0.745029628276825
1783246188877120800,5.676120849609375,-0.12985870242118835,-0.891565203666687,-1.509848952293396
1783246188887131600,5.686131591796875,-0.11915465444326401,-0.32159286737442017,-2.2948193550109863
1783246188897143800,5.696143798828125,-0.081306591629982,0.18609780073165894,-2.917508125305176
1783246188907155700,5.70615576171875,0.013239089399576187,0.5266079306602478,-3.0803802013397217
1783246188917167600,5.716167724609375,0.14558528363704681,0.539832353591919,-2.7553181648254395
1783246188927178800,5.7261787109375,0.25639277696609497,0.29043182730674744,-2.065049648284912
1783246188937190700,5.736190673828125,0.26718950271606445,-0.023599877953529358,-1.1692821979522705
1783246188947202600,5.74620263671875,0.10870503634214401,-0.15422339737415314,-0.30645468831062317
1783246188957214700,5.756214599609375,-0.08742185682058334,-0.05001923441886902,0.2148565649986267
1783246188967226600,5.7662265625,-0.2522773742675781,0.11578118056058884,0.37222087383270264
1783246188977237800,5.77623779296875,-0.31053808331489563,0.31890228390693665,0.3411913812160492
1783246188987250000,5.78625,-0.27538490295410156,0.5257254838943481,0.19821639358997345
1783246188997261800,5.79626171875,-0.2216562032699585,0.6443221569061279,0.020876724272966385
1783246189007273700,5.806273681640625,-0.19930189847946167,0.6676567196846008,-0.10524553060531616
1783246189017284900,5.816284912109375,-0.23743757605552673,0.6297836899757385,-0.15070036053657532
1783246189027296800,5.826296875,-0.29009971022605896,0.5819231867790222,-0.13926661014556885
1783246189037308700,5.83630859375,-0.3135184943675995,0.5333908200263977,-0.11570935696363449
1783246189047320800,5.84632080078125,-0.2829752266407013,0.48052361607551575,-0.08418844640254974
1783246189057332700,5.856332763671875,-0.21857906877994537,0.4521709084510803,-0.04038052633404732
1783246189067343600,5.866343505859375,-0.1676085740327835,0.407440721988678,-0.007614056579768658
1783246189077355800,5.876355712890625,-0.14584720134735107,0.3075401186943054,-0.012539971619844437
1783246189087367700,5.88636767578125,-0.1646275371313095,0.18727070093154907,-0.02254759706556797
1783246189097379600,5.896379638671875,-0.19086484611034393,0.10537706315517426,-0.046473920345306396
1783246189107391000,5.906390869140625,-0.20724834501743317,0.020297592505812645,-0.09406620264053345
1783246189117403000,5.91640283203125,-0.18490533530712128,-0.0256164763122797,-0.12712815403938293
1783246189127414800,5.926414794921875,-0.11539576202630997,0.0037323585711419582,-0.11799617111682892
1783246189137427000,5.936427001953125,-0.02743586152791977,0.08373899012804031,-0.08292876929044724
1783246189147438800,5.94643896484375,0.07955849915742874,0.16973060369491577,-0.009462540037930012
1783246189157449700,5.95644970703125,0.17546992003917694,0.22646982967853546,0.09160011261701584
1783246189167462000,5.9664619140625,0.21427829563617706,0.1740039587020874,0.19993536174297333
1783246189177473800,5.976473876953125,0.16708189249038696,0.03455434739589691,0.31219345331192017
1783246189187485700,5.986485595703125,0.05153399705886841,-0.13374118506908417,0.4227396845817566
1783246189197496600,5.99649658203125,-0.05926623195409775,-0.2602013647556305,0.5270799994468689
1783246189207508700,6.0065087890625,-0.11285914480686188,-0.24896706640720367,0.5958159565925598
1783246189217520600,6.016520751953125,-0.09944795817136765,-0.1318150758743286,0.6423629522323608
1783246189227532800,6.02653271484375,-0.01011834479868412,0.0276962798088789,0.6845908164978027
1783246189237544700,6.036544677734375,0.09975361824035645,0.17654652893543243,0.7211747765541077
1783246189247555800,6.046555908203125,0.14380256831645966,0.328342467546463,0.6787322163581848
1783246189257568000,6.056568115234375,0.04735753685235977,0.5180838704109192,0.5809566974639893
1783246189267580000,6.066579833984375,-0.21039651334285736,0.6158668994903564,0.5631140470504761
1783246189277591800,6.076591796875,-0.5878267288208008,0.43011024594306946,0.6799337267875671
1783246189287602700,6.086602783203125,-0.9847293496131897,0.07795406877994537,0.8835249543190002
1783246189297614800,6.09661474609375,-1.3047401905059814,-0.19295480847358704,1.0420787334442139
1783246189307626800,6.106626708984375,-1.4380966424942017,-0.3902229070663452,0.877213716506958
1783246189317639000,6.116638916015625,-1.3791115283966064,-0.4227553606033325,0.2978600859642029
1783246189327650800,6.12665087890625,-1.2886085510253906,-0.13318398594856262,-0.4013161063194275
1783246189337661700,6.13666162109375,-1.1449346542358398,0.35569891333580017,-0.8318189978599548
1783246189347673600,6.146673583984375,-0.8799472451210022,0.7871443033218384,-0.5659968852996826
1783246189357685800,6.156685791015625,-0.4082786738872528,0.9549654126167297,0.5693739652633667
1783246189367697700,6.16669775390625,0.1464655101299286,0.8236904740333557,2.226039409637451
1783246189377709800,6.176709716796875,0.5666931867599487,0.4196080267429352,3.6397581100463867
1783246189387720700,6.186720703125,0.7525861263275146,-0.12286483496427536,4.2682695388793945
1783246189397732600,6.196732666015625,0.7610042691230774,-0.628669261932373,4.020961761474609
1783246189407744800,6.206744873046875,0.7222896218299866,-1.0829342603683472,2.9703190326690674
1783246189417756700,6.216756591796875,0.7527124881744385,-1.456369161605835,1.0952975749969482
1783246189427767800,6.226767822265625,0.7930750846862793,-1.4589964151382446,-1.3281960487365723
1783246189437779700,6.23677978515625,0.7411515116691589,-0.8054823279380798,-3.515002489089966
1783246189447791600,6.24679150390625,0.6249104142189026,-0.030117854475975037,-4.77902889251709
1783246189457803800,6.2568037109375,0.41299039125442505,0.3800291419029236,-4.867919921875
1783246189467815700,6.266815673828125,0.2066417783498764,0.30241718888282776,-3.931518316268921
1783246189477826600,6.27682666015625,0.08968622237443924,-0.21386019885540009,-2.5232481956481934
1783246189487838700,6.286838623046875,0.10354159027338028,-0.8187769651412964,-1.2341406345367432
1783246189497850600,6.2968505859375,0.25493210554122925,-1.1267915964126587,-0.2857900559902191
1783246189507862800,6.30686279296875,0.49549946188926697,-1.071625828742981,0.3469035029411316
1783246189517873700,6.316873779296875,0.6734821796417236,-0.7037203311920166,0.6530662775039673
1783246189527885600,6.326885498046875,0.7141430377960205,-0.16111400723457336,0.5925206542015076
1783246189537897500,6.3368974609375,0.6100493669509888,0.35427606105804443,0.1984071284532547
1783246189547909600,6.34690966796875,0.3965567946434021,0.6751123666763306,-0.3150266110897064
1783246189557921500,6.356921630859375,0.1775664985179901,0.7857255339622498,-0.7108105421066284
1783246189567932700,6.3669326171875,0.06629058718681335,0.7587046027183533,-0.8756072521209717
1783246189577944800,6.37694482421875,0.04089024290442467,0.6822232007980347,-0.7910501956939697
1783246189587956700,6.386956787109375,0.06573434174060822,0.5936757922172546,-0.5328429341316223
1783246189597968600,6.39696875,0.12178787589073181,0.4827325940132141,-0.117896169424057
1783246189607979800,6.406979736328125,0.1587325632572174,0.37473902106285095,0.3969179093837738
1783246189617991700,6.41699169921875,0.1622162014245987,0.22711703181266785,0.9254377484321594
1783246189628003600,6.427003662109375,0.10757425427436829,0.03993222862482071,1.3096905946731567
1783246189638015700,6.437015625,0.01618916541337967,-0.09667813032865524,1.4654483795166016
1783246189648027600,6.447027587890625,-0.09701462090015411,-0.21502822637557983,1.3614740371704102
1783246189658038500,6.45703857421875,-0.19966185092926025,-0.23742827773094177,1.0511499643325806
1783246189668050700,6.46705078125,-0.24650418758392334,-0.11336145550012589,0.6356867551803589
1783246189678062600,6.4770625,-0.2474638968706131,0.06732586771249771,0.26947346329689026
1783246189688074500,6.487074462890625,-0.24420709908008575,0.12779293954372406,0.12035107612609863
1783246189698086000,6.4970859375,-0.2934877276420593,0.026157770305871964,0.264838844537735
1783246189708097800,6.507097900390625,-0.3284459710121155,-0.2861417829990387,0.31369879841804504
1783246189718109700,6.517109619140625,-0.32863980531692505,-0.4272187054157257,0.40180331468582153
1783246189728121900,6.527121826171875,-0.24459122121334076,-0.3383769989013672,0.39071497321128845
1783246189738133800,6.5371337890625,-0.15915706753730774,0.05338093638420105,0.3236614167690277
1783246189748144600,6.54714453125,-0.11330568045377731,0.46923619508743286,0.2797698378562927
1783246189758156800,6.55715673828125,-0.09894109517335892,0.7443662881851196,0.1791726052761078
1783246189768168700,6.567168701171875,-0.0026912568137049675,0.9219863414764404,0.10252523422241211
1783246189778180600,6.5771806640625,0.18646439909934998,0.9200564622879028,0.18223747611045837
1783246189788191700,6.587191650390625,0.37297195196151733,0.5190075635910034,0.2232288420200348
