time,seconds_elapsed,z,y,x
1783246111879086000,0.063086181640625,-0.18149580031335352,-0.23704700714349744,-0.36085820532720536
1783246111889097000,0.073096923828125,-0.3988496804714203,-0.178839148324728,-0.4126296378903091
1783246111899108900,0.08310888671875,-0.3690776425421238,-0.14381781156510115,-0.4656412067076191
1783246111909121000,0.09312109375,-0.29407179365754127,-0.16977438285946844,-0.5792362409012392
1783246111919133000,0.1031328125,-0.18413491664528844,-0.3549737138658762,-0.7728704054389148
1783246111929143800,0.113143798828125,0.06703063222169876,-0.48638621736615895,-0.817310289537534
1783246111939155700,0.12315576171875,0.23596739521324633,-0.44166035593301056,-0.586983092168346
1783246111949167900,0.13316796875,0.30262042629420755,0.04897650461494922,-0.15369895318085328
1783246111959179800,0.1431796875,0.5824409917593002,0.5702496187061071,0.42861477720327673
1783246111969192000,0.15319189453125,1.1717547918975353,1.2729732326641678,1.3111490879319607
1783246111979203000,0.163203125,1.34769061999619,1.1832844861716032,1.8690543349802493
1783246111989215000,0.173215087890625,1.406029996240139,-0.063203182888031,1.464927444758266
1783246111999227000,0.183226806640625,1.5278209771752356,-0.5414730215549469,1.189905657877028
1783246112009239000,0.193239013671875,1.6200018327444792,-0.48669689075052736,0.6252342776946723
1783246112019250000,0.20325,1.6396756705075501,-0.3593465221226215,-0.33483225859105586
1783246112029261800,0.21326171875,1.6062117923229933,-0.01421791044473648,-1.0107779749345034
1783246112039274000,0.22327392578125,0.9641238488525151,0.16290128221958874,-0.8553317579612135
1783246112049286000,0.233285888671875,0.27356676576733585,0.407503819309175,-0.44317587506249545
1783246112059297800,0.2432978515625,-0.10869418347477912,0.6859872909516096,0.1698679794270545
1783246112069309000,0.253308837890625,-0.03483984271287918,0.7891404991731047,0.6717607588090002
1783246112079320800,0.26332080078125,0.2600754160314798,0.3993023926749825,0.890830210713297
1783246112089332700,0.273332763671875,0.31720717005133625,0.06510784746557474,0.4646453640706837
1783246112099345000,0.283344970703125,0.6023731881976128,0.19416005157530306,-0.039321956562995905
1783246112109356000,0.29335595703125,0.9801245510607958,0.6384475411415099,-0.5757789035215973
1783246112119368000,0.303367919921875,0.7051186924010515,0.997030385415256,-1.410687905048579
1783246112129380000,0.313380126953125,0.639642888405919,0.9086562286525964,-1.8988228657782076
1783246112139392000,0.32339208984375,1.047625723403692,0.804626822118461,-1.7071021701790392
1783246112149404000,0.33340380859375,1.1897346852242945,0.623542525215447,-1.2222088217191398
1783246112159415000,0.3434150390625,1.1714572702556847,0.2972039542034268,-0.7075555641591549
1783246112169427000,0.353427001953125,1.0309516519784927,0.19834172117412088,-0.6115607032597065
1783246112179438800,0.36343896484375,0.5608300484538078,0.5060241070330143,-1.0289791828617454
1783246112189451000,0.373450927734375,0.7173188332825898,0.8302800265520811,-1.331144266603887
1783246112199462000,0.3834619140625,1.452546832743287,1.1319570345163346,-1.0096700867578388
1783246112209473800,0.393473876953125,2.298709488081932,1.3557956005185843,-0.37290567639768124
1783246112219486000,0.40348583984375,2.96479965390861,1.4880556607589124,0.3488733511641621
1783246112229497900,0.413497802734375,3.1760867813736198,1.4921359158098697,0.8356231411457061
1783246112239509800,0.423509765625,3.134786218214035,1.501548179538548,0.84589202170372
1783246112249521000,0.43352099609375,3.012109686616063,1.4622469735026358,0.6033543081894517
1783246112259533000,0.443532958984375,2.6610978621184826,1.2993652727663516,0.520855180940032
1783246112269545000,0.453544921875,1.976884010580182,1.0301000035852192,0.8324199611902237
1783246112279556900,0.463556884765625,1.4593378080576658,0.692133538621664,1.3441232829034329
1783246112289568000,0.473568115234375,1.222545067936182,0.2588257082313299,1.9404291338860988
1783246112299580000,0.483579833984375,1.0366922414571047,-0.2231248647749424,2.475387074458599
1783246112309591300,0.49359130859375,1.2005319735705853,-0.6079506960690021,2.724277079609036
1783246112319603200,0.503603271484375,1.8695745594620703,-0.34714053602218625,2.1005627049580213
1783246112329615400,0.513615478515625,2.8902193369597193,-0.04015139312446117,0.8262091238513588
1783246112339626200,0.523626220703125,4.032019720098376,-0.09913812736123799,0.6089426297158003
1783246112349638100,0.53363818359375,5.757462872001528,0.3260580005049705,0.7428171394154429
1783246112359650300,0.543650390625,6.261261704200506,0.961621218381822,1.2286965763032436
1783246112369662200,0.553662109375,6.004283669662475,1.5313810077443717,1.9027742337524889
1783246112379673300,0.56367333984375,5.531846774932742,1.7895321777150033,2.6155206445530057
1783246112389685500,0.573685546875,4.278396865645051,1.5433178215146064,2.54991069278419
1783246112399697400,0.583697509765625,2.693521875861287,1.0673106670826673,1.4482503045931459
1783246112409709300,0.593709228515625,0.9450655126392841,0.28658523729443547,0.19300211371183396
1783246112419721500,0.603721435546875,-2.5882939071923494,-0.7967796157494187,-1.1248013175427913
1783246112429732400,0.613732421875,-10.69010339833498,-1.3233154726743697,-0.7349123576402664
1783246112439744300,0.623744140625,-8.91718888568282,-0.8129705798327922,-2.3970395139306784
1783246112449756400,0.63375634765625,-11.795325570660829,1.3026909100577235,-3.905262348927557
1783246112459768300,0.643768310546875,-12.506745993554592,2.2976608558118343,-5.529456080403923
1783246112469779200,0.653779296875,-12.937590064179897,1.9650527030110359,-6.7527230328738685
1783246112479791400,0.663791259765625,-11.686666458499431,0.5194032285660505,-6.631079351454972
1783246112489803300,0.67380322265625,-9.783197228220105,-1.4433406129807234,-5.8467573584795
1783246112499815200,0.683815185546875,-9.104094436085223,-2.8379055046156045,-5.3465854846060274
1783246112509827300,0.693827392578125,-9.14852569848597,-3.6712580704808233,-5.493688601452112
1783246112519838200,0.703838134765625,-10.19673185212612,-4.17141270095855,-6.223835936647653
1783246112529850400,0.713850341796875,-11.905663429689406,-4.328235540047288,-7.074287229090928
1783246112539862300,0.7238623046875,-13.430906665331124,-4.221260435450077,-7.747419130122661
1783246112549874400,0.73387451171875,-13.911882840347289,-3.930336292168498,-7.59609401166737
1783246112559885300,0.74388525390625,-13.126035245239734,-3.505480356042087,-6.410064026179909
1783246112569897200,0.753897216796875,-11.47922197793722,-3.120791010609269,-4.741237664511799
1783246112579909400,0.763909423828125,-9.471665181195736,-2.5658850915074347,-3.1831910604208704
1783246112589921300,0.77392138671875,-7.555094477280974,-1.903367231209576,-2.1239017872303725
1783246112599933400,0.783933349609375,-5.326451628115773,-1.2573336188532411,-1.2569868512421845
1783246112609944300,0.7939443359375,-1.4434674542307853,-0.6539426319152116,0.08970891249775886
1783246112619956200,0.803956298828125,-1.4775275447428227,-0.9524980007275938,0.8060083396047353
1783246112629968400,0.813968505859375,-3.191020146611333,-1.3773662118136882,1.1588953103244304
1783246112639980300,0.823980224609375,-1.2280536022245883,-0.8322451891452074,1.9912281777530907
1783246112649991200,0.8339912109375,1.5255588774621485,-0.39689854640364647,3.0264567763984203
1783246112660003000,0.844003173828125,3.4176422058522697,-0.5195780006110667,3.6797675401508805
1783246112670015200,0.85401513671875,4.847228434246778,-0.6496767911642789,4.36165207195878
1783246112680027100,0.864027099609375,5.700975261104107,-0.3618152503237128,5.170793448892235
1783246112690039300,0.874039306640625,6.014125849241018,0.09391747010350227,5.650657863274216
1783246112700050400,0.884050537109375,5.819248004785179,0.6338964537084102,5.90621141796708
1783246112710062300,0.894062255859375,5.788661143341661,1.1316524986118077,5.939905597776174
1783246112720074200,0.90407421875,5.864460188430547,1.5988316189438103,6.089051034104823
1783246112730086400,0.91408642578125,5.9801399930089705,2.049337836894393,6.423222198438644
1783246112740097300,0.92409716796875,6.262545898792148,2.4442466707855464,6.771988289836049
1783246112750109200,0.934109130859375,6.685799368157983,2.681358267597854,7.187355389866233
1783246112760121300,0.944121337890625,7.143443182903527,2.931780596882105,7.574913276472687
1783246112770133200,0.95413330078125,7.511262349817156,3.2423551970511673,7.928482968759536
1783246112780145400,0.9641455078125,7.6249097717851395,3.501037112897634,8.202517936560511
1783246112790156300,0.97415625,7.5831223018914455,3.7517461501687763,8.328772326645254
1783246112800168200,0.984168212890625,7.439249837529659,3.9699014098376035,8.44666746918559
1783246112810180000,0.99418017578125,7.190111995097994,4.050751016314328,8.435408408546447
1783246112820192300,1.004192138671875,6.734206548452377,3.8847950226992367,8.316763324421643
1783246112830203400,1.014203369140625,6.3042445213586085,3.6087332252457736,8.130901730114221
1783246112840215300,1.02421533203125,6.043251990482211,3.2790769079878923,7.7086489622235295
1783246112850227500,1.0342275390625,5.89049128626585,3.0203385857790708,7.083466560846567
1783246112860239400,1.0442392578125,5.886401386603713,2.8436776582762597,6.479663047584891
1783246112870251300,1.054251220703125,5.9150704317271705,2.6455226918458936,5.993106442087888
1783246112880262400,1.064262451171875,5.985275017809868,2.4884452934741974,5.529041654384136
1783246112890274300,1.0742744140625,6.220211316409706,2.3778610584691164,5.212441802576184
1783246112900286200,1.0842861328125,6.396324839162826,2.42102069349885,5.0427626967847345
1783246112910298400,1.09429833984375,6.499498213389516,2.4449492660969496,4.977535314592719
1783246112920309200,1.104309326171875,6.673688659125566,2.274192009679973,4.815494740855693
1783246112930321200,1.114321044921875,6.74458882625699,1.9702309824317692,4.679399924758076
1783246112940333300,1.124333251953125,6.676977179276943,1.632210449193418,4.385488874620199
1783246112950345200,1.13434521484375,6.184526839566231,1.328266373080015,3.212356949150562
1783246112960357000,1.144357177734375,4.977375155594944,0.8810133117064833,1.3422089737147092
1783246112970368500,1.154368408203125,3.6320921812623737,0.27695816177129745,-0.6467950982481241
1783246112980380400,1.16438037109375,2.405212883514166,-0.09511720128208398,-2.513371644937992
1783246112990392300,1.174392333984375,0.930048560771346,-0.35740766301453114,-4.499167276248335
1783246113000404500,1.184404541015625,-1.043778400325775,-0.47489422475397586,-6.430668422791362
1783246113010415400,1.194415283203125,-3.650701020142436,-0.8196919970422982,-7.4530164970755575
1783246113020427300,1.20442724609375,-7.2052931976169345,-2.0688836643636224,-7.581449400243162
1783246113030439400,1.214439453125,-10.224239452254771,-3.641095571929216,-8.2778861890167
1783246113040451300,1.224451416015625,-12.579016279995441,-4.722657174943388,-9.61466436985433
1783246113050463200,1.234463134765625,-16.501427039861678,-5.918342585265636,-10.78454460005164
1783246113060474400,1.244474365234375,-21.864761414694783,-7.062216852068901,-12.827745541626214
1783246113070486300,1.254486328125,-26.31538590157032,-7.847689184123277,-16.107426552987096
1783246113080498200,1.264498291015625,-27.783520179545878,-8.070058846616744,-18.51427025257349
1783246113090510300,1.27451025390625,-25.465402226638794,-7.974460291558503,-18.594306496840716
1783246113100521200,1.284521240234375,-20.927592792785166,-7.919809832960366,-16.712264085471627
1783246113110533000,1.294533203125,-16.051774223870037,-7.913418670618533,-14.018925164961814
1783246113120545300,1.304545166015625,-11.894611289799213,-7.774726823765039,-11.554870800900458
1783246113130557200,1.31455712890625,-8.879625170964003,-7.401523625725507,-9.433912665906547
1783246113140569000,1.324569091796875,-6.587010492625832,-6.626822863054275,-7.332211604568362
1783246113150580500,1.33458056640625,-4.490272606652975,-5.476784812924265,-5.186560342344642
1783246113160592400,1.34459228515625,-2.5849101099729537,-4.244442573595046,-3.1304882287591695
1783246113170604300,1.354604248046875,-1.0090759202569723,-3.100719697961211,-1.3885013538122177
1783246113180616400,1.364616455078125,0.3934066126346588,-2.219532783253491,-0.07932195851802826
1783246113190627300,1.37462744140625,1.9290911627918481,-1.4333029108300803,1.0171423223346472
1783246113200639200,1.38463916015625,3.5167549065113066,-0.4500353855684399,2.1113123547703028
1783246113210651400,1.3946513671875,4.848592708337307,0.48486441462635993,3.3343998590201136
1783246113220663300,1.404663330078125,5.889363159018755,1.1599530026838183,4.653575747671723
1783246113230675200,1.41467529296875,6.469188999843597,1.4181088488295674,5.749418097233772
1783246113240686000,1.42468603515625,6.538405159410834,1.307039168395102,6.331659767028689
1783246113250698200,1.4346982421875,6.009281916341185,1.3520406318992375,6.731025580328702
1783246113260710100,1.444710205078125,5.044276023957133,1.8152634158208965,7.119147530558705
1783246113270722300,1.454722412109375,4.1191158197492355,2.510008890506625,7.38803461407721
1783246113280733400,1.4647333984375,3.528988949662447,3.2728850676104426,7.686850971913337
1783246113290745300,1.474745361328125,3.454181253698468,3.8878821750596164,7.968076728001236
1783246113300757500,1.484757568359375,3.756709325534105,4.31828084000498,8.260411907124519
1783246113310769700,1.494769775390625,4.258000558826327,4.764313419672846,8.5709911834687
1783246113320781600,1.504781494140625,4.778921206218004,5.104840090513229,8.879955425831675
1783246113330792700,1.514792724609375,5.210644397765398,5.33104538564682,9.092226888158917
1783246113340804600,1.5248046875,5.610405347862839,5.42877043133974,9.063898619297147
1783246113350816500,1.53481640625,5.90779897941947,5.226904627692699,8.941522531950474
1783246113360828700,1.54482861328125,6.0652200766623015,4.7724821130812165,8.791158367481827
1783246113370839600,1.554839599609375,6.015481940025091,4.184602437399327,8.379954232349991
1783246113380851500,1.5648515625,5.788427919107675,3.6045781513929365,7.819263300105929
1783246113390863600,1.574863525390625,5.290283751669525,3.0688138628736135,7.062368243238329
1783246113400875500,1.58487548828125,4.779765255826711,2.615905844478309,6.358842372986674
1783246113410887400,1.594887451171875,4.358038557636737,2.354987547881901,5.940101412609219
1783246113420898600,1.604898681640625,4.065505225592851,2.2243676560640333,5.734443815463781
1783246113430910500,1.614910400390625,4.058049064368009,2.194862160116434,5.691871332672238
1783246113440922600,1.624922607421875,4.209154402592778,2.21308083063513,5.712640564456581
1783246113450934500,1.6349345703125,4.3619501781225205,2.292411556981504,5.722291020855307
1783246113460945700,1.644945556640625,4.547367535793781,2.4376421579539773,5.721649215820431
1783246113470957600,1.65495751953125,4.786965396463871,2.549504157809913,5.690145824053883
1783246113480969700,1.6649697265625,5.039105927842855,2.451386021146178,5.517627110922336
1783246113490981600,1.674981689453125,5.188588048779964,2.2345126179814336,5.178045611977577
1783246113500993500,1.68499365234375,5.222601377540826,2.157630746091902,5.029803261968493
1783246113511004700,1.695004638671875,5.354833672991394,2.078511616669595,4.91253823402524
1783246113521016600,1.7050166015625,5.4781812357187265,2.138984205549955,4.813562896010279
1783246113531028500,1.715028564453125,5.314982139596343,2.1645815881431103,4.579570600262284
1783246113541040600,1.72504052734375,4.8070747030347585,1.7912500875487922,3.6581618575423955
1783246113551051500,1.735051513671875,4.098340158224105,1.0750786707356572,1.868355246800184
1783246113561063400,1.7450634765625,3.5153427016258236,0.34125118572264906,-0.06978548388779163
1783246113571075600,1.75507568359375,3.236756646391749,-0.2841340447500348,-1.8292951560437678
1783246113581087500,1.76508740234375,3.152031367525458,-0.7755883591607212,-3.7236926065951583
1783246113591099400,1.775099365234375,2.9048031581074,-1.2840887931793927,-5.178704952669143
1783246113601110800,1.78511083984375,1.4732061744123697,-1.659096118031442,-5.758216905239224
1783246113611122700,1.795122802734375,-1.9185235915482044,-1.981839002639055,-6.000259236451983
1783246113621134600,1.805134521484375,-7.377696175414323,-4.116462967152893,-7.3207573136180635
1783246113631146800,1.815146728515625,-15.12948752927184,-8.233654248580336,-10.262142189669609
1783246113641157600,1.82515771484375,-26.233833407521246,-11.7185766775012,-15.483704287290573
1783246113651169500,1.83516943359375,-36.42960196757316,-12.378651528561115,-22.231565267086026
1783246113661181700,1.845181640625,-39.84690865786075,-10.458223564696311,-26.145977429413794
1783246113671193600,1.855193603515625,-35.47553598687649,-7.590038949412107,-24.389879611527917
1783246113681205500,1.86520556640625,-26.698874346780777,-5.8457706855297085,-18.896168798244
1783246113691216400,1.87521630859375,-18.198163152718543,-5.453859279888868,-13.612804032182693
1783246113701228500,1.885228515625,-12.030592124128342,-5.629020031961798,-10.820173547315598
1783246113711240400,1.895240478515625,-8.659445711991191,-5.961662671554088,-9.740271694207191
1783246113721252600,1.905252685546875,-7.669283166518807,-5.8893701732814305,-8.873329870212078
1783246113731263700,1.915263671875,-7.351835757970809,-4.979122291523218,-7.392362998670339
1783246113741275600,1.925275634765625,-6.249946529459953,-3.656470543454587,-5.512251847624778
1783246113751287800,1.935287841796875,-3.862057705712318,-2.4767718068152664,-3.4970746390074487
1783246113761299700,1.9452998046875,-0.6442524280279874,-1.6024275976091622,-1.6520920844882725
1783246113771311600,1.9553115234375,2.377692423903942,-0.9665975454896688,-0.14704934083223342
1783246113781322500,1.965322509765625,4.609273080086708,-0.1744786150276661,1.1100129137337207
1783246113791334700,1.975334716796875,6.0455111675858495,0.9113304162979126,2.072514129820466
1783246113801346600,1.9853466796875,6.712122726938128,2.1171610807985064,2.8743215106040236
1783246113811358700,1.995358642578125,7.027949840807914,3.269913358323276,3.614853461691737
1783246113821370600,2.00537060546875,7.245909870165586,4.264051529428363,4.478351282712817
1783246113831381500,2.015381591796875,7.4004925291121,4.936397248518467,5.351033696186542
1783246113841393400,2.025393310546875,7.494816826450824,5.340757216843962,6.340612888813018
1783246113851405600,2.035405517578125,7.581707174396515,5.443855772268772,7.220977088961005
1783246113861417500,2.04541748046875,7.710215480887889,5.4021513044834135,7.779398907229304
1783246113871428600,2.0554287109375,7.996199245157837,5.436256987702846,7.918922528731822
1783246113881440500,2.0654404296875,8.341752804249525,5.464819649842381,7.650964835017919
1783246113891452700,2.07545263671875,8.690660934466123,5.437184039419889,7.243034606990218
1783246113901464600,2.085464599609375,9.080442926862835,5.351904049280286,6.780367411124706
1783246113911475700,2.095475830078125,9.39209713896215,5.233279423421621,6.495169244274496
1783246113921487600,2.105487548828125,9.676932902240752,5.272991256085038,6.4205883428037165
1783246113931499500,2.11549951171875,9.783889886659383,5.315251604187488,6.470867162188887
1783246113941511700,2.12551171875,9.68708429389894,5.240403576213121,6.649599343007803
1783246113951523600,2.135523681640625,9.349001509079336,5.086891761368513,6.812884363847971
1783246113961534500,2.145534423828125,8.728370779657363,4.86401064222157,6.822709592291712
1783246113971546600,2.155546630859375,7.99986887358129,4.677090478771925,6.611702450811863
1783246113981558500,2.16555859375,7.2092638548135755,4.371595081563294,6.131138363727927
1783246113991570400,2.1755703125,6.39572161257267,3.9760371361136433,5.673545402386784
1783246114001582600,2.18558251953125,5.718245544856787,3.6977988714039323,5.465009034934639
1783246114011593500,2.195593505859375,5.290999206462502,3.4766245561748743,5.365096123808622
1783246114021605400,2.20560546875,5.019581727683544,3.2784105530336496,5.246785386204719
1783246114031617500,2.215617431640625,4.783664601352811,3.152477065466344,5.162293331572413
1783246114041629400,2.22562939453125,4.652652787607908,3.061410600879788,5.065884629175066
1783246114051640600,2.235640625,4.66413688917458,3.0627672761857507,4.9910757641673085
1783246114061652700,2.24565283203125,4.792975450533628,3.1274738493740557,4.930490070301294
1783246114071664600,2.25566455078125,4.978008192801475,3.2303497019588945,4.966549810197949
1783246114081676500,2.265676513671875,5.204724360066652,3.280185746012628,5.050580092537403
1783246114091688700,2.275688720703125,5.30101791165173,3.270406987059116,4.975969964972138
1783246114101699600,2.285699462890625,5.178452439212799,3.071198127661645,4.450075620821118
1783246114111711500,2.29571142578125,4.666186807441711,2.532321844601631,3.2863971678733823
1783246114121723600,2.3057236328125,3.8762387912780043,1.762387565679848,1.8183055599957703
1783246114131735600,2.315735595703125,3.175234548458457,1.2052613401800394,0.21089199066758155
1783246114141746400,2.325746337890625,2.18899472938776,0.8711641178652644,-1.6336264534711837
1783246114151758600,2.335758544921875,1.0248287851840256,0.21033727939426897,-4.064282990321517
1783246114161770500,2.3457705078125,0.04484627294242382,-0.46039194440990683,-6.170194362831116
1783246114171782400,2.355782470703125,-0.31038463055491444,-0.8196575102508068,-7.643354360014199
1783246114181794600,2.365794677734375,0.34277591107189653,-0.7250678399741649,-8.36951291783452
1783246114191805700,2.3758056640625,0.373984119284153,-0.5113000016093254,-7.179200724983215
1783246114201817600,2.385817626953125,-1.9273732529580592,-2.228240113583207,-4.7819136660322545
1783246114211829800,2.395829833984375,-6.789235192713141,-6.636002779331803,-3.415318731340766
1783246114221841700,2.405841552734375,-17.22732373187542,-10.496350758516789,-3.997745110052824
1783246114231852500,2.4158525390625,-32.20881850198507,-10.146492195707559,-8.586785549449921
1783246114241864700,2.42586474609375,-42.120179753303525,-5.456505410483479,-15.923602601987122
1783246114251876600,2.435876708984375,-41.997663965225215,-0.10985942786186934,-20.407524962830543
1783246114261888500,2.445888427734375,-35.708278574824334,1.8173036894768475,-19.18733318002224
1783246114271900700,2.455900634765625,-28.120637334203717,0.07184387772232294,-13.190402795732021
1783246114281911600,2.46591162109375,-21.32173122682571,-1.910431762768328,-7.370351073348521
1783246114291923500,2.47592333984375,-15.12204656561613,-1.793434738111496,-4.223635347887873
1783246114301935600,2.485935546875,-10.479452230685949,0.0784460524663329,-2.1858079160451886
1783246114311947500,2.495947509765625,-6.74779726690948,1.9203578212380408,-1.3524568114846944
1783246114321958700,2.505958740234375,-4.414676975181698,3.1845676094710824,0.1886906802535057
1783246114331970600,2.515970458984375,-3.0542069531112905,3.218619516676664,1.7610177386313677
1783246114341982700,2.525982666015625,-1.646697531968355,2.39591723190248,2.390945288708806
1783246114351994600,2.53599462890625,0.5020873521059751,1.4521873517811297,2.397039806191623
1783246114362006500,2.546006591796875,3.146224142551422,0.9634250529333949,2.3113553269043563
1783246114372017700,2.556017578125,5.044543150460719,0.830444277203083,1.8416408428758382
1783246114382029600,2.566029541015625,5.948115207716822,1.0600324927732347,1.3823448770090936
1783246114392041500,2.57604150390625,6.471293863168358,1.425845580561459,1.8534449701771138
1783246114402053600,2.5860537109375,6.6383274228870865,1.707066075952351,3.24497064024657
1783246114412064500,2.596064453125,6.654678838229179,1.8576067660316824,4.979930100774765
1783246114422076400,2.606076416015625,6.633268970453739,1.6336150552943347,6.074446754691005
1783246114432088600,2.616088623046875,6.7659004943549625,1.4490128133982418,6.329038186353444
1783246114442100500,2.6261005859375,7.1353721046507355,1.653012414203584,6.269565422165393
1783246114452112400,2.6361123046875,7.5357801204800605,2.0597019945204256,5.837424881988763
1783246114462123500,2.64612353515625,7.91650260810852,2.1031956838101147,5.465451518005132
1783246114472135400,2.656135498046875,8.292803187641502,1.9317875622689722,5.240124174749851
1783246114482147300,2.666147216796875,8.647016438528896,1.696793396002054,5.00088287243247
1783246114492159500,2.676159423828125,9.05540551624,1.5496359186202286,4.656790910325944
1783246114502170600,2.686170654296875,9.424659099870919,1.3970911952421068,4.555428384913504
1783246114512182500,2.6961826171875,9.707248545527458,1.375906660655141,4.734473284943402
1783246114522194700,2.706194580078125,9.725046652546524,1.3644051695622503,4.959379480177164
1783246114532206600,2.71620654296875,9.322823696249722,1.2240319454930721,5.009395849233865
1783246114542218500,2.726218505859375,8.567280053991079,1.0408296335227787,4.679893261232972
1783246114552229600,2.736229736328125,7.721136687874793,0.8896769490249454,4.222836890986562
1783246114562241500,2.746241455078125,7.058052718126773,0.72544529498443,3.8631832026109096
1783246114572253400,2.75625341796875,6.724352093914151,0.4824529695704579,3.5302877573013305
1783246114582265600,2.766265625,6.308516207328438,0.018233575826883314,2.8289614429205656
1783246114592277500,2.776277587890625,5.951083994394541,-0.4139462734468281,2.0756348921895027
1783246114602288400,2.786288330078125,5.455450932994484,-0.41945889938846226,1.657943733125925
1783246114612300500,2.796300537109375,4.805545009249449,-0.28632687861919404,1.0057260253071785
1783246114622312400,2.8063125,4.1993414491087195,-0.23546850578039882,0.09937748907506465
1783246114632324400,2.816324462890625,3.576729190480709,-0.24752222392857073,-0.6743500446498394
1783246114642335700,2.826335693359375,3.1742116351515053,-0.2268238654233515,-1.05600367564857
1783246114652347600,2.83634765625,3.3114754950284957,-0.3468006365433335,-0.735304571828246
1783246114662359600,2.846359619140625,3.9059389330148693,-0.4060423684544861,-0.1722644461095333
1783246114672371700,2.856371826171875,4.274882135522366,0.056986500330269335,0.4415332224220037
1783246114682383600,2.866383544921875,4.027449927964806,1.1089059754051267,0.9669538115814328
1783246114692394500,2.87639453125,2.803189872804284,2.19043089967072,1.0274085725441575
1783246114702406700,2.88640673828125,0.37271219965219493,3.5285622486829755,1.5004226826399565
1783246114712418600,2.89641845703125,-1.532980551895499,4.458646173028647,1.7993199967578053
1783246114722430500,2.906430419921875,-1.7828531383424997,3.955110667940974,0.6481850913017988
1783246114732441300,2.91644140625,-1.98481421905756,2.771688234603405,-0.9422758819207548
1783246114742453500,2.92645361328125,-2.540611534041166,1.5790984522089362,-2.6885411648392674
1783246114752465400,2.93646533203125,-3.6702673058778044,1.2267054024860262,-4.294112905693054
1783246114762477600,2.9464775390625,-6.308708515030145,0.9811258370578289,-5.3523260740846395
1783246114772489500,2.956489501953125,-8.813452616876363,1.4252400158837437,-6.40853316335082
1783246114782500600,2.96650048828125,-10.789703590250015,2.5765537850379943,-8.167342578282952
1783246114792512800,2.9765126953125,-15.423220300233362,2.5588544622182843,-10.407401724475621
1783246114802524700,2.986524658203125,-16.751243512207267,1.976033238969743,-9.805051917153596
1783246114812536600,2.99653662109375,-14.302516481137275,1.4080837138995528,-6.645450406634807
1783246114822547500,3.00654736328125,-12.919507295000553,1.153978019927442,-4.1124882183030245
1783246114832559600,3.0165595703125,-12.017591188257931,0.8745651584804057,-1.7122120605386792
1783246114842571500,3.026571533203125,-12.691014181190729,0.12185527834296225,-0.05379135755077004
1783246114852583700,3.036583740234375,-13.759371726977824,-0.22029519430696962,-0.45762847104594107
1783246114862595600,3.046595703125,-13.168130173647404,-1.4342653261214493,-0.5529319886803626
1783246114872606500,3.0566064453125,-11.907872922432421,-1.0974249425783753,-3.9264930607438084
1783246114882618400,3.066618408203125,-11.482198363399505,0.7914458535060286,-6.324081440728903
1783246114892630500,3.076630615234375,-10.383705207067727,1.6816300214007496,-6.281329509717225
1783246114902642400,3.086642333984375,-8.128135772532223,3.0218472367763516,-5.351339985656738
1783246114912653600,3.096653564453125,-5.6685226057887075,3.9481145254433154,-3.9475066226780413
1783246114922665500,3.10666552734375,-3.048639382112026,5.036082196107507,-2.932216650211811
1783246114932677600,3.116677734375,-1.0191507395476103,5.335061051028966,-1.4445818452134727
1783246114942689500,3.126689453125,0.12495908957719802,3.9089135649114843,1.1554239809520541
1783246114952701700,3.13670166015625,-0.08212357193529606,1.5998038249768316,3.691978202426433
1783246114962712600,3.146712646484375,-1.9160130700320004,1.3154831716135142,2.9113480497062203
1783246114972724500,3.156724365234375,-4.198261252656579,2.1207151200182737,0.9194128927275538
1783246114982736600,3.166736572265625,-5.978727203601599,1.625719187477976,-0.009665361706912517
1783246114992748500,3.17674853515625,-5.754208254119754,0.4729895601764321,-0.024918168157339094
1783246115002759400,3.186759521484375,-3.1395594239652156,-0.48900911321565504,0.563209344805777
1783246115012771600,3.196771484375,0.25775720221698284,-0.9653421386010944,1.682522586326301
1783246115022783500,3.206783447265625,3.7967636880248783,-0.9397408835504204,2.604624864268303
1783246115032795400,3.21679541015625,6.4746414200305935,-0.629618630258739,2.8887404965788126
1783246115042807600,3.2268076171875,7.956627697747946,-0.7707958641871809,4.879373923309147
1783246115052818400,3.236818359375,8.724467342478036,-0.7844300564598292,4.836272155946493
1783246115062830300,3.246830322265625,9.029496583479641,-1.149965715546161,5.089785729244351
1783246115072842500,3.256842529296875,9.726535429799556,-0.4581928999956697,4.701530800284445
1783246115082854400,3.2668544921875,9.990207409018277,-0.09850786663368344,4.048711034919322
1783246115092865500,3.276865478515625,9.810538239610194,-0.4477181946672499,3.870879310071468
1783246115102877700,3.286877685546875,9.492606262415647,-0.7491165318205952,3.939093891380727
1783246115112889600,3.2968896484375,9.014031303322314,-0.6926699105206876,3.9660587629348036
1783246115122901500,3.306901611328125,7.883717359837889,-0.28458858358450234,4.078595593312382
1783246115132913700,3.31691357421875,6.648461278888583,0.16790033261589704,3.0260175081983207
1783246115142924500,3.326924560546875,5.350372017407417,0.6023091099854558,2.433937458217144
1783246115152936400,3.3369365234375,4.06444490288496,1.0008428563755005,2.9568805513471363
1783246115162948600,3.346948486328125,3.072942048719525,0.8934535449542105,3.936281756569445
1783246115172960500,3.35696044921875,2.1429162843018768,0.1761799390528351,4.81398170594424
1783246115182971400,3.366971435546875,1.4037182121664284,-0.49132922672629353,4.073206886011362
1783246115192983600,3.376983642578125,1.7868050908386706,0.10042729038894176,2.0233555466368793
1783246115202995500,3.386995361328125,2.5083809970438478,1.2282599384516477,1.1103364465996621
1783246115213007400,3.39700732421875,3.91112188861072,1.8872057854816315,0.4027525331288576
1783246115223019500,3.40701953125,5.264231611046195,2.7723113349378106,-0.19110124852657318
1783246115233030700,3.41703076171875,5.70462501578331,4.002839802843332,-0.12067249829918146
1783246115243042600,3.42704248046875,5.454224606069922,4.985334590166807,0.309348565505445
1783246115253054700,3.4370546875,4.857103347051144,5.3571255833208555,0.4239008273586631
1783246115263066600,3.447066650390625,4.53660765684843,4.94196774212718,0.6767649968370795
1783246115273077500,3.457077392578125,3.654725453352928,3.9196442177623507,1.0548992215380073
1783246115283089700,3.467089599609375,2.5958354086130857,2.8530311775550246,1.0076762825921177
1783246115293101600,3.4771015625,1.9857512076467274,2.4732503546908498,-0.06762713681012392
1783246115303113500,3.487113525390625,0.2555219905108213,1.9883380092695355,-1.5904405149564147
1783246115313125000,3.497125,-1.8905127180725334,0.8260776064261793,-2.945179884420335
1783246115323136000,3.507135986328125,-4.221860154908895,-0.24800503900945184,-3.9356092641353606
1783246115333148200,3.517148193359375,-5.7555637603819365,-0.838501034669578,-4.410242792126536
1783246115343160000,3.52716015625,-7.303516840481758,-1.1762111867845058,-3.953120370906591
1783246115353172200,3.537172119140625,-7.958096601256727,-1.3374623637095093,-2.9258927078872916
1783246115363183400,3.547183349609375,-7.916572166213393,-2.0409835577860473,-2.228474652991444
1783246115373195300,3.5571953125,-7.239629766982794,-3.417162313380837,-1.9787007046133278
1783246115383207400,3.56720751953125,-6.7220654442816965,-4.32784887881726,-1.17358770641312
1783246115393219300,3.57721923828125,-7.555562679314613,-5.247368154528737,-0.46985666897818446
1783246115403231200,3.587231201171875,-9.014474370914698,-5.931844456395506,-0.39172698898464436
1783246115413242000,3.5972421875,-10.226308659744262,-5.9436295867353675,-1.2051320147119462
1783246115423254300,3.607254150390625,-11.404600744456053,-5.734900911581516,-2.1602806760787963
1783246115433266200,3.61726611328125,-11.82421264244914,-5.647806565496325,-2.335531298392266
1783246115443278300,3.6272783203125,-10.609552774804829,-5.6406561092197895,-2.746711906518042
1783246115453290200,3.637290283203125,-8.213795117378234,-5.0836435732275245,-3.776738260345161
1783246115463301000,3.647301025390625,-6.447552337574958,-4.05349680789113,-4.094875112462043
1783246115473313000,3.65731298828125,-4.908367085820436,-3.124340227523446,-4.329654466934502
1783246115483325200,3.6673251953125,-3.110940063202381,-3.059902534404397,-4.936764328265189
1783246115493337000,3.677337158203125,-1.443842717283964,-3.4010032057404516,-5.458963325029611
1783246115503348200,3.68734814453125,-0.12239420752525329,-2.4480384642839432,-5.630380798920989
1783246115513360400,3.6973603515625,0.6971241865158081,-0.03731120126247406,-4.563081822276115
1783246115523372300,3.707372314453125,0.8026362328231335,2.2797446753710506,-2.403990940503776
1783246115533384400,3.717384521484375,-0.8680717048078775,4.337745711192488,0.1466414906837046
1783246115543396400,3.727396240234375,-2.1995371661901473,5.585137051093578,2.078338598190248
1783246115553407200,3.7374072265625,-3.1340789467275143,6.485997511303425,3.072366294658184
1783246115563419100,3.747419189453125,-4.6918373815268275,6.4585822656333445,3.1623820811480283
1783246115573431300,3.757431396484375,-5.659997938549518,5.209370140045881,2.8658970888689157
1783246115583443200,3.767443115234375,-4.696400743919611,3.9942227811455724,2.8789000705659387
1783246115593454000,3.7774541015625,-2.0762989090561867,3.4249849698305126,2.137227425010502
1783246115603466200,3.78746630859375,1.2955886768370866,3.3533705169498917,1.9184590018793939
1783246115613478100,3.79747802734375,3.930917306926846,3.160636698785424,2.74435599104166
1783246115623490000,3.807489990234375,5.867371107441187,3.5191181285113093,3.7085035130307076
1783246115633502200,3.817502197265625,7.235503042441606,4.72542167122066,3.1001860294759274
1783246115643513000,3.82751318359375,7.746120907005667,5.59171818304956,2.4923463925659655
1783246115653525000,3.83752490234375,8.122318026164173,5.748780968374014,1.9592437244713305
1783246115663537200,3.847537109375,7.155574350202083,5.631531137999892,2.170777227912843
1783246115673549000,3.857549072265625,5.38201569442749,5.425983430969715,2.6110712639287113
1783246115683560200,3.867560302734375,4.166809883338213,5.625701701194048,2.515999655354023
1783246115693572400,3.877572265625,3.5429303812533615,5.682676803347468,1.8231559226363896
1783246115703584300,3.887584228515625,3.8086680608302355,5.699523308730125,1.152711653253436
1783246115713596200,3.89759619140625,4.861580784726143,5.47153639087677,1.6576082175612448
1783246115723608300,3.9076083984375,5.718664062529802,5.32750084490776,2.3787393026083707
1783246115733619200,3.917619140625,6.631016223090887,5.47181637686193,2.3681603331878778
1783246115743631000,3.927631103515625,7.470512406277656,5.521394354501366,2.718668007555604
1783246115753643300,3.937643310546875,8.41270499382913,5.970083293896913,1.955538732473552
1783246115763655200,3.9476552734375,8.27545983865261,5.753751158002019,1.2981105965301394
1783246115773666000,3.957666015625,7.1317428082376715,5.118283509454131,1.243526481166482
1783246115783678200,3.96767822265625,6.233555951151251,4.824214638406038,1.071578261399269
1783246115793690000,3.977690185546875,5.422884295910596,5.1544256669372315,1.2727104900747537
1783246115803702000,3.987701904296875,4.950445647615194,5.605142312768101,1.6654210832692682
1783246115813714200,3.997714111328125,4.6109863137453795,5.335957707607746,1.6636333230696618
1783246115823725300,4.007725341796875,3.908112185400724,4.49018902002275,0.8427505818728357
1783246115833737200,4.0177373046875,3.208469294062257,3.603203940430283,0.005707710122317075
1783246115843749400,4.027749267578125,2.5815590459793802,3.4566958668678995,0.22965521639175712
1783246115853761300,4.03776123046875,2.0900380960732696,3.8600299992769953,0.6256126825530082
1783246115863772200,4.047772216796875,2.044239052450657,4.3494349799424405,0.667330813537538
1783246115873784300,4.057784423828125,1.5573282266885042,4.517781960347294,0.27641112234778703
1783246115883796200,4.067796142578125,0.4934644851893186,3.5136335596203803,-0.023061945831403134
1783246115893808000,4.07780810546875,-0.47046764048337936,1.7454203565269708,-0.11358728927858174
1783246115903820300,4.0878203125,-1.8753151489406823,-0.3106219464421272,-0.11513386113345622
1783246115913831200,4.0978310546875,-4.205586480978131,-2.1209078661113976,-1.1001380739945918
1783246115923843000,4.107843017578125,-6.889820304012298,-3.549961010542512,-3.1556565722852943
1783246115933855200,4.117855224609375,-9.47900268447697,-4.850023617923259,-5.013192903429269
1783246115943867100,4.1278671875,-11.669701295173168,-5.539062113139033,-5.774905589711666
1783246115953879000,4.137879150390625,-13.865446083343029,-6.0716404650986195,-5.3066036028295756
1783246115963890400,4.147890380859375,-14.447421795678137,-6.466643407014012,-3.4902781107351184
1783246115973902300,4.15790234375,-13.246941260033845,-6.170618725723028,-0.9223429548300802
1783246115983914200,4.167914306640625,-11.701260801041126,-6.096787181314825,1.2403705013535915
1783246115993926400,4.177926513671875,-10.3040430568099,-6.108039812213182,2.7712632871896026
1783246116003937300,4.187937255859375,-8.512192957541346,-6.1232461491733785,3.4588930846512316
1783246116013949200,4.19794921875,-6.827261264246702,-6.4399839481472965,2.9859096619546412
1783246116023961300,4.20796142578125,-5.747760977676511,-7.2018830969125025,1.6913266550287602
1783246116033973200,4.21797314453125,-6.606762656322121,-7.801165917879342,0.3350924438972026
1783246116043985200,4.227985107421875,-9.660580317854881,-7.072157815846801,-1.0746699438042937
1783246116053996300,4.237996337890625,-11.883832706153392,-4.976111419269443,-1.8309693728663026
1783246116064008200,4.24800830078125,-11.702296573829651,-2.3329610095128417,-1.2007101796817035
1783246116074020000,4.25802001953125,-11.54237372289896,-1.1765107542529702,-0.5669592719238251
1783246116084032300,4.2680322265625,-9.607468905392288,-0.6419687010049819,-0.18237724105669184
1783246116094043100,4.278043212890625,-6.691461047181487,-0.21487141569256782,0.7916706752378493
1783246116104055000,4.288054931640625,-4.234651247420906,-0.6242360604375601,1.6118077126339077
1783246116114067200,4.298067138671875,-2.6704420290470123,-1.075302834880352,2.0332557400129736
1783246116124079000,4.3080791015625,-1.6499042190551756,-0.910484613123536,2.3333342267394066
1783246116134091300,4.31809130859375,-1.448964298081398,-0.18292554085552692,2.644477274446189
1783246116144102100,4.32810205078125,-1.8627742317974567,0.5732701355710625,2.6439740010991692
1783246116154114300,4.3381142578125,-1.877898735693097,0.9604860768720507,2.329009933799505
1783246116164126200,4.348126220703125,-0.9160510150790214,1.0925742876768112,2.0311368481628596
1783246116174138400,4.358138427734375,0.7549158657491206,1.1901859361231326,2.0367481121733784
1783246116184149200,4.368149169921875,2.0449504155904052,0.9355407284468412,1.2065100250668823
1783246116194161200,4.3781611328125,3.4484839188396927,0.9436378179237246,0.3592376183880493
1783246116204173300,4.38817333984375,4.615727370792627,1.6637489122733473,0.5167250588653609
1783246116214185200,4.398185302734375,5.473505645123124,2.582208742059767,0.9562405482567846
1783246116224197000,4.408197021484375,5.907843987604975,3.34196006514132,1.6358550893060861
1783246116234208000,4.4182080078125,6.297737039160728,3.5928105567097663,2.000099320342392
1783246116244220200,4.42822021484375,7.028454283198714,3.4168577774763107,1.902354839296639
1783246116254232000,4.438232177734375,7.868826080176234,3.3275311422944065,1.510218100467324
1783246116264244200,4.448244140625,8.458497023189068,3.3671500359773634,1.0703216854669153
1783246116274255400,4.45825537109375,8.655367502766847,3.4911148538202044,0.7731623010575771
1783246116284267300,4.468267333984375,8.66899387705922,3.925343306186795,0.7506606194574386
1783246116294279200,4.478279052734375,8.430811143884062,4.355487119588256,0.9856225639551878
1783246116304291300,4.488291259765625,7.636356463950872,4.607182245287299,1.3286695470534264
1783246116314303200,4.49830322265625,6.462623649978637,4.85932920640707,1.5513232871852813
1783246116324314000,4.508314208984375,5.658096488842368,5.009406955149769,1.535066856650263
1783246116334326300,4.518326171875,5.137193377107382,5.169335651299357,1.3973375712186098
1783246116344338200,4.528338134765625,4.849057987761497,5.119148601850867,0.9420997216362506
1783246116354350000,4.53835009765625,5.11395980103612,4.893556470179558,0.3611688421789557
1783246116364361200,4.548361328125,5.144803852111101,4.936562083691358,0.00037497079223394394
1783246116374373000,4.558373046875,5.0763224365592,5.111156434053182,-0.17653335560038685
1783246116384385000,4.568385009765625,5.191233594852686,5.020630359953642,-0.28128888445198535
1783246116394397200,4.578397216796875,5.123309813183546,4.758901916018128,-0.7459154707569629
1783246116404409000,4.5884091796875,4.697458144018054,4.28753703443408,-1.646145451043546
1783246116414420200,4.598420166015625,4.399131031003594,3.673754563471675,-2.26771273066327
1783246116424432400,4.608432373046875,3.863372879964113,3.5808588376313444,-2.2120447655856608
1783246116434444300,4.6184443359375,2.605900291031599,4.039123414623737,-1.159702388923615
1783246116444456200,4.628456298828125,0.8372656476557254,4.20493532359302,0.31874767749160526
1783246116454467000,4.638467041015625,-0.947215968671441,3.599053250491619,1.0140790623065083
1783246116464479200,4.648479248046875,-2.134205154579878,2.1357494614124297,0.7683226059414446
1783246116474491100,4.6584912109375,-2.228445280766487,0.25594869149029253,0.014573592014610767
1783246116484503300,4.66850341796875,-1.903505470636487,-1.8271756796717642,-0.9856750978600233
1783246116494515200,4.67851513671875,-2.1646803723424672,-3.6149434780627487,-2.224990318007022
1783246116504526000,4.688526123046875,-2.7135528564989566,-5.33567012283802,-3.372335329660773
1783246116514538000,4.6985380859375,-4.146968287792801,-6.92614600136876,-4.372009799844026
1783246116524550100,4.708550048828125,-6.439411701217294,-7.912578128141164,-4.627855030959845
1783246116534562000,4.71856201171875,-8.096330767470597,-8.838269078224897,-3.4906372994363304
1783246116544574200,4.72857421875,-8.568309981560706,-8.939695901045203,-0.6894037483315915
1783246116554585300,4.73858544921875,-8.554972945603728,-8.42122966106832,2.273725268951058
1783246116564597200,4.74859716796875,-8.673716813927888,-8.558916130271554,3.8544700270622965
1783246116574609200,4.758609130859375,-9.082848234438895,-9.598820319512486,3.814382931345701
1783246116584621300,4.768621337890625,-8.717023456212878,-10.609479125046729,2.4405825953200457
1783246116594632200,4.778632080078125,-7.563890362676978,-10.274162297809124,0.8088651903405785
1783246116604644000,4.78864404296875,-5.202102779391407,-9.717007722997664,-0.3834111421905458
1783246116614656300,4.79865625,-2.265409860548377,-9.710691379457712,-0.8523745155908167
1783246116624668200,4.808668212890625,0.11248656149506568,-8.896530128535629,-0.6241075386870653
1783246116634680300,4.818680419921875,0.6647568713963031,-6.376807068744301,-0.22674363979399204
1783246116644691200,4.828691162109375,-0.16064648903012274,-3.084350746962428,0.2641953455056995
1783246116654703000,4.838703125,-0.7706102784872054,-0.6820838537722825,0.8003159731820225
1783246116664715000,4.848715087890625,-1.840911944079399,0.46439270448386666,0.49052857786789533
1783246116674727200,4.85872705078125,-3.562197391781211,0.894417859941721,-0.580572932865098
1783246116684738000,4.868738037109375,-4.883794954621791,1.2115700849354267,-1.558050111222267
1783246116694750000,4.87875,-5.482805972909927,1.5119102913379667,-1.8848570303983985
1783246116704762000,4.88876220703125,-4.748702009043098,1.9726468114018438,-1.5661211894750595
1783246116714774000,4.89877392578125,-3.4378350990533826,2.170019979804754,-1.0207122167106717
1783246116724786200,4.9087861328125,-1.8238216930687428,2.128930429047346,-0.29243863949775695
1783246116734797300,4.91879736328125,0.15493571016788482,2.2159674919873473,0.27307781320661306
1783246116744809200,4.928809326171875,2.4723627582013608,2.370338554009795,0.7475155263647437
1783246116754821000,4.938821044921875,4.646110818618536,2.264413835248351,1.190066839788109
1783246116764833300,4.948833251953125,6.210327635776996,2.027539262062311,1.4431164488360284
1783246116774844200,4.95884423828125,7.039020685398579,2.0519676008760928,1.6257753015793859
1783246116784856000,4.96885595703125,7.000682479175925,2.3520973793983457,1.407929253990203
1783246116794868200,4.9788681640625,5.99258037238717,2.6873738746255635,0.9714297879517078
1783246116804880100,4.988880126953125,4.307443511909246,3.03451382612586,0.8148755366712808
1783246116814892000,4.99889208984375,3.1595243536293505,3.4493010804414745,0.5778387586608529
1783246116824903200,5.008903076171875,2.9890497135460374,3.8041146353095767,0.3889924494542181
1783246116834915000,5.0189150390625,3.5403730979859827,3.9736704069823023,0.3843691735677421
1783246116844927000,5.028927001953125,4.251360390159488,4.020668889522552,0.6496965187780559
1783246116854939100,5.038939208984375,4.960905082309246,4.374004188531637,1.186748070628941
1783246116864950300,5.0489501953125,6.1443900594890115,4.748261864060163,1.7904332182079552
1783246116874962200,5.058962158203125,7.322165426850319,4.652319610130786,2.2291066672846673
1783246116884974300,5.068974365234375,7.941444741663337,4.521123671990633,2.529102590294182
1783246116894986200,5.078986328125,8.00136057344377,4.510713921657205,2.676451206333935
1783246116904998100,5.088998046875,7.518778132274747,4.5680718856483695,2.5975959885448217
1783246116915009300,5.09900927734375,6.750739165580272,4.617815282982588,2.2422918736808
1783246116925021200,5.109021240234375,5.904529163968562,4.608528399199247,1.8108787709958851
1783246116935033000,5.119033203125,4.973612588191032,4.664445516732335,1.3635364239037036
1783246116945045200,5.129045166015625,4.097727579283714,4.674454285049438,0.9024799511704593
1783246116955056000,5.13905615234375,3.5531747118920087,4.917193366354704,0.801865979102999
1783246116965068000,5.149068115234375,3.4161768094748255,5.462064798176288,1.1062042421657592
1783246116975080200,5.159080078125,3.7458138375103474,5.604981569248437,1.492833688815683
1783246116985092000,5.169092041015625,3.971047072741389,5.316724599349499,1.6672215568199753
1783246116995104000,5.17910400390625,4.180800999289751,5.046832722702622,1.4652955474182963
1783246117005115400,5.189115478515625,4.594520916634798,4.573466438168287,0.8789474652178585
1783246117015127300,5.199127197265625,4.843299278104305,3.795989781042933,0.14161219127960503
1783246117025139200,5.20913916015625,5.153243179154396,3.2701457057744263,-0.22470767698697744
1783246117035151400,5.2191513671875,5.169678181126714,2.8304923057496545,-0.15001710459664463
1783246117045162200,5.229162353515625,4.389714383360743,1.9380010299563406,0.14957871317937968
1783246117055174100,5.239174072265625,2.951346298095584,0.756550773474574,0.07799757804647088
1783246117065186300,5.249186279296875,1.077055816027522,-0.7389367908507585,-0.6458518260486423
1783246117075198200,5.2591982421875,-1.66677468983531,-2.9465912125229834,-1.7597136702954768
1783246117085210000,5.269210205078125,-5.019927764642238,-5.42574962221384,-3.939743002939224
1783246117095221200,5.27922119140625,-7.389014857286214,-7.466351194944977,-6.507095244389772
1783246117105233200,5.289233154296875,-8.606209211844206,-9.202459533247351,-7.928767630919814
1783246117115245000,5.2992451171875,-9.790147778010368,-10.56322707695961,-7.3223326001107685
1783246117125257200,5.30925732421875,-11.450571052992343,-11.051917771875857,-4.4934486063405865
1783246117135268000,5.31926806640625,-11.554136641407013,-10.71899280821085,-0.5295141055507585
1783246117145280000,5.329280029296875,-11.494022072184086,-9.98624785773754,2.960754470171034
1783246117155292200,5.339292236328125,-11.598711111670731,-8.768110084849596,4.819311961056291
1783246117165304000,5.349303955078125,-11.78508240906596,-7.886415512880682,4.865492989733815
1783246117175316000,5.35931591796875,-12.425623707616328,-7.796978403061628,3.0172002877533433
1783246117185327000,5.3693271484375,-13.847262776398658,-7.666668015584349,0.4199434680350125
1783246117195339300,5.37933935546875,-15.289607948601246,-6.910349297299981,-1.655134374793619
1783246117205351200,5.38935107421875,-15.709706168806552,-5.49559414281249,-3.2361446519732473
1783246117215363300,5.39936328125,-14.509507372713088,-3.246880565521121,-3.776689160506427
1783246117225375200,5.409375244140625,-12.024096916890144,-1.032713400954008,-2.404966653668135
1783246117235386000,5.41938623046875,-8.75079303934574,-0.5070318227708339,-0.3456219481527805
1783246117245398300,5.429398193359375,-4.3325709389030935,0.010830606094002724,1.6353917095780373
1783246117255410200,5.43941015625,0.26398995912671086,0.7475356923699379,3.1189120649948716
1783246117265422000,5.449422119140625,4.31230381142199,0.6561971328437328,3.436810432180762
1783246117275433000,5.459432861328125,7.029501161903142,0.13943535869717597,2.9388065499961376
1783246117285445000,5.469445068359375,7.782838818550109,-0.1771539717167616,1.842835021096468
1783246117295457000,5.47945703125,7.229287821188569,-0.029061259311437604,0.20348449089005588
1783246117305469200,5.48946923828125,5.99733662700355,-0.025417934373021124,-2.085838160165399
1783246117315481000,5.499481201171875,3.4103193156182763,0.14889876809120178,-3.8528824656099077
1783246117325492500,5.509492431640625,0.6229851835936308,0.8440300272241235,-3.715187228578329
1783246117335504400,5.51950439453125,-1.3513263461500404,1.9307313312143086,-2.1574565585687755
1783246117345516300,5.529516357421875,-1.793468055859208,2.875889198312163,-0.7650877156734466
1783246117355528400,5.539528564453125,-1.5089584557950495,3.5420497990265485,0.8630624252784996
1783246117365539300,5.549539306640625,-0.41763913661539553,3.952811743348837,2.2760277006745335
1783246117375551200,5.55955126953125,0.9858511120140552,4.334628748215735,3.0965713461101054
1783246117385563400,5.5695634765625,2.488117376694083,4.4845767330989235,3.1904090289756653
1783246117395575300,5.5795751953125,4.0673254267573355,4.460641438499093,2.7604630762338638
1783246117405587200,5.589587158203125,5.829030563130974,4.399909614160657,2.0813540004886684
1783246117415598300,5.599598388671875,7.550531114888191,4.1337013944625856,1.38353584035933
1783246117425610200,5.6096103515625,8.82364200245738,3.8477638074219223,0.759866035502404
1783246117435622100,5.6196220703125,9.50578489294052,3.6980695050388572,0.4820803733984008
1783246117445634300,5.62963427734375,9.610863808527588,3.822137783256173,0.7218093496348709
1783246117455645400,5.6396455078125,9.381979649573564,4.256750851026177,1.0620091266084462
1783246117465657300,5.6496572265625,8.715715880745648,4.7253895225167275,1.529085005761683
1783246117475669500,5.65966943359375,7.840320116659998,5.249979213809967,1.838469957754761
1783246117485681400,5.669681396484375,6.932684463226795,5.600357416579127,1.7270399195753037
1783246117495693300,5.679693359375,6.03922521918416,5.770749054554105,1.1981539193276316
1783246117505704400,5.689704345703125,5.141272170853615,5.8771706169217826,0.5171867946255951
1783246117515716400,5.69971630859375,4.911765496087074,5.866107955637574,-0.19026622247453778
1783246117525728300,5.709728271484375,5.060726223498582,5.92693330347836,-0.7531037017606198
1783246117535740400,5.719740478515625,5.39840802630186,5.927770338824391,-1.0938483992658554
1783246117545751300,5.729751220703125,5.859449082270264,5.6947717302888625,-1.1014302326969803
1783246117555763200,5.73976318359375,6.428293510353565,5.188119262224435,-0.693720150225982
1783246117565775400,5.749775390625,6.947945160722732,4.786502455127239,-0.2235935051999986
1783246117575787300,5.759787353515625,7.4702014406323425,4.5814568524003025,0.16532558675706385
1783246117585799200,5.769799072265625,7.636268785667419,4.238672173500061,0.5567740145286545
1783246117595810000,5.77981005859375,6.95785163770914,3.540480650013685,0.9490342701397836
1783246117605822200,5.789822265625,5.8124055915445085,2.492380879357457,0.8526343355707824
1783246117615834000,5.799834228515625,4.451904005292057,1.1758914533108473,-0.12077559334747492
1783246117625846300,5.80984619140625,2.894152000233531,-0.23113398370742796,-1.2403031352058052
1783246117635857400,5.819857421875,1.5973562856942414,-1.6166443390101193,-1.8531851501971481
1783246117645869300,5.829869384765625,-0.19487141471505165,-2.829535443416238,-2.2088974074706433
1783246117655881500,5.839881591796875,-3.0846734030455347,-4.146863073852658,-2.350868129864335
1783246117665893400,5.849893310546875,-6.316372766047715,-5.747281085205078,-2.245203815604746
1783246117675905300,5.8599052734375,-8.306336038431525,-7.44685738992393,-1.6688374675840139
1783246117685916200,5.869916259765625,-8.868166788360476,-8.540840959876775,-0.31717078356370326
1783246117695928300,5.87992822265625,-8.243129348412156,-8.877438474574685,1.6757276654891669
1783246117705940200,5.889940185546875,-6.907904242235421,-9.368024189457296,3.825032043392956
1783246117715952400,5.899952392578125,-5.517784931832551,-10.195195728600025,5.264762941443919
1783246117725963300,5.90996337890625,-5.691652136963605,-9.873149886345862,5.426973026528954
1783246117735975200,5.91997509765625,-8.002650028732418,-8.559379656130075,4.395433930051326
1783246117745987000,5.929987060546875,-11.070110431170463,-8.029411778929829,2.990846533834934
1783246117755999200,5.939999267578125,-12.97443598601818,-8.590640471312403,1.6160748685590922
1783246117766011100,5.95001123046875,-12.257925546509027,-9.109314801082014,0.5623398684948683
1783246117776022300,5.960022216796875,-10.218282005155086,-8.647646553125977,0.26795601321347057
1783246117786034400,5.970034423828125,-8.152078958177565,-7.771464022576809,0.4655202837416902
1783246117796046300,5.98004638671875,-6.447917079234123,-6.669501144307851,0.7140237372599542
1783246117806058500,5.99005859375,-4.978291101396083,-5.291621137753129,0.4293205873850733
1783246117816069400,6.0000693359375,-3.2664895213544365,-3.806987560397386,-0.40215464030094444
1783246117826081300,6.010081298828125,-1.7488614368915556,-2.606801039263606,-1.2726219350084662
1783246117836093200,6.02009326171875,-2.2672739008545872,-1.7311428248494862,-2.047067115483433
1783246117846105300,6.030105224609375,-4.551821592593193,-0.9043927259892225,-2.5122183832496403
1783246117856117200,6.0401171875,-7.158688682830333,-0.20962620851546523,-2.8670348607271907
1783246117866128100,6.050128173828125,-9.036910074606537,0.34469928034991026,-3.3639722827240823
1783246117876140300,6.060140380859375,-8.986909487640856,0.7027391037881374,-3.6034795425012707
1783246117886152200,6.070152099609375,-7.164414074739813,0.9530345918223261,-2.9707340123936534
1783246117896164000,6.0801640625,-4.451239988425374,1.2093737439349292,-1.7278692100062965
1783246117906175500,6.090175537109375,-1.3091811488598584,1.5862915785834193,-0.41753615116495635
1783246117916187400,6.1001875,1.7911369825631378,1.9832821871846913,0.8235632124524563
1783246117926199300,6.11019921875,4.599730175715685,2.39272749595046,2.0763290119335056
1783246117936211500,6.12021142578125,6.560059357336163,2.7490461946845053,3.1721617168843745
1783246117946223400,6.130223388671875,7.864837302801012,2.7605416944280265,3.467598076893389
1783246117956234200,6.140234130859375,8.415884208387135,2.7163287509530782,3.5481562992081046
1783246117966246400,6.150246337890625,8.084548559740185,2.9108947529807687,3.698500882193446
1783246117976258300,6.16025830078125,8.06157977208495,2.980427431151271,2.7974133352294563
1783246117986270200,6.170270263671875,7.987520264139771,2.7356273256629704,1.6376234141528605
1783246117996281300,6.18028125,7.42660253740251,2.693611015449464,0.9295284824199974
1783246118006293200,6.190293212890625,6.9746046195894476,2.8713711363658305,0.45321025274489074
1783246118016305200,6.20030517578125,6.8043439145177596,3.0488442570343612,0.2111117708981037
1783246118026317300,6.2103173828125,6.8478136384099715,3.1948964035227894,0.3094794618761167
1783246118036329200,6.2203291015625,7.153516248628497,3.2788235177487133,0.628950813999772
1783246118046340400,6.23034033203125,7.383821964818239,3.56087461874485,0.9592740707337856
1783246118056352300,6.240352294921875,7.543319868335128,3.8928067719802257,1.1680239348061383
1783246118066364400,6.250364501953125,7.760695375803112,3.9515331017151474,1.1893784191325307
1783246118076376300,6.260376220703125,7.880998164007067,3.7869109870523214,0.9607492578528821
1783246118086387500,6.270387451171875,7.973120567387342,3.7055285888731477,0.5585932293124497
1783246118096399400,6.2803994140625,7.74369163403213,3.922529417809844,0.3489594950776547
1783246118106411300,6.290411376953125,7.261238372200727,4.233066024056077,0.3718153969429433
1783246118116423400,6.30042333984375,6.789281954464316,4.344986768361926,0.5248959807634354
1783246118126435300,6.310435302734375,6.404343894967436,4.379256702232361,0.5898279602054506
1783246118136446200,6.3204462890625,6.0856724975824354,4.364157332777976,0.5602228763408958
1783246118146458400,6.330458251953125,5.9875458853513,4.327987702766061,0.46648401420731095
1783246118156470300,6.34047021484375,5.9227224077850575,4.236467941454053,0.35908604455552995
1783246118166482200,6.350482177734375,5.676168152105808,3.8027836789667604,0.1123000807459466
1783246118176493300,6.360493408203125,5.2052212036728855,3.435654247882962,-0.1501785605023615
1783246118186505200,6.370505126953125,4.21170525611937,3.3413398874163627,-0.18935082466267047
1783246118196517000,6.38051708984375,3.07989026042223,2.857774864950776,-0.20154588751029223
1783246118206529300,6.390529296875,1.9178163200616836,1.8321020301580428,-0.06986304263602942
1783246118216541200,6.400541259765625,0.5989508125334978,0.8590899414509534,0.100786424291227
1783246118226552300,6.41055224609375,-0.8331459373772144,-0.27277356956303117,0.0532094842758961
1783246118236564500,6.420564453125,-1.9541940398663282,-1.9677982023268936,-0.16024592713890595
1783246118246576400,6.430576416015625,-3.08110197429955,-3.730204180446267,-0.27275570511277764
1783246118256588300,6.44058837890625,-4.53940517861247,-5.1217660908728835,-0.8428472471803427
1783246118266599200,6.45059912109375,-6.906295053473115,-5.855721001657844,-2.0185164360426366
1783246118276611300,6.460611328125,-9.922934784734249,-6.03831102694869,-2.6275273086890576
1783246118286623200,6.470623291015625,-12.583238866126537,-6.1268409587949515,-1.7008128607764839
1783246118296635400,6.480635498046875,-13.22721598434448,-6.512976119121909,0.2958459089242853
1783246118306647300,6.490647216796875,-11.497096657323837,-6.969542075502872,2.266208463580161
1783246118316658200,6.500658203125,-9.556430207550525,-7.538849444922804,3.5628313057705756
1783246118326670300,6.51067041015625,-8.679546250733733,-8.304467321950197,4.259313979512453
1783246118336682200,6.52068212890625,-8.421165363660455,-8.986334318101406,4.279597473606467
1783246118346694100,6.530694091796875,-8.338651331102847,-9.359305460950731,3.20587050974071
1783246118356705300,6.540705322265625,-7.664583026003837,-9.472492279669641,1.3563941509336233
1783246118366717400,6.550717529296875,-7.016347081297636,-9.09147343944311,-0.4579405692024156
1783246118376729300,6.560729248046875,-7.17370738826394,-8.06022192773521,-1.8262874986603854
1783246118386741500,6.570741455078125,-7.8126061803042886,-6.4983946360617875,-2.2011068997249006
1783246118396753400,6.58075341796875,-8.52026111318469,-4.514356662073731,-1.7801719364345072
1783246118406764300,6.590764404296875,-8.617216928070784,-2.59189163942337,-1.1383056728906928
1783246118416776200,6.600776123046875,-7.325038936460018,-1.00423140283525,-0.30830117534436285
1783246118426788400,6.610788330078125,-4.388224437063932,0.1357265673071146,0.4617765306361019
1783246118436800300,6.62080029296875,-0.33989538719952106,0.8883727345585822,0.8311431461874396
1783246118446811100,6.63081103515625,3.478892501106858,1.1646008284896612,0.8478148064598441
1783246118456823300,6.6408232421875,6.1145338504076,1.205590426003933,0.47270482495091853
1783246118466835200,6.650835205078125,7.057880868691205,1.5562462766706942,-0.16052783108651636
1783246118476847400,6.660847412109375,6.729529204291105,1.7571365132838486,-0.5725915056571365
1783246118486859300,6.670859375,5.250818002721667,1.5258967311143874,-0.6072185824021696
1783246118496870400,6.680870361328125,3.2108962289482355,1.43538351649642,-0.40447161200642584
1783246118506882300,6.69088232421875,1.0221265404880047,1.8371137208402155,0.046225598471611735
1783246118516894500,6.70089453125,-0.981188965421915,2.410710311886668,0.6005069559343159
1783246118526906400,6.71090625,-2.036164467066526,2.7986130664080378,1.3338573249548673
1783246118536917200,6.720917236328125,-2.0568319920420643,2.8868215112149715,2.1157434690855443
1783246118546929400,6.730929443359375,-0.921478885346651,2.6601673032701014,2.574858963818848
1783246118556941300,6.74094140625,0.765892602315545,2.5226795715093613,2.6544045019596814
1783246118566953200,6.750953125,2.3926152677476407,2.6006641439437863,2.504826519432664
1783246118576964400,6.76096435546875,3.9842520067512988,2.5130931202575564,1.9447725699178873
1783246118586976300,6.770976318359375,5.655129455730319,2.1550559271678327,1.1501524702899157
1783246118596988200,6.78098828125,6.949771207106113,1.6266247580155728,0.1989224436715245
1783246118607000300,6.791000244140625,7.808075551137327,1.2622981093928216,-0.4887018008321523
1783246118617012200,6.80101220703125,8.285424183306098,1.1976990882322192,-0.6152572196900844
1783246118627023000,6.811023193359375,8.091531842756272,1.30119599532485,-0.1930018214508891
1783246118637035300,6.82103515625,7.4108444117784495,1.718107109926641,0.5219041054710746
1783246118647047200,6.831047119140625,6.755149967759848,2.3371327422395347,1.169495760924369
1783246118657059000,6.84105908203125,6.0678241216808555,2.9232360558986663,1.6686526125364005
1783246118667070500,6.851070556640625,5.3403889680534595,3.389698260132968,1.9962328541725873
1783246118677082400,6.861082275390625,4.732594339329004,3.5984570381641388,1.9208017656132577
1783246118687094300,6.87109423828125,4.28774220161736,3.7206975164324043,1.5864797946318983
1783246118697106400,6.8811064453125,4.125315843433142,3.807721135368943,1.1396199703596532
1783246118707118300,6.891118408203125,4.214070231685042,3.856224761775136,0.69965480097197
1783246118717129200,6.901129150390625,4.462448195660114,3.8452684834748503,0.4031340067271143
1783246118727141400,6.911141357421875,5.158889076086878,3.822730488452315,0.3835840876046568
1783246118737153300,6.9211533203125,5.966405482167005,3.9861511183708904,0.5458523326177149
1783246118747165200,6.931165283203125,6.805055862179398,4.041341675195098,0.5357285596188157
1783246118757176300,6.94117626953125,7.184260346460342,3.88221494307816,0.5024683142475783
1783246118767188200,6.951188232421875,6.701890671259164,3.7897675455272197,0.48540619335286317
1783246118777200000,6.9612001953125,5.5830719352573155,3.657838032415509,0.5393818944945931
1783246118787212300,6.97121240234375,4.284387045970559,3.5024130774259565,0.5485377723094076
1783246118797224200,6.98122412109375,3.279355432668328,3.0619214730113744,0.6337256271861493
1783246118807235300,6.9912353515625,2.1868957112818954,2.2581471760690213,0.505158283983916
1783246118817247500,7.00124755859375,1.1342676495462656,0.9053431585818529,0.09287022607289254
1783246118827259400,7.01125927734375,-0.1498509542495012,-0.9644511811107397,-0.03080781071782112
1783246118837271300,7.021271240234375,-2.452574938669801,-2.917718169260025,-0.2485825466364622
1783246118847282400,7.031282470703125,-5.820110174572467,-4.432881909435987,-1.2050696900654583
1783246118857294300,7.04129443359375,-9.255928673106432,-5.1300908516258,-2.0557631937667726
1783246118867306200,7.05130615234375,-11.86369358896613,-4.949013568985462,-2.180934172528982
1783246118877318400,7.061318359375,-13.345057935392855,-4.822212650933862,-1.3484667189352213
1783246118887330300,7.071330322265625,-12.950281203448771,-5.753548328906297,0.23675602484028785
1783246118897341200,7.081341064453125,-11.152123528468609,-7.008624962612986,1.663080219231546
1783246118907353300,7.091353271484375,-9.503422255462407,-7.983928961649537,2.0750310810774564
1783246118917365200,7.101365234375,-8.444256316390634,-8.933833731013536,1.762174799712002
1783246118927377200,7.111377197265625,-8.144925579291582,-9.542128125953674,1.2112212714977562
1783246118937388300,7.12138818359375,-8.214925582712889,-9.26797917638421,0.6206619282778352
1783246118947400400,7.131400390625,-7.762609684991836,-8.63537100892067,-0.04730323764048516
1783246118957412400,7.141412353515625,-6.914787572008371,-8.195662079316378,-1.0070353543400763
1783246118967424500,7.151424560546875,-6.4961050638198845,-7.702892590653896,-2.310629496847838
1783246118977436400,7.1614365234375,-7.377110484480857,-6.9396338439732785,-3.5259210865244266
1783246118987447300,7.171447265625,-8.687282982465625,-5.438209875336289,-3.774471776717901
1783246118997459500,7.18145947265625,-8.945752716866135,-3.403576271098852,-2.877536673258245
1783246119007471400,7.191471435546875,-7.955327721065283,-1.5401982281893491,-1.4264803713336587
1783246119017483300,7.201483154296875,-5.6040223688274615,-0.09617255555391312,-0.08011245130859315
1783246119027494100,7.211494140625,-2.4498686023205516,0.7301864981621503,0.7713655538339167
1783246119037506300,7.22150634765625,0.9259212517082691,0.9047826020896435,0.8562817521624266
1783246119047518200,7.231518310546875,3.5125989558756348,0.7819768911540508,0.2113029095560312
1783246119057530400,7.2415302734375,4.411330587363243,0.5838444288164377,-0.9446376426160334
1783246119067542300,7.251542236328125,4.223832331764698,0.3588467559069395,-1.984703744420409
1783246119077553200,7.26155322265625,3.1853362557560203,0.44648178474009037,-2.452017012526095
1783246119087565000,7.27156494140625,1.9947931767582892,0.7909352736353874,-2.254057276406884
1783246119097577200,7.2815771484375,0.9310580300748348,0.9648717446103692,-1.5655587332867085
1783246119107589000,7.291589111328125,-0.16590250986218452,1.1905290504723787,-0.85770455150716
1783246119117600300,7.301600341796875,-0.7359235805094242,1.3761983370780944,-0.07604103715121746
1783246119127612400,7.3116123046875,-0.3637561552584171,1.7469591104015707,1.0260773239403962
1783246119137624300,7.321624267578125,1.6179221038609741,2.3389289780065416,2.246253616918623
1783246119147636200,7.33163623046875,4.51872187154591,2.1924738036751745,3.188287799037993
1783246119157648400,7.3416484375,5.035390122190117,2.348188389261067,3.107937081994116
1783246119167659300,7.3516591796875,5.544941234305501,2.447212242592871,2.0253467204540967
1783246119177671200,7.361671142578125,6.806213215520978,1.9658222260788083,1.1045485108479858
1783246119187683300,7.371683349609375,7.69300014219284,1.872934099023044,0.414560021430999
1783246119197695200,7.3816953125,7.953663002723455,2.213765598028898,0.29053346346355974
1783246119207706000,7.3917060546875,7.64523652049899,2.7180349703490734,0.7281340956769883
1783246119217718300,7.40171826171875,7.2896104802042245,2.3550389858081937,1.2468474422827363
