time,seconds_elapsed,z,y,x
1783246156610112000,0.056112060546875,-2.1435364620268342,3.357232453075051,-1.9932867177180944
1783246156620124200,0.066124267578125,-2.900330981129408,2.604132112315297,-2.8097259965747594
1783246156630136000,0.076135986328125,-3.217290313899517,2.1599796473056077,-3.0800755538612603
1783246156640148000,0.08614794921875,-3.608870295628905,1.7050030059427022,-3.1451711263671513
1783246156650159000,0.0961591796875,-4.767055996379256,1.1347224075764417,-3.2404525783002374
1783246156660171000,0.1061708984375,-6.148333828678727,0.5835878237068652,-3.598607552550733
1783246156670183000,0.116182861328125,-6.848652427321672,-0.19053601585924623,-4.34944696264118
1783246156680195000,0.126195068359375,-5.701687793287634,-1.581196593531966,-4.9389481020450585
1783246156690206000,0.1362060546875,-3.3303403544962404,-3.399484033349156,-4.256701751187443
1783246156700217900,0.1462177734375,0.31196985391974447,-5.637268220347166,-1.861096215582639
1783246156710230000,0.15622998046875,4.17668070448935,-8.121739349493383,1.1274009786471724
1783246156720242000,0.166241943359375,7.183039864754677,-9.37573695579171,3.791226512163877
1783246156730253800,0.17625390625,9.209592453867197,-8.828779949867725,4.740522794240713
1783246156740265000,0.186264892578125,8.304923249024153,-7.927208711040019,2.6364997196957467
1783246156750277000,0.196277099609375,2.8637153609156605,-7.269325232544541,-1.0353621618971227
1783246156760289000,0.2062890625,-3.090272538226843,-4.986323016682267,-3.5569027925044296
1783246156770301200,0.21630126953125,-5.682094619545341,-1.0155793108016251,-5.113028657665849
1783246156780313000,0.22631298828125,-6.460947825720906,2.6341531565696,-5.5431333081007
1783246156790324000,0.236323974609375,-5.591210818049311,5.577537097483873,-4.544716436763108
1783246156800336100,0.246336181640625,-2.378718259820342,6.88295275633037,-2.3632898045420645
1783246156810348000,0.25634814453125,2.3937644377827643,6.4849103005886075,0.10713087968081235
1783246156820360000,0.26635986328125,7.2388529373914,6.092188747608661,2.011689074240625
1783246156830370800,0.276370849609375,10.22593924190998,6.502905976006388,3.3686420281007883
1783246156840383000,0.286383056640625,11.331719048118591,6.9912360209167,3.8143209720253943
1783246156850395000,0.296394775390625,10.941332075566052,7.373087220314145,3.1894986361324786
1783246156860407000,0.306406982421875,8.56809838463664,7.733525044804811,2.1426298685759306
1783246156870419000,0.3164189453125,5.9378112558454275,7.766708352482318,1.430382931730151
1783246156880430000,0.32643017578125,4.184676963940262,7.34834791585505,0.8775777842998504
1783246156890442000,0.33644189453125,3.287391439607739,6.794452635100484,0.44907150897234677
1783246156900454100,0.3464541015625,3.59409007512629,6.099679395624995,0.26726883466690776
1783246156910466000,0.356466064453125,4.861944941863418,5.288735353183746,0.47366555974185465
1783246156920477000,0.366476806640625,5.620315916502475,4.497303235942125,0.6413596291959285
1783246156930489000,0.376489013671875,5.249192447346449,4.019184203922748,0.7747367107674479
1783246156940501000,0.3865009765625,4.448027456119656,3.7342496564447876,1.0969885969877242
1783246156950513200,0.39651318359375,3.9137399621546267,3.14869871597141,1.5040443802684544
1783246156960525000,0.406525146484375,3.625529169484973,2.5217946053683757,2.1221727714806793
1783246156970536000,0.416535888671875,3.328977833971381,2.234097169048339,2.7245886297762394
1783246156980547800,0.4265478515625,3.07187003557384,2.2846876847311854,2.8983471138358112
1783246156990560000,0.43656005859375,2.9848014084517955,1.7964678221970796,2.3513579592078924
1783246157000572000,0.446572021484375,3.1414930223762987,0.9031099927023053,2.0233324580222365
1783246157010583000,0.4565830078125,3.5287545563846825,0.27972353483140466,2.14613699991405
1783246157020595200,0.46659521484375,3.9747371594309806,0.3362652140036225,2.323596092057228
1783246157030607000,0.476607177734375,3.2687650650709865,0.3993172979831695,2.532107325068116
1783246157040619000,0.486618896484375,1.3578688996613024,-0.35204642824232574,2.3961329204797743
1783246157050631200,0.496631103515625,-0.8607704418838024,-0.9885840441092848,2.677363352742791
1783246157060642000,0.50664208984375,-2.764455360740423,-0.9874319514647125,3.111587713456154
1783246157070654000,0.516654052734375,-3.61873673286587,-0.12039923431575297,3.8143461064666506
1783246157080666000,0.526666015625,-3.87414883326143,0.40037528260350225,4.688048510637879
1783246157090678000,0.536677978515625,-2.7533383389204737,-0.35603637466132637,4.766561490860581
1783246157100690000,0.54668994140625,-1.292532796397805,-1.709225592073798,3.8216216504275797
1783246157110701000,0.556701171875,-0.1813598989740014,-2.499745855167508,2.4214000482052565
1783246157120713000,0.566712890625,-0.15317483797520398,-2.840896795386076,1.7554413998037575
1783246157130724900,0.576724853515625,-0.3789601541310549,-3.1070734509021043,2.0735604240030048
1783246157140737000,0.586737060546875,-0.7263499887391924,-2.776190222197771,2.626401811790466
1783246157150748000,0.596747802734375,-1.0574491982817649,-2.084082402539253,2.464431380680203
1783246157160759800,0.606759765625,-1.970434688310325,-0.9056067779541015,1.7392600803315639
1783246157170772000,0.61677197265625,-2.773944489097595,0.4948199914515018,1.357403620237112
1783246157180783900,0.626783935546875,-2.9645740284591913,0.44405017367899413,1.0191402181535958
1783246157190795800,0.636795654296875,-2.382821018964052,0.2164543009698391,0.14188508993685245
1783246157200807200,0.64680712890625,-1.621721496143937,0.8121984264165163,-2.182899335122108
1783246157210819000,0.656819091796875,-1.7277686722412704,1.8235025441169739,-4.397067084211111
1783246157220831000,0.6668310546875,-2.8352745715901255,4.596121922090649,-5.551771372586488
1783246157230843100,0.676843017578125,-4.37121952624917,8.669748494818807,-6.543308129021525
1783246157240854000,0.68685400390625,-7.372956871932745,12.018648003834485,-7.301392687934636
1783246157250866000,0.696865966796875,-10.236840575152636,14.647465060073136,-6.8889020201236
1783246157260878000,0.706878173828125,-11.373334668576717,17.61429008232951,-5.411108517920971
1783246157270890000,0.716889892578125,-10.70506131349206,20.952343787682054,-4.3830572635591025
1783246157280902000,0.72690185546875,-9.215969587683677,23.608581934809685,-4.041569638732075
1783246157290913000,0.7369130859375,-8.03461285470426,23.90478723336458,-3.9868712493389844
1783246157300925000,0.746925048828125,-7.816553456625342,23.848020805525778,-4.844077569000422
1783246157310936800,0.756936767578125,-8.469950145095586,24.665404525625704,-5.80160479606688
1783246157320949000,0.766948974609375,-10.04453053535819,25.104962648582458,-6.966336557459831
1783246157330961000,0.7769609375,-13.18488257100582,24.115046771347522,-7.674436896020174
1783246157340972000,0.786971923828125,-15.947484997355938,20.86098301632404,-7.2977885259628295
1783246157350984000,0.79698388671875,-16.901153503167627,17.43078878741264,-6.376065310466289
1783246157360996000,0.80699609375,-16.11483010724187,14.455808515751361,-4.662306751137971
1783246157371008000,0.817008056640625,-14.176734384739397,10.509873087912798,-3.4425086438223715
1783246157381019000,0.827018798828125,-11.77178570511937,6.476462205716968,-4.10391795835644
1783246157391031000,0.837031005859375,-9.942109440803527,2.6451293086141345,-5.418462972337007
1783246157401043000,0.84704296875,-7.512862770751118,-1.6893804893970488,-6.152540632718801
1783246157411054800,0.857054931640625,-3.8343411390081044,-5.854760047671198,-5.685706380301713
1783246157421067000,0.86706689453125,-0.8541320267826318,-8.993920827707647,-3.558149577695131
1783246157431078000,0.877077880859375,0.5025827344074845,-10.934639299929142,-1.5679668173417447
1783246157441089800,0.88708984375,1.232530455377698,-11.5849690020442,-0.5909159746378659
1783246157451102000,0.89710205078125,1.2229562790855764,-11.992431028038263,-0.29880554418116806
1783246157461113900,0.90711376953125,-0.36889118005931376,-12.348132471656799,-0.2524731243342161
1783246157471125000,0.917125,-3.4096380553558467,-13.840790950036048,-1.0578057566344738
1783246157481137200,0.92713720703125,-4.317550187642872,-13.053664421033858,-0.8745780179619789
1783246157491149000,0.937149169921875,-2.458095163396001,-11.255675088357926,0.9824936182796955
1783246157501161000,0.947160888671875,0.36961218781024213,-9.709600661611557,3.9266602340042587
1783246157511173000,0.957173095703125,2.87727509971261,-9.202938841196895,5.425791123268008
1783246157521184000,0.96718408203125,1.8859391265466807,-12.912205447554587,3.976223014074564
1783246157531196000,0.97719580078125,1.5398226728752256,-11.75108544691801,3.9999838288903233
1783246157541208000,0.9872080078125,1.1501549545079468,-10.154572626310586,3.7185078974336383
1783246157551220000,0.997219970703125,0.33198476020544765,-9.488507010403275,4.798928221458197
1783246157561232000,1.00723193359375,0.48969081186950203,-8.73201410459578,5.432755701583623
1783246157571243000,1.017242919921875,1.410203774793446,-8.109406522142887,5.520006699535251
1783246157581255000,1.0272548828125,0.8694263342872262,-7.711601966810226,5.072585588118434
1783246157591266800,1.037266845703125,-0.5913549505770206,-6.973311657169461,5.087707753926515
1783246157601279000,1.047279052734375,-0.9008315263763069,-5.973460076853633,5.928576979032158
1783246157611289900,1.057289794921875,-0.9481170091643929,-6.123344348850846,6.481786031088233
1783246157621302000,1.067302001953125,-0.7505570860177279,-6.590736819672584,6.634373716825246
1783246157631314000,1.07731396484375,-0.19648294156491755,-7.001941539326309,6.104636141249537
1783246157641325800,1.087325927734375,0.4541086263567209,-7.400044200822711,5.152632938301563
1783246157651338000,1.097337890625,0.7630413045376538,-8.092247297549248,4.141282058849931
1783246157661349000,1.10734912109375,0.9475333640575409,-7.916070061910152,3.2278894493252035
1783246157671361000,1.117361083984375,1.0232967533111572,-9.033001376730203,1.4502227737098932
1783246157681373000,1.127373046875,1.7590780027404427,-9.939701210618018,-0.03643091129660606
1783246157691385000,1.137385009765625,2.21249426291883,-9.119462101086974,-0.062030631977319714
1783246157701396000,1.14739599609375,2.1477394666746257,-8.30544990324676,0.7078606845855713
1783246157711407900,1.157407958984375,2.148597544808686,-8.138349708032608,1.6470622736275196
1783246157721420000,1.167419921875,2.1434897002756594,-8.02111273714006,1.9180594811677931
1783246157731432000,1.177431884765625,1.9394070973619817,-6.87441055343449,1.8967226786285638
1783246157741443800,1.18744384765625,1.0703758998721837,-4.66633878313303,2.057785931766033
1783246157751455000,1.197455078125,-0.19626754524856804,-3.5902737317085265,2.0002982039153574
1783246157761467000,1.207466796875,-0.21518413490355012,-2.724762232777476,1.5610171443343162
1783246157771478800,1.217478759765625,0.7485363938450813,-0.48198155266642567,0.22522622096836564
1783246157781491000,1.227490966796875,1.735824552924931,1.8865549203574656,-1.579775620818138
1783246157791502800,1.2375029296875,1.766908550235629,4.5817625573486085,-3.678563425058126
1783246157801514000,1.247513916015625,0.6051984747514129,8.891984301799535,-6.238070798227191
1783246157811526100,1.257526123046875,-2.113255013270676,13.227856620335578,-9.009777153009177
1783246157821538000,1.2675380859375,-4.217705373317003,17.686420083516836,-10.341459472012518
1783246157831550000,1.277550048828125,-2.8320085555315018,21.853959450173377,-9.433063355600833
1783246157841561000,1.28756103515625,1.4012228882193565,24.611577073848245,-8.571172969776391
1783246157851573000,1.297572998046875,4.9219542971462005,26.92768660954237,-7.1423249925285575
1783246157861585000,1.3075849609375,7.170230652064085,28.456933820128437,-3.8096675932615995
1783246157871597000,1.31759716796875,7.235058221283555,26.687459803318976,-0.8599141173154116
1783246157881609000,1.32760888671875,5.374758270645141,23.293896392190454,1.0394693049550057
1783246157891619800,1.337619873046875,2.8070459637105465,22.425642901074884,0.7999713975280522
1783246157901632000,1.347632080078125,-1.4441069211781024,22.58225502002239,0.17718436685502528
1783246157911644000,1.357643798828125,-5.665598242774605,21.490045474004745,-0.11865911265015601
1783246157921655800,1.36765576171875,-9.257662949553131,19.357891991257667,-0.15706512341201304
1783246157931668000,1.37766796875,-10.842724401819705,16.659045705503225,0.24285072498619556
1783246157941679000,1.38767919921875,-10.048214192306995,13.960848239046335,0.7644979330867528
1783246157951691000,1.39769091796875,-7.559137615191936,11.106153219932317,1.126150394064188
1783246157961703200,1.407703125,-5.076036020833254,7.158025250485539,0.9256336669385433
1783246157971715000,1.417715087890625,-3.635797465521097,2.9607652838259932,0.2654962720364332
1783246157981726000,1.427725830078125,-2.5727298428356646,-0.3194195854038,-0.8472831838011741
1783246157991738000,1.437738037109375,-1.8722437786713242,-2.88522050575912,-1.9624995113968848
1783246158001750000,1.44775,-1.8128426184147595,-5.436430006182193,-2.4043325935482978
1783246158011762000,1.457761962890625,-2.1525801847040653,-8.0912921887815,-2.0174603511184452
1783246158021774000,1.467774169921875,-2.329882624980807,-10.034522351562977,-1.1899275774478912
1783246158031785000,1.477784912109375,-2.2652336271986364,-10.887968734169005,-0.10045359387397766
1783246158041796900,1.487796875,-2.195830128365755,-10.94823995525837,1.0724953762441873
1783246158051809000,1.49780908203125,-1.9921949769586325,-10.661616139519214,2.1728397134006023
1783246158061821000,1.507821044921875,-1.9979133546054362,-10.350231976532935,3.108224374502897
1783246158071832000,1.51783203125,-2.5086460777208206,-10.1123257222116,3.918907135659456
1783246158081844000,1.527843994140625,-3.1981825855866073,-9.832747733330725,4.304484662103652
1783246158091856100,1.537856201171875,-3.622498131226003,-9.56335854550898,4.120356759721041
1783246158101868000,1.547867919921875,-3.784796186855435,-9.110492612689733,3.7213539345145223
1783246158111880200,1.557880126953125,-3.716709031318128,-8.46211053751111,3.3963708697646853
1783246158121891000,1.56789111328125,-3.068777330255508,-8.140928618609905,3.126986358118057
1783246158131903000,1.577903076171875,-2.3091505103364587,-8.039143483871221,2.7426842584371567
1783246158141915100,1.5879150390625,-1.6872259417116642,-7.886789022368192,2.4265023397803307
1783246158151927000,1.597927001953125,-1.2617431058585642,-7.793109452673792,2.270674064686894
1783246158161938000,1.60793798828125,-1.3609215652301907,-7.995181592547893,1.9705588992118834
1783246158171949800,1.61794970703125,-1.9882611446410416,-8.18280844296217,1.541403512325883
1783246158181962000,1.6279619140625,-2.633345931839943,-8.202171315079926,1.3644938707590102
1783246158191974000,1.637973876953125,-3.4299279791906474,-8.412402211490273,1.3569547074258326
1783246158201986000,1.647986083984375,-4.31127856002748,-8.533020056992768,1.4317366844266652
1783246158211997000,1.657996826171875,-4.988379364690184,-8.498189566630124,1.5195137520790098
1783246158222008800,1.6680087890625,-5.417793110251426,-8.733010714417695,1.6898387545585631
1783246158232020700,1.678020751953125,-5.507005763664841,-8.73471927190125,2.234199898770451
1783246158242033000,1.688032958984375,-5.250048771914839,-8.066134951171279,2.9370190820574757
1783246158252044800,1.698044921875,-5.029285960096121,-7.056794827020168,3.707525900170207
1783246158262056000,1.708055908203125,-4.6044536971062415,-6.7113201783835885,4.0654777530640365
1783246158272068000,1.718068115234375,-3.516285535433888,-7.118591065719723,3.615675299468636
1783246158282080000,1.728080078125,-2.4351000722557306,-6.855452170464396,2.9984178458720443
1783246158292092000,1.738091796875,-1.897891430146992,-5.714509865459799,2.503721773061156
1783246158302103000,1.74810302734375,-1.644204253847897,-4.274982088765502,2.15363407767117
1783246158312115000,1.758114990234375,-0.8673790463685989,-3.8590456644147633,1.8000170391112564
1783246158322126800,1.768126953125,-0.1963280432641506,-3.7114047874301668,1.136855327951908
1783246158332139000,1.778138916015625,0.041024668827652926,-1.9542635979712009,-0.12549275806248186
1783246158342151000,1.78815087890625,-0.7010954282343387,1.0416314514249563,-1.8577812458157539
1783246158352161800,1.798161865234375,-2.66298586782217,3.755547880539298,-4.006978217822313
1783246158362173700,1.808173583984375,-3.91065602466464,7.574094945827126,-6.398601551923155
1783246158372185900,1.818185791015625,-3.862655087083578,13.460657660472393,-8.126177624201775
1783246158382197800,1.82819775390625,-4.0519653605401516,18.792241975301504,-8.549273857179283
1783246158392209700,1.838209716796875,-4.334691584318876,21.058927847135067,-7.8440458591848605
1783246158402220800,1.848220703125,-4.038298069715499,19.780781888008118,-6.579371960571408
1783246158412233000,1.85823291015625,-2.332997542130947,18.43778673235178,-6.581125526240467
1783246158422244900,1.868244873046875,-0.38826165096163745,18.84926208564043,-6.436840389424562
1783246158432257000,1.878257080078125,1.2703992905229329,18.282043212932347,-4.42532287235856
1783246158442268000,1.888267822265625,3.1738334494888782,16.515682359707355,-2.0508628545045853
1783246158452279800,1.89827978515625,5.250358568516373,15.582791268986462,-0.6961673241823911
1783246158462292000,1.9082919921875,6.251744518792629,16.04417894643545,0.00300853416621685
1783246158472303900,1.918303955078125,5.8868257494956255,16.617133147925138,-0.1114531267940998
1783246158482315800,1.928315673828125,5.040574246829748,16.58920703012347,-0.8750894746154546
1783246158492326700,1.93832666015625,2.5490327409058806,15.533623625713586,-1.6613643552243709
1783246158502338800,1.9483388671875,-0.7061486199706792,13.861328711152076,-2.492405429276824
1783246158512350700,1.958350830078125,-3.5147798070460556,12.027612231534718,-3.10279182806015
1783246158522363000,1.96836279296875,-5.377104541510343,10.088958875149487,-2.8932272866040467
1783246158532374000,1.9783740234375,-5.886639287012815,7.677367104253173,-1.8688479987531899
1783246158542386000,1.988385986328125,-5.088879135793447,4.444534937828779,-0.7636193966865539
1783246158552397800,1.998397705078125,-3.9407249997138973,1.0024754990786313,0.5380459697157144
1783246158562410000,2.008409912109375,-2.3862948325544595,-1.8129782274931667,2.256504085037112
1783246158572422000,2.018421875,-0.7339402977377176,-3.968448872941732,4.414691003707051
1783246158582432800,2.028432861328125,0.19876959119737148,-5.579846543470024,6.7952148516446345
1783246158592445000,2.03844482421875,0.924332521212101,-6.331513636556267,8.630459271481632
1783246158602456800,2.048456787109375,0.807896345308423,-6.1045852878451345,9.637483519905805
1783246158612469000,2.058468994140625,-0.47201983836144207,-5.982562251719832,9.790362297543883
1783246158622481000,2.06848095703125,-2.259877945384383,-6.172476336288452,9.371556455236673
1783246158632491800,2.07849169921875,-4.333406805205345,-6.489024165648222,8.507715519866347
1783246158642503700,2.088503662109375,-6.395793508765101,-7.127900745856762,6.824768278387189
1783246158652515800,2.098515869140625,-8.03228295045197,-7.885294399896264,4.740982812967896
1783246158662527700,2.10852783203125,-8.807288833549618,-8.220188033285737,2.854497450715303
1783246158672539000,2.118538818359375,-8.331330194434523,-7.989939015719294,1.6950509362488984
1783246158682550800,2.12855078125,-6.433676372435689,-7.783470102190971,1.013037809625268
1783246158692563000,2.13856298828125,-4.3715182169348,-7.85766171208322,0.9700076461941003
1783246158702574800,2.148574951171875,-3.019858108785748,-7.723124646821618,1.4731044676035643
1783246158712586800,2.158586669921875,-2.1071692636162043,-7.191243044954538,2.0953443857878447
1783246158722598000,2.168597900390625,-1.7050865925729273,-6.864663650923967,2.65685014154613
1783246158732609800,2.17860986328125,-1.6603373502641916,-6.743181882068514,3.0723277162134646
1783246158742622000,2.1886220703125,-1.9737807838678358,-6.669208883363008,3.369959832701087
1783246158752633900,2.1986337890625,-2.5642811634421347,-6.660471450155973,3.641753743577003
1783246158762644700,2.208644775390625,-3.073117405286431,-6.588977408784627,4.03497856990397
1783246158772657000,2.218656982421875,-3.664506550393998,-6.5327656922191375,4.43302570182085
1783246158782668800,2.228668701171875,-4.226501550973952,-6.580390197703242,4.597954982736707
1783246158792680700,2.2386806640625,-4.324430010284483,-6.742849289113283,4.493851049661636
1783246158802692900,2.24869287109375,-4.218044688273966,-6.903277751478552,4.30780942261219
1783246158812703700,2.258703857421875,-3.882884512902796,-7.188114099279046,3.8862580809891223
1783246158822715600,2.268715576171875,-3.31548619197458,-7.655781879910826,3.202408971109986
1783246158832727800,2.278727783203125,-2.4347996280044315,-7.813453152522444,2.3212042284846306
1783246158842739700,2.28873974609375,-1.243397594089806,-7.936720051229,1.372149938470125
1783246158852750800,2.298750732421875,-0.4694964573636651,-8.041772663331031,0.8380915770858526
1783246158862763000,2.308762939453125,-0.3250011849284172,-7.7524267291516065,1.0774433540403843
1783246158872775000,2.31877490234375,-0.19206570964455602,-7.279751349490881,1.5320359645217656
1783246158882786800,2.328786865234375,0.25829145522415636,-6.900425869178772,1.6547066509008406
1783246158892799000,2.338799072265625,0.5810843164533377,-6.340853711831569,0.8439110770195722
1783246158902809900,2.348809814453125,0.4947422500401735,-5.30974657703042,-1.2955793244868516
1783246158912821800,2.35882177734375,-0.4404518569260835,-4.408247818917036,-4.733936401587725
1783246158922834000,2.368833984375,-1.1958628127157687,-1.9094167405068874,-9.666445410495996
1783246158932845800,2.378845703125,-2.442712300825119,2.9903216331779956,-14.15888308622837
1783246158942857700,2.388857666015625,-3.2339977030724287,9.668031802904606,-16.05600265522003
1783246158952868900,2.398868896484375,-2.500286537915468,17.37307426506877,-15.329360113275051
1783246158962880800,2.408880859375,-3.0442461155891416,23.19285827642679,-11.680324395996331
1783246158972892700,2.418892578125,-3.6212452085554596,25.202089143860338,-6.881305573645234
1783246158982904800,2.42890478515625,-2.431730888083577,26.318434767746925,-3.929694487133622
1783246158992916000,2.438916015625,-1.52988317040205,27.79174323348999,-2.289597376343608
1783246159002927900,2.448927978515625,-2.9723680433362722,23.941665888428687,-1.4107733913749456
1783246159012940000,2.45893994140625,-5.3030497097402804,17.95137216567397,-1.3101806812912224
1783246159022952000,2.468951904296875,-7.167694996106624,14.85652515913844,-1.8692104023247955
1783246159032963800,2.4789638671875,-7.71840287899673,13.887472037190198,-2.894599159479141
1783246159042975000,2.48897509765625,-6.957566975548863,13.705614417827128,-3.85584423802495
1783246159052987000,2.49898681640625,-6.220151695176959,12.767023069638013,-4.290057492822409
1783246159062998800,2.508998779296875,-6.033863984411955,10.848501816177368,-4.12295086786747
1783246159073011000,2.519010986328125,-6.31461218611598,8.475358141618967,-3.442563881140947
1783246159083022800,2.52902294921875,-6.081142452937364,6.415567884293198,-2.2781278878241777
1783246159093033700,2.53903369140625,-4.816652678719163,4.309034580492973,-0.7894055798500775
1783246159103046000,2.5490458984375,-3.23819164763093,1.9046926345944404,0.7742354832470416
1783246159113057800,2.559057861328125,-1.701894518533349,-0.9269061710923909,2.0341402677625418
1783246159123069700,2.569069580078125,-0.568202038526535,-3.6842145826876163,2.9438211632877587
1783246159133080800,2.579080810546875,0.24965982047915458,-5.86076250295639,3.8045962813466785
1783246159143093000,2.589093017578125,1.1932359713435172,-7.810015579289198,4.71505108385384
1783246159153105000,2.59910498046875,2.3810113391935825,-9.365204455861448,5.546411891379952
1783246159163117000,2.609116943359375,3.507622921028733,-10.030869089752436,6.169704533487558
1783246159173129000,2.61912890625,4.052646328541636,-10.179677841472625,6.842692057612538
1783246159183139800,2.629139892578125,4.040357924854755,-10.517893897283077,7.3175623169690365
1783246159193152000,2.639152099609375,3.5012177301615472,-10.772780512499809,7.288956984731555
1783246159203164000,2.649163818359375,2.902402526706457,-10.643117190754413,6.9846952209711075
1783246159213175800,2.65917578125,2.5393933904230592,-10.199862551367282,6.705178022366762
1783246159223188000,2.66918798828125,2.574153738158941,-9.589230068868398,6.620949002584815
1783246159233198800,2.67919873046875,2.786753117266297,-8.844134170866012,6.498714954057336
1783246159243210800,2.689210693359375,3.092808194184303,-8.029255127063394,6.255988147711753
1783246159253223000,2.699222900390625,3.3431752861499784,-7.198347324001789,5.927386307942867
1783246159263234800,2.70923486328125,3.5834032614171503,-6.469344482666254,5.434905573093891
1783246159273245700,2.71924560546875,3.636405368286371,-6.275885857358574,4.736942597666382
1783246159283257600,2.729257568359375,3.509144431507587,-6.20793343411684,4.073845768436789
1783246159293269800,2.739269775390625,3.3991496868282556,-6.130289637944102,3.4985154854655263
1783246159303281700,2.74928173828125,3.3155227245926855,-6.324297713828087,2.8190263243615625
1783246159313293800,2.7592939453125,3.1466420757025477,-6.757220344293117,1.9068354918420314
1783246159323305000,2.769304931640625,3.025192455551028,-7.226497313687205,0.9246715439081191
1783246159333316900,2.77931689453125,2.937007391619682,-7.511006329229474,0.3757324242562055
1783246159343329000,2.7893291015625,2.496892219302058,-7.640607107132673,0.025752280893921852
1783246159353341200,2.799341064453125,1.7878648290246724,-7.68389972089231,-0.28721885902285577
1783246159363352300,2.809352294921875,1.4227286175847054,-7.733855299672484,-0.5844231054872274
1783246159373364200,2.8193642578125,1.5155892721116542,-7.924888159137963,-0.8212772204071283
1783246159383376100,2.829376220703125,1.8862953926384447,-8.251846323353051,-0.6840443401902914
1783246159393388300,2.83938818359375,1.9833055680602787,-8.178140451151132,-0.22173194911181926
1783246159403400200,2.849400146484375,1.39866092877686,-7.598165557244419,0.45194121918976304
1783246159413411000,2.8594111328125,0.4826385552704334,-7.018638407105207,1.4769196419775485
1783246159423423200,2.86942333984375,-0.10491817206740378,-6.222080617412924,2.3466578186929223
1783246159433435100,2.87943505859375,-0.3762608320444822,-5.1655438578009605,2.652324188554287
1783246159443447000,2.889447021484375,-0.775351920056343,-4.130004293510318,1.7880027761906385
1783246159453459200,2.899459228515625,-1.9475860199034214,-3.0900860757440327,-0.7805629327028989
1783246159463470300,2.90947021484375,-4.102988276290893,-1.0563175639033318,-4.053017499941587
1783246159473482200,2.919482177734375,-6.930296106785535,2.509076578092575,-7.332827106118202
1783246159483494400,2.929494384765625,-9.197011204713583,8.059701703253388,-10.435264713913202
1783246159493506300,2.93950634765625,-10.333630385822056,16.183991906273363,-12.605097646713256
1783246159503517200,2.94951708984375,-11.049054783660173,23.70926699935198,-13.103376838707923
1783246159513529300,2.959529296875,-10.844426529562472,27.15739435983896,-11.05834634361863
1783246159523541200,2.969541259765625,-8.209929089599846,27.091118929898737,-8.521185826814174
1783246159533553200,2.97955322265625,-4.145168544894457,25.56430800654888,-7.132530743744969
1783246159543565300,2.9895654296875,-1.453104466626048,21.83664591180086,-4.236908378697931
1783246159553576200,2.999576171875,-0.3929050928533077,16.875551444399356,-1.7732219711661337
1783246159563588000,3.009588134765625,-0.3755640819519758,15.139135647583007,-1.577783862479031
1783246159573600300,3.019600341796875,-0.4661187976241111,16.68566833949089,-2.5637775978341697
1783246159583612200,3.029612060546875,-1.1689537630021571,17.43810115625262,-3.43500542858541
1783246159593624000,3.0396240234375,-3.8533693723440168,15.762597216516733,-3.4060891307026147
1783246159603635200,3.04963525390625,-6.8006064815551035,13.477178587162493,-2.799147027154267
1783246159613647000,3.059647216796875,-8.062764597955345,11.46492223442793,-2.327357782678306
1783246159623659000,3.069658935546875,-8.615854992067813,9.208682937806843,-1.5227373903006314
1783246159633671200,3.079671142578125,-8.567489312827586,6.419323437434435,0.09334200830310582
1783246159643682300,3.089682373046875,-6.723475311079621,3.46810924128592,1.391712424813211
1783246159653694200,3.099694091796875,-4.119628445446491,0.1666524514466524,2.0451134971976277
1783246159663706400,3.109706298828125,-2.2935540050148964,-3.072588412976265,2.499639472183585
1783246159673718300,3.11971826171875,-0.38584114581644535,-5.780396588343382,2.748416080087423
1783246159683730200,3.129730224609375,1.6424468887865542,-7.575289124047756,3.2373812080308793
1783246159693741300,3.1397412109375,3.353175871160626,-8.591361771324276,3.7083167582869527
1783246159703753200,3.149753173828125,3.97492479095757,-9.069125414034724,3.9136958307519554
1783246159713765000,3.15976513671875,3.2960230743527412,-9.272254369485378,4.152984187081456
1783246159723777300,3.16977734375,1.9100322420567273,-9.125723499569297,4.586108477598429
1783246159733789200,3.1797890625,0.8906704901069402,-8.827804382833838,4.722223459701239
1783246159743800000,3.189800048828125,0.19180793549120426,-8.797157315635681,4.721576686230302
1783246159753812200,3.199812255859375,-0.3247475024282932,-8.624000304600596,4.607123793098331
1783246159763824000,3.20982421875,-0.43686172347962854,-8.366741115033626,4.421507697984576
1783246159773836000,3.2198359375,-0.17848960423469543,-8.36147574185133,4.107791000397503
1783246159783847400,3.229847412109375,0.5389508096009492,-8.616353589239717,3.940308527867496
1783246159793859300,3.239859375,1.755459519982338,-8.857591033810376,3.828863292118907
1783246159803871200,3.249871337890625,2.685785728651285,-9.028284869602322,3.4893075121372936
1783246159813883400,3.25988330078125,3.5209769081205127,-9.152757052445411,2.9577605490520593
1783246159823895300,3.269895263671875,3.9117292068541047,-9.243164468601346,2.64597744987607
1783246159833906200,3.27990625,4.031443381515145,-9.16208426823914,2.4661130501568316
1783246159843918300,3.28991845703125,3.7346430396765466,-8.719803442320227,2.5520544268146157
1783246159853930200,3.29993017578125,3.341384018819034,-8.210310782393814,2.8728432547450065
1783246159863942100,3.309942138671875,2.8107047784790393,-7.946854491752386,3.0261954951137304
1783246159873953000,3.319953125,1.9599673625707625,-7.764082095631957,3.00111132273972
1783246159883965200,3.329965087890625,1.1829705979168414,-7.599895742037892,3.0202175897479058
1783246159893977000,3.33997705078125,0.7910989397644996,-7.510847339275479,3.2216105151861902
1783246159903989200,3.3499892578125,0.7772688595935702,-7.461636441382765,3.7355239141643044
1783246159914001200,3.360001220703125,0.7414841372460127,-7.577061394417285,4.234865766954422
1783246159924012300,3.37001220703125,0.6632499739646911,-7.8276506047010415,4.497113850849867
1783246159934024200,3.380024169921875,0.37708383886516095,-8.018747177052497,4.458844618210196
1783246159944036400,3.390036376953125,-0.12316226928830146,-7.658150947129726,4.438374077111482
1783246159954048300,3.40004833984375,-0.762531893710792,-7.2136430928111075,4.450038211420178
1783246159964060400,3.410060302734375,-0.886752439880371,-7.0425330774337045,4.161846123450994
1783246159974071300,3.4200712890625,-1.0061971499502658,-6.709366706228256,3.871302503919601
1783246159984083200,3.430083251953125,-1.3210831835776566,-6.037388651406765,3.7388890066832303
1783246159994095400,3.440095458984375,-1.8960159916639328,-5.60376401015222,3.7434354179412126
1783246160004107300,3.450107177734375,-3.3139258107900615,-5.276503063598275,3.7641988045066594
1783246160014118100,3.4601181640625,-5.101689517527818,-4.433388689914345,2.7594413319706916
1783246160024130000,3.470130126953125,-7.827235594159364,-2.6875702739804983,0.6868956379681825
1783246160034142200,3.48014208984375,-10.314391432344912,0.28249183050096033,-1.8527394522562621
1783246160044154000,3.490154052734375,-10.564805286061763,5.713399858391284,-5.022546422708034
1783246160054166300,3.500166259765625,-10.79853220887184,12.216115864783525,-7.692635400533676
1783246160064177200,3.51017724609375,-11.17797108643055,17.76465132418871,-9.428232866704464
1783246160074189300,3.520189208984375,-10.862460198903083,20.9289792787075,-10.220726475697756
1783246160084201200,3.530201171875,-8.090324220532178,21.68386591836214,-10.230255351543425
1783246160094213000,3.540213134765625,-4.183330225506425,20.3781749497056,-9.884982947480678
1783246160104225300,3.550225341796875,-2.1054513537824153,19.89659204096794,-9.097411012798547
1783246160114236200,3.560236083984375,-1.8753502202540635,18.710459179627893,-6.598443740788102
1783246160124248300,3.570248291015625,-3.308127353644371,15.395518638837336,-4.484452814458311
1783246160134260200,3.58026025390625,-4.591687739035487,14.075125775611399,-3.9588846335217354
1783246160144272400,3.5902724609375,-4.666355734267831,14.014778566676377,-4.137730503848195
1783246160154283300,3.600283203125,-4.310951227769255,13.149386894732713,-4.4341509064584965
1783246160164295200,3.610295166015625,-4.213959757047891,12.028527592813967,-4.423830880235135
1783246160174307000,3.62030712890625,-3.741643858349323,11.788625780761242,-3.737712364119291
1783246160184319200,3.6303193359375,-3.249375304946303,11.388838527178764,-2.5914678610533475
1783246160194331100,3.6403310546875,-2.5475614993095395,10.418263310229777,-1.414484959243983
1783246160204342000,3.650342041015625,-1.283338267073035,8.959441635000704,0.11844210889860987
1783246160214354200,3.660354248046875,0.2918190462946892,6.614428076383471,1.8360802861392498
1783246160224366000,3.670365966796875,1.0431932939141988,3.6910569959282875,2.961832913057506
1783246160234378000,3.6803779296875,0.1606885746061802,0.6856810014814138,3.2932726066008207
1783246160244390100,3.69039013671875,-0.7360200266212225,-2.0478484751194714,3.588785538977384
1783246160254401300,3.7004013671875,-0.7312444827824831,-4.000925493654608,3.687688688538968
1783246160264413200,3.7104130859375,-0.6629436844944954,-5.27880549532175,3.5879704232022163
1783246160274425300,3.72042529296875,-0.3707230716615915,-6.18794103192389,3.9491567279726265
1783246160284437200,3.730437255859375,0.034819968968629836,-6.989518695604801,4.26157724826932
1783246160294448000,3.7404482421875,0.33901334366798397,-7.710608279597759,4.444024942480027
1783246160304460300,3.750460205078125,0.8146493266999721,-8.198085507071017,4.482887172576785
1783246160314472200,3.76047216796875,1.331686995178461,-8.335490821245312,4.339570880793035
1783246160324484000,3.770484130859375,2.02808228289783,-8.37208539867103,4.183176788510382
1783246160334496300,3.780496337890625,2.8607886598139998,-8.365333001801371,4.062086357060075
1783246160344507100,3.790507080078125,3.544847028529644,-8.39862678411603,3.810688460741937
1783246160354518500,3.8005185546875,3.8485967511147257,-8.522435534614324,3.1621281063869593
1783246160364530400,3.810530517578125,4.024619088453054,-8.672289411473274,2.1889041284948587
1783246160374542600,3.82054248046875,4.6331771027654405,-8.740513052871822,1.4594620189592242
1783246160384553500,3.830553466796875,5.356280364668369,-8.715053032922745,1.056333930516243
1783246160394565400,3.8405654296875,5.670287861895561,-8.423035833707452,1.03777331469208
1783246160404577500,3.85057763671875,6.026744507795572,-7.839620443958044,1.5990686425700782
1783246160414589400,3.86058935546875,6.24443156543076,-7.248934186422824,2.3366189474985
1783246160424601300,3.870601318359375,6.073712010675669,-6.905910438069701,2.7894994933649895
1783246160434612200,3.8806123046875,5.346306083142757,-6.788560654452443,2.7327742743194103
1783246160444624400,3.890624267578125,4.5180964331239455,-6.677223262992501,2.568624453343451
1783246160454636300,3.90063623046875,3.777717042249441,-6.681395580241084,2.320076685759425
1783246160464648400,3.9106484375,3.057273939466476,-6.894510507655143,1.9162945173218846
1783246160474660400,3.920660400390625,2.427260464671254,-7.02538495875597,1.909895171673596
1783246160484671200,3.930671142578125,1.9516297423362732,-6.991355263382196,2.1182705033451317
1783246160494683400,3.940683349609375,1.4221616313517094,-6.735669606742262,2.295813766640425
1783246160504695300,3.9506953125,0.8810521824121474,-6.521514814886451,2.4132763629823923
1783246160514707200,3.960707275390625,0.513245874980092,-6.554867049390078,2.2183283758997914
1783246160524718300,3.97071826171875,0.2600286542803049,-6.738365421697497,1.737795852997899
1783246160534730500,3.98073046875,0.3843734113514423,-7.081406705707312,1.2236644273549317
1783246160544742400,3.990742431640625,0.5666267520338296,-7.350117848137021,0.6824217074245214
1783246160554754600,4.000754638671875,-0.7398281867325306,-6.991866720035672,0.09167699770033359
1783246160564766500,4.010766357421875,-3.648888417762518,-5.978987900364398,-0.3795835467264056
1783246160574777300,4.02077734375,-6.879070361939072,-4.507125541776419,-1.2722238756015896
1783246160584789200,4.030789306640625,-10.078144051146507,-1.715650656685233,-2.61598738528192
1783246160594801400,4.040801513671875,-12.718099756515025,2.069145530170202,-4.127107110764086
1783246160604813300,4.050813232421875,-13.190015842241047,6.059752458906173,-5.996998188829422
1783246160614825500,4.060825439453125,-11.977201894724368,11.035291631245613,-7.196777298206091
1783246160624836400,4.07083642578125,-9.748057525777817,16.93616051914096,-7.424959446370601
1783246160634848300,4.08084814453125,-7.665210802513361,21.120185741174218,-6.732318542748689
1783246160644860200,4.090860107421875,-5.256601846820116,21.763999193263054,-4.9442684202849865
1783246160654872300,4.100872314453125,-1.9331506673157215,19.33794810438156,-3.6380268320083617
1783246160664883500,4.110883544921875,0.38877719926834103,15.986676021015644,-3.040780777566135
1783246160674895400,4.120895263671875,-0.7029705744564533,11.089024390476942,-2.0658345059260723
1783246160684907500,4.130907470703125,-4.112643408864736,7.144993334954977,-1.1392056904703378
1783246160694919400,4.14091943359375,-6.045128890269995,7.520193259769678,-0.40264556562304493
1783246160704931600,4.150931640625,-5.423596828094125,11.066530819118022,-1.0456652369856834
1783246160714942500,4.1609423828125,-4.762607784798741,13.42889941716194,-2.0850845653191206
1783246160724954400,4.170954345703125,-5.093811331498623,12.941387118375301,-1.8170795253321528
1783246160734966300,4.18096630859375,-4.8352708699494595,11.558453920084238,-1.3109957970663904
1783246160744978400,4.190978515625,-3.829613818225264,10.83338841819763,-0.7501637027859688
1783246160754990300,4.200990234375,-2.9127842199891805,10.238750792688132,0.07658990320563316
1783246160765001200,4.211001220703125,-2.458714172077179,8.90124605114162,0.4623687974408269
1783246160775013400,4.221013427734375,-3.2975843323200937,6.323274215999246,0.03300941241532564
1783246160785025300,4.231025390625,-5.923394023436307,2.9141251132041215,-0.2981725069746375
1783246160795037200,4.241037109375,-7.115543368586898,-0.04985504101514816,0.2611991593644023
1783246160805048600,4.251048583984375,-5.903492806658148,-2.5788468644112346,1.3691031181201339
1783246160815060500,4.261060546875,-3.4559389110207555,-4.502009806197881,2.5793030837461353
1783246160825072400,4.271072265625,-0.8748638491660355,-5.814326914995909,3.5659929846718907
1783246160835084500,4.28108447265625,1.6326888803601265,-6.4340837841928,4.114451335069537
1783246160845096400,4.291096435546875,2.8583552951872346,-6.809904471254348,4.0470048155233265
1783246160855107300,4.301107421875,2.55778069550693,-7.301132575693726,3.7205499246552582
1783246160865119500,4.311119384765625,1.2504729393035172,-7.711211506187915,3.467683709350228
1783246160875131400,4.32113134765625,0.16369126355350017,-7.969919725519418,3.6653769034877417
1783246160885143300,4.331143310546875,-0.321111191752553,-8.314555000722407,3.9731636265039443
1783246160895154400,4.341154541015625,-0.1618897670894861,-8.727858153960108,4.14801516649723
1783246160905166300,4.351166259765625,0.336646614536643,-9.084185620522499,4.04366018127054
1783246160915178200,4.36117822265625,1.2141209384620189,-9.16266060682237,3.6498382658332584
1783246160925190400,4.3711904296875,2.187961294686794,-9.116387515947222,3.110050420886278
1783246160935202300,4.381202392578125,3.0253040992319584,-9.102782768964767,2.7380934235155583
1783246160945213400,4.39121337890625,3.899867504146695,-8.785617684489488,2.760909650957584
1783246160955225300,4.401225341796875,4.508438962462544,-8.263513380271196,3.1329835527062415
1783246160965237500,4.411237548828125,4.453435452643037,-7.923841864955425,3.3742847101628777
1783246160975249400,4.42124951171875,3.469502156949043,-7.743207649907469,3.1954443927943705
1783246160985261600,4.431261474609375,2.4875492214173076,-7.322233815911412,3.000288608179986
1783246160995272400,4.4412724609375,2.1965438295930624,-6.819464911282062,2.983927548226714
1783246161005284400,4.451284423828125,2.4191899709403515,-6.229508137065172,3.1918001910731193
1783246161015296500,4.461296630859375,2.9010721548855303,-5.921229538878798,3.3517262568742034
1783246161025308400,4.471308349609375,3.3064959530502556,-6.257074773904681,3.2333167350709435
1783246161035319300,4.4813193359375,3.6296418655008074,-6.501477404507995,3.0637980805382132
1783246161045331500,4.49133154296875,3.9756151113092897,-6.4178644707977766,2.892728397171199
1783246161055343400,4.50134326171875,3.8111540324270723,-6.561681990101933,2.604165722323954
1783246161065355300,4.511355224609375,2.9666788917839524,-7.020551547250151,2.128077903871238
1783246161075367400,4.521367431640625,2.035521492987871,-7.379329329574108,1.7019883342966435
1783246161085378300,4.53137841796875,1.171134029650688,-7.338694536846876,1.6902496734470127
1783246161095390200,4.54139013671875,0.9625918169796466,-7.26304279127419,2.0525024384051562
1783246161105402400,4.55140234375,1.2966671197235584,-7.364208917331695,2.700931275334954
1783246161115414300,4.561414306640625,1.436895674625039,-7.165640986186266,3.4458477251172064
1783246161125426200,4.57142626953125,1.3372902220129965,-6.452494470152258,3.9293706620067357
1783246161135437600,4.5814375,1.22111240478456,-5.613825385439395,3.460863507941365
1783246161145449500,4.591449462890625,1.0045920528411865,-4.694741870796681,2.04184601983428
1783246161155461400,4.60146142578125,-0.13903496120274067,-3.3694998139739036,0.414365229511261
1783246161165473500,4.6114736328125,-1.672065781980753,-1.561423971569538,-0.9578069207906722
1783246161175484400,4.621484375,-2.906884056034684,0.7481131999969483,-1.5444985557317732
1783246161185496300,4.631496337890625,-3.316784122830629,4.63043686414659,-1.9286428345024584
1783246161195508500,4.641508544921875,-2.584187640917301,9.928969388723372,-2.9695003789454697
1783246161205520400,4.651520263671875,-1.1796434993207454,14.885383004832267,-4.311567898362875
1783246161215532300,4.6615322265625,0.1772919188827276,17.776914593434334,-4.62512239112556
1783246161225543400,4.67154345703125,0.5412479806274175,17.887447682774066,-4.805465514272451
1783246161235555300,4.681555419921875,0.813129569786787,17.576128986239432,-6.070007310938835
1783246161245567200,4.691567138671875,0.5086994637221097,18.413416845726967,-6.911385070088506
1783246161255579400,4.701579345703125,-1.350887370210886,18.46543929390907,-7.998212338545918
1783246161265591300,4.71159130859375,-3.166116006979346,18.079680565679073,-9.025940936824679
1783246161275602400,4.7216025390625,-4.010539125174284,19.403115280818938,-9.36587197985947
1783246161285614600,4.731614501953125,-4.0890450911343095,22.445893077421186,-9.400919327843189
1783246161295626500,4.74162646484375,-4.1637072411477565,25.651058069241046,-9.09746128168106
1783246161305638400,4.751638427734375,-5.114662396347523,26.346166824281212,-8.258970476144551
1783246161315649300,4.761649169921875,-7.08060649524033,23.370141427481173,-7.092378181576729
1783246161325661400,4.771661376953125,-9.113005472293496,19.149543839854,-5.699076734006405
1783246161335673300,4.78167333984375,-10.143999794369936,16.248368809115885,-4.927118548041582
1783246161345685500,4.791685546875,-11.471062052357196,13.10129594078064,-4.876240009197592
1783246161355697400,4.801697509765625,-13.412429928398131,9.0763699783355,-4.834022331193089
1783246161365708300,4.811708251953125,-14.523743987858294,4.17945893703103,-4.098495056524873
1783246161375720400,4.821720458984375,-13.775296441340446,-0.9806342541486024,-2.944430235096812
1783246161385732400,4.831732421875,-11.298181520175934,-5.261807598769664,-1.5026707538276909
1783246161395744500,4.84174462890625,-7.046054821819067,-8.250444055339694,-0.3634501580491662
1783246161405756400,4.85175634765625,-2.4838135420203207,-10.543449194300175,-0.11265724188685416
1783246161415767600,4.861767578125,0.5539157390207052,-12.7944266248703,0.6093667003467679
1783246161425779500,4.871779541015625,1.9796756871253252,-14.473856213617324,1.7811857896521686
1783246161435791600,4.88179150390625,2.7261712227925656,-14.64659879863262,2.9161633410334584
1783246161445803500,4.891803466796875,2.782262820109725,-14.089552944892644,3.7894472275316713
1783246161455814400,4.901814453125,2.0599600609347224,-13.500359556263684,4.194973901548981
1783246161465826600,4.91182666015625,1.8873814343094824,-12.903248234117031,4.02160646263361
1783246161475838500,4.92183837890625,2.3431956955403086,-11.887649634093046,4.07790994913578
1783246161485850600,4.9318505859375,2.808373997443914,-10.298130033373832,4.214163170665502
1783246161495862500,4.941862548828125,3.1333781049817797,-8.953662467077374,4.268914167028665
1783246161505873400,4.951873291015625,3.1298627903372047,-8.031807149633766,4.397893013641238
1783246161515885300,4.96188525390625,2.753935428030789,-7.165094458219409,4.7366479986339804
1783246161525897500,4.9718974609375,2.3038714008897543,-6.379447938641905,5.100258023419976
1783246161535909400,4.981909423828125,1.780159076952934,-6.06074673064053,5.148503291150927
1783246161545920300,4.991920166015625,0.952400677832961,-6.1518193327069275,4.9983571533471345
1783246161555932400,5.001932373046875,-0.4106786499530077,-6.672344258779287,4.668827677339315
1783246161565944300,5.0119443359375,-1.543397024230659,-6.84664225654304,4.530033539155125
1783246161575956500,5.02195654296875,-2.206138464151323,-6.828000099915266,4.404482328903675
1783246161585968400,5.031968505859375,-2.5246076169624923,-6.911791312801838,4.254727236244082
1783246161595979500,5.0419794921875,-2.599622525936365,-7.15216775662899,3.96379023348093
1783246161605991400,5.051991455078125,-2.734212198168039,-7.439667186158895,3.5722757182031866
1783246161616003600,5.062003662109375,-2.385385901015997,-7.558449048405885,3.1884932584822177
1783246161626015500,5.072015380859375,-1.277568159238994,-7.569291344937682,2.7352035472929477
1783246161636027600,5.082027587890625,-0.3657774319529533,-7.530473246243596,2.1761270645081994
1783246161646038500,5.09203857421875,0.020406535951793193,-7.651798947754502,1.384125622946024
1783246161656050400,5.102050537109375,-0.4312164110690355,-7.536707756718993,0.45334407172501084
1783246161666062300,5.112062255859375,-1.8688132197007536,-6.641410775855183,-0.061006549626588816
1783246161676074500,5.122074462890625,-3.938178822362423,-5.957252453896403,-1.1488830348759889
1783246161686085400,5.13208544921875,-6.071622929441928,-5.570919140648842,-3.1354046423733233
1783246161696097300,5.14209716796875,-8.048152135235071,-4.745266773897409,-5.550433401980996
1783246161706109400,5.152109375,-9.76765245308578,-3.1059108368635178,-8.461153090655802
1783246161716121300,5.162121337890625,-10.729815815520286,-0.6702741735130548,-11.450713676333427
1783246161726133200,5.17213330078125,-10.847301208215951,2.1016239044487475,-14.375176059156656
1783246161736144600,5.18214453125,-11.717295405519009,5.578454796850681,-16.86230500933528
1783246161746156500,5.192156494140625,-12.977262733876705,10.208714550864697,-18.55013651572466
1783246161756168400,5.20216845703125,-13.645352549088,15.198471633648872,-19.946416686844824
1783246161766180600,5.2121806640625,-14.611588275527954,18.90737759000063,-20.92064399656057
1783246161776192500,5.222192626953125,-14.561720375031232,19.988581757879256,-19.58739282080531
1783246161786203400,5.232203369140625,-11.790143199586868,18.797369401317834,-16.30793042063117
1783246161796215600,5.242215576171875,-9.274919789302349,18.095897540986538,-12.470295208513736
1783246161806227500,5.2522275390625,-9.482463638585806,16.982253577274083,-8.958262069827319
1783246161816239400,5.2622392578125,-11.006293500298261,14.936743774235248,-6.51703913077712
1783246161826251500,5.27225146484375,-11.40201131248474,12.62883274256587,-4.37237629506886
1783246161836262400,5.282262451171875,-11.106437297570706,10.219798254936933,-3.188122671604156
1783246161846274300,5.2922744140625,-10.099368040961027,7.546617156314849,-3.35807358007431
1783246161856286500,5.302286376953125,-7.4377926244586705,5.340021888306737,-3.771501236474514
1783246161866298400,5.31229833984375,-2.515637836304307,3.90597517337203,-4.788510287818313
1783246161876309500,5.3223095703125,2.043718827968836,2.701411167806387,-5.821309613490104
1783246161886321700,5.33232177734375,4.417465729117393,2.182301953750849,-5.691437032908201
1783246161896333600,5.34233349609375,7.061272264695167,2.999185323113203,-3.9266155180796978
1783246161906345500,5.352345458984375,10.5106493329823,4.022453434851766,-1.4767793567240237
1783246161916357600,5.362357666015625,12.72545888710618,4.487902078129351,0.8356918224677443
1783246161926368500,5.372368408203125,12.954652258139848,4.963413850259781,3.259659675334394
1783246161936380400,5.38238037109375,12.55628305466175,6.023024610489607,5.832483918455242
1783246161946392600,5.392392578125,11.585579242897033,6.839260914120078,6.928734848818182
1783246161956404500,5.402404541015625,8.970338292068243,6.718127520310879,5.5527861025869845
1783246161966415400,5.412415283203125,5.540350983905792,5.678787979215383,2.6370354340076445
1783246161976427500,5.422427490234375,2.911488334959745,4.496997823254763,-0.36759500276893375
1783246161986439400,5.432439453125,2.413668577170372,3.749754684090614,-1.8563934447191655
1783246161996451300,5.442451416015625,3.607864917978644,3.3650235453426838,-1.1708327086165546
1783246162006463500,5.45246337890625,5.529961107316613,3.3231098187208175,0.6827325269393623
1783246162016474400,5.462474365234375,7.8818258470028635,3.3104552120700474,2.4134167943663893
1783246162026486300,5.472486328125,10.56125022392869,3.260420430573821,3.377352281039953
1783246162036498400,5.48249853515625,12.933764952933787,3.3043346833631393,3.641254561883211
1783246162046510300,5.49251025390625,14.449986677730083,3.077213150167465,3.366208663474023
1783246162056522500,5.5025224609375,14.462479079556465,2.758932797926664,2.718444135671854
1783246162066533600,5.51253369140625,13.582027785646915,2.634929109378159,1.7829016536593436
1783246162076545500,5.522545654296875,12.340989614164828,2.792671109138429,1.0781740064024925
1783246162086557400,5.532557373046875,10.638541553401947,3.219067260444164,0.6384351200513542
1783246162096569600,5.542569580078125,9.708492408108711,3.351421428708732,0.4061781236633658
1783246162106580500,5.55258056640625,9.304841464835405,2.748979559189081,0.5153421166069805
1783246162116592400,5.56259228515625,8.855959633216262,2.27203395486325,0.7954883338298648
1783246162126604500,5.5726044921875,8.658449686691165,2.2286501556888223,1.2342200158998369
1783246162136616400,5.582616455078125,8.633178467312455,2.241356054135412,1.7980547991275786
1783246162146628400,5.59262841796875,8.51869284095466,1.930409844174981,2.0056820889107883
1783246162156639500,5.602639404296875,7.4090388236612075,1.2586419249728322,2.15100489821136
1783246162166651400,5.6126513671875,5.746034300014376,1.0951852008275687,2.516524848271906
1783246162176663300,5.622663330078125,4.06632764789164,1.1135592080384493,2.8485777052775023
1783246162186675500,5.632675537109375,2.9639146877676246,1.2537678891956805,3.28136618796885
1783246162196687400,5.642687255859375,2.929497454380989,1.375337336334586,3.612188041874766
1783246162206698500,5.652698486328125,3.608758651947975,1.3179444471605122,3.287544876603782
1783246162216710700,5.662710693359375,4.212869623723626,0.9310558381177484,2.0944367694236337
1783246162226722600,5.67272265625,4.0766789460361,-0.2752485813744366,0.5866350824482739
1783246162236734500,5.682734375,2.9134201798051595,-1.3210567339621484,-0.654275809392333
1783246162246745300,5.692745361328125,1.3259341307401655,-1.455258429789543,-1.36606097394526
1783246162256757500,5.702757568359375,-0.17308511484265326,-1.3348257315956056,-1.215383213482797
1783246162266769400,5.712769287109375,-0.9420359356850385,-1.2491969280183315,-0.4250397682607174
1783246162276781600,5.722781494140625,-1.9917922413766382,-0.9870650178484618,0.12425707878768444
1783246162286793500,5.73279345703125,-4.307880149760842,-0.40428588017597794,0.3757153269909322
1783246162296804400,5.742804443359375,-6.961237188494205,0.7265972414985299,-0.25470716699659823
1783246162306816500,5.75281640625,-9.039780077084899,0.6952595616877079,-1.5910272288031875
1783246162316828400,5.762828369140625,-10.486149682497977,-0.8080205562099814,-2.929521419778466
1783246162326840300,5.77284033203125,-10.521520271086692,-2.827401646257937,-3.9283728831410407
1783246162336852500,5.7828525390625,-9.217294114285707,-4.412099525909126,-4.7089185724481935
1783246162346863600,5.792863525390625,-7.702780946972966,-5.627369926667213,-3.9542335928454992
1783246162356875800,5.802875732421875,-7.073893845859169,-5.9576791548758745,-1.6473766002736985
1783246162366888000,5.812887939453125,-8.557827750512956,-5.333249033170938,1.924278647943586
1783246162376899800,5.82289990234375,-11.77538752900362,-4.971617614981532,4.6638519347533585
1783246162386911000,5.832910888671875,-16.135820288300515,-5.135146965971589,4.696507711425423
1783246162396923100,5.842923095703125,-20.873342147159576,-4.864784841464459,2.908385692769289
1783246162406935000,5.85293505859375,-23.824553420698642,-3.858434254518151,0.8553646373175084
1783246162416947000,5.862947021484375,-21.95453462460041,-3.3819881241470573,0.6364033950280398
1783246162426959000,5.872958984375,-14.79658243935108,-2.963663927876949,1.5520140459284186
1783246162436970000,5.882969970703125,-5.773029274445772,-2.5336300045907496,1.1039614316750317
1783246162446982000,5.89298193359375,0.48899230821132655,-3.641077159489691,-0.8297805525973438
1783246162456994000,5.902994140625,1.5419325046360493,-4.989697461551428,-2.4277295434877275
1783246162467006000,5.913005859375,-0.9087667032897472,-4.089131892634928,-3.8210517415851353
1783246162477016800,5.923016845703125,-4.580197792249917,-2.265075514027476,-4.40854797090739
1783246162487029000,5.933029052734375,-6.902338424801826,-0.5672074745312333,-3.253061007721722
1783246162497041000,5.943041015625,-6.823086024388671,0.785779206046462,-1.7800005253903566
1783246162507052800,5.953052734375,-4.954523856839537,1.3643833961218594,-0.8636877906352282
1783246162517065000,5.96306494140625,-2.562641579541564,1.2785285287037491,-0.48524932229071854
1783246162527076000,5.973076171875,-0.7942717245817184,1.3634227343961596,-0.5905901036843657
1783246162537088000,5.983087890625,0.7442196996897459,1.4237468547165393,-0.7433031693667173
1783246162547100200,5.99310009765625,2.547503631642461,1.5034499215066432,-0.4173418341692537
1783246162557112000,6.003112060546875,4.927237205985188,1.8042399175032973,-0.14804419708848
1783246162567124000,6.0131240234375,7.732119854182004,1.6900018361657856,0.1499952946236357
1783246162577134800,6.023134765625,9.682827805498242,1.1988634558364748,1.0120319935835898
1783246162587147000,6.03314697265625,10.370131439745425,1.1511080174490809,2.0103775532506405
1783246162597159000,6.043158935546875,9.78828023057282,1.9567498618289827,2.1603740534506737
1783246162607171000,6.053171142578125,8.788483595314622,2.546148417641222,1.7392942748621105
1783246162617182000,6.063181884765625,7.972213973936438,2.757996978381276,1.2910384661868213
1783246162627193900,6.07319384765625,7.754599397015571,2.938337178918719,0.7464677708774805
1783246162637206000,6.0832060546875,8.223599303033948,3.1813673521250485,0.433204516146332
1783246162647218000,6.093218017578125,9.014946080079675,3.28137524805814,0.27296890947204083
1783246162657229800,6.103229736328125,9.519579609537123,3.184059659948945,0.35833460513371973
1783246162667241000,6.113240966796875,9.440427746888995,3.3565850950822234,0.5240834222715348
1783246162677253000,6.123253173828125,9.13821239426434,3.681927640794217,0.742371149213612
1783246162687265000,6.13326513671875,8.456567516431212,4.159490792496502,1.3180325638353825
1783246162697277200,6.143277099609375,7.400131879106164,4.681808154943585,1.7948232698604463
1783246162707288000,6.1532880859375,6.497789655905962,4.979328627750277,2.0808798071056605
1783246162717300000,6.163300048828125,5.437657502150535,5.6286745795249935,2.2638385195784267
1783246162727312000,6.173311767578125,4.615131158465147,6.509025920191407,1.9240923315912484
1783246162737324000,6.183323974609375,4.384714383116364,6.952111632752418,1.173878506053239
1783246162747336000,6.1933359375,4.318100515002012,6.511893584582209,0.8217652961850166
1783246162757346800,6.203346923828125,4.892036713266372,6.476226058873534,0.5126671617766841
1783246162767359000,6.21335888671875,6.3262722287714475,6.48880321637392,-0.07932535605151206
1783246162777371000,6.223370849609375,7.962303989818691,5.678115194520354,-0.44909598582647736
1783246162787383000,6.233383056640625,8.87295226907134,4.470136412075162,-0.2898775568380952
1783246162797395000,6.24339501953125,9.417166113767028,3.9343168862372635,0.07457534851282835
1783246162807405800,6.25340576171875,10.31092872467041,3.9728871476501224,0.21196225024759768
1783246162817418000,6.26341796875,10.164124883031844,3.6077246327251196,0.014941475478932261
1783246162827430000,6.273429931640625,8.32816559292376,2.7889152637362478,-0.26275764085277914
1783246162837442000,6.283442138671875,5.996740414676069,1.8122171799927949,-0.46040582680478687
1783246162847453000,6.293452880859375,3.565229306823015,0.9406108713179826,-0.2123471213793382
1783246162857465000,6.303465087890625,1.6383213332891464,-0.04241232379376888,0.09139200674649327
1783246162867477000,6.31347705078125,-0.291433261847496,-2.210099476736784,0.1446945213343948
1783246162877489000,6.323489013671875,-1.8756302062392234,-5.7570396781533955,-0.7339198394715786
1783246162887501000,6.3335009765625,-3.078386870121956,-10.266022245973348,-2.2588453874662515
1783246162897512000,6.343511962890625,-3.6907390160202977,-14.26365863495469,-3.2854619328498837
1783246162907523800,6.35352392578125,-4.077577356180549,-16.098836419296262,-3.938894277155399
1783246162917536000,6.363535888671875,-5.8640831718117,-16.038518436455725,-4.34223659287095
1783246162927548000,6.3735478515625,-9.244059371614455,-14.850143349146842,-3.84732073982954
1783246162937560000,6.38356005859375,-15.224892023062704,-13.270603875172137,-2.7475638471722603
1783246162947571000,6.393571044921875,-20.277190609955788,-11.093103184223175,-0.05220043053093832
1783246162957582800,6.403582763671875,-21.863833193933964,-8.40308142543733,4.19931368431896
1783246162967594800,6.4135947265625,-20.07225723543167,-5.600886408889293,8.074120689228177
1783246162977607000,6.42360693359375,-14.061030614763498,-3.5481337951153513,9.872918415677546
1783246162987618000,6.4336181640625,-6.884975786590576,-2.805029947713017,8.792246162718534
1783246162997630000,6.4436298828125,-2.1356828259170055,-2.7176129455447193,5.641550427711009
1783246163007642000,6.45364208984375,1.0253881726324559,-1.9629758967369795,1.881455259130895
1783246163017654000,6.463654052734375,3.128907097047567,-1.2021879240840674,-1.5543046410836279
1783246163027666000,6.473666015625,3.8466245742589233,-0.554643468773365,-3.6983129584059116
1783246163037677000,6.483677001953125,3.3334745608687397,0.8172334979742765,-4.596434641301632
1783246163047689000,6.49368896484375,2.436844870096445,2.26137549046576,-4.851830375084281
1783246163057700900,6.503700927734375,0.7343138072252273,3.0838159094333646,-4.746632217031717
1783246163067713000,6.513713134765625,-1.6023621311575174,3.2784517618268727,-4.472920782096684
1783246163077724000,6.523723876953125,-3.956608213022351,3.3133670078635213,-3.862037831968069
1783246163087735800,6.53373583984375,-5.442853317227959,3.3578190207913514,-3.3207840061217544
1783246163097748000,6.543748046875,-5.491314273536205,2.734661695501208,-3.070081690852344
1783246163107759900,6.553759765625,-4.517175811147689,1.3008674940228462,-2.5297227680191394
1783246163117771800,6.563771728515625,-2.946194906681776,0.828142722262442,-1.3265173374556005
1783246163127783200,6.573783203125,-0.7761784340083598,0.8459194942325353,0.036404607811570164
1783246163137795000,6.583795166015625,0.7323691028982401,0.8310235383957624,1.9529710739426314
1783246163147807000,6.593806884765625,1.6956266903102397,1.6152672054380177,3.6656595198214053
1783246163157819100,6.603819091796875,2.4852549730002877,2.226548507234454,4.279899086901545
1783246163167830000,6.613830078125,3.1651644053429364,2.23451963224411,3.889889715489745
1783246163177842000,6.623842041015625,4.210806845974922,2.118472163397074,2.8640988072752953
1783246163187854000,6.63385400390625,5.654713276144862,1.88261173568964,1.9659272938884793
1783246163197866000,6.643865966796875,7.182854571315645,1.6525971114009619,1.484886383073032
1783246163207878000,6.6538779296875,8.404373803335428,1.3533707114592193,1.2062217096447945
1783246163217889000,6.663888916015625,9.05743789885044,1.1022253285974264,0.9013844840839504
1783246163227901000,6.67390087890625,9.033129971545934,1.3610057363823056,0.4834330666489899
1783246163237912800,6.683912841796875,7.992450706279278,1.8187936357736587,0.20741803094670175
1783246163247925000,6.693925048828125,6.5990832077354185,2.18439717246443,0.26992563278600573
1783246163257937000,6.70393701171875,5.382084668010473,2.7724194714874026,0.7762494534179568
1783246163267948000,6.713947998046875,4.252835138887167,3.536047343741357,1.5201817144684493
1783246163277960000,6.7239599609375,3.514120466354489,4.252601330131292,1.9812191171750426
1783246163287972000,6.73397216796875,3.1154619245409965,4.831809331318736,2.2248006406538186
1783246163297984000,6.74398388671875,3.236623375400901,4.877005440612137,2.0130875428617
1783246163307995100,6.7539951171875,3.879823664027452,4.577924586620926,1.525692148452997
1783246163318007000,6.764007080078125,4.664151502221823,4.27377271297574,1.0371493375748395
1783246163328019000,6.77401904296875,5.49274109146893,4.028230264687538,0.7185583119496702
1783246163338031000,6.784031005859375,6.179500535836816,3.953471084040403,0.8523612177178264
1783246163348043000,6.79404296875,6.660517627385258,3.9957892998099327,1.041300758165866
1783246163358054000,6.804053955078125,6.75440002617538,3.8963820001184937,1.1042596109040081
1783246163368065800,6.814065673828125,6.612705490374565,3.6755531373262404,0.7166422491952776
1783246163378077700,6.82407763671875,6.0802031262606375,3.2410014443546533,0.22398674230128526
1783246163388089900,6.83408984375,4.9200019940346476,2.7971301343739032,-0.038994770435243846
1783246163398100700,6.844100830078125,3.8675375984281297,2.5722172171384097,0.041301147681474686
1783246163408112600,6.854112548828125,2.4045605570852757,1.7659774068653582,0.4052113975230604
1783246163418124800,6.864124755859375,0.5559650727659463,0.3048720046132803,0.09819967746734619
1783246163428136700,6.87413671875,-0.5941916353076696,-1.9645085131317377,-0.7396922123279422
1783246163438148900,6.88414892578125,-1.2175620188266039,-4.693924124673009,-1.3851654873877763
1783246163448160000,6.894159912109375,-1.2717536277413368,-7.382540692836046,-1.8513313390240071
1783246163458172000,6.904171875,-1.185409223240614,-9.33525004710257,-2.4998686047643424
1783246163468183800,6.914183837890625,-2.6974031012088058,-10.416014069998264,-2.698751593208313
1783246163478196000,6.924196044921875,-6.095542149689793,-10.292621499085426,-1.953250621536374
1783246163488208000,6.934207763671875,-9.21352044096589,-9.066266517472267,-0.14677074308656154
1783246163498218800,6.94421875,-11.006446645033359,-7.854256287553906,1.715277439458668
1783246163508231000,6.95423095703125,-12.045365330368279,-7.319090257188678,2.8870433372721074
1783246163518242800,6.964242919921875,-12.661298257362843,-7.349948336789011,3.277399037903547
1783246163528254700,6.974254638671875,-12.422439232361317,-7.372510881730913,2.8225159200429917
1783246163538265900,6.984265869140625,-9.631256023693084,-7.549939578735828,1.7208403342828154
1783246163548277800,6.99427783203125,-5.2230976366251705,-8.236693177884817,0.8755455478198826
1783246163558289700,7.00428955078125,-1.7694418681055306,-8.777093601772188,0.005199906730651855
1783246163568301800,7.0143017578125,-0.07976151897907256,-7.556677947080135,-1.3355946701414882
1783246163578313700,7.024313720703125,0.4451327082186937,-5.1261809847056865,-2.9339576486602423
1783246163588324900,7.034324951171875,-0.44791561693549153,-2.8113018675893544,-4.133240791213512
1783246163598337000,7.0443369140625,-1.5474468841433524,-0.34941140356361866,-4.527987712541222
1783246163608349000,7.054348876953125,-1.712646214172244,1.8878923064410686,-3.660973115570843
1783246163618360800,7.06436083984375,-2.4843998174756763,3.8028506067231294,-2.35382464158237
1783246163628372000,7.0743720703125,-5.7101890796512365,4.856600365965068,-1.4925572099618614
1783246163638383900,7.0843837890625,-10.099908139187097,5.236798245197535,-0.993979181151092
1783246163648395800,7.094395751953125,-12.726844203984736,4.807880174198746,-0.5099678762227297
1783246163658408000,7.104407958984375,-11.911318094450234,3.950971960701048,0.17587737590968608
1783246163668419800,7.114419921875,-7.8784537402212615,2.7021540951281784,1.205524228899926
1783246163678430700,7.1244306640625,-2.690461319246888,1.1827671842992304,2.498406715518236
1783246163688443000,7.13444287109375,2.436562546023726,-0.14302549214363097,3.3789918649405237
1783246163698454800,7.144454833984375,6.291158829814195,-1.0696841182157397,3.711621060529351
1783246163708466700,7.154466796875,7.832743543925881,-1.6097124939203262,3.4009830397352574
1783246163718478800,7.164478759765625,7.234636196479201,-1.341328976009786,3.296517579871416
1783246163728490000,7.174489990234375,6.218173673102259,-0.6672405049055814,3.1050799389973283
1783246163738502000,7.184501953125,6.082340722811222,-0.46955169468224045,3.0022260059833523
1783246163748514000,7.19451416015625,6.678211689507961,-0.3536062249049544,3.111346890437603
1783246163758526000,7.20452587890625,7.715340568816662,-0.38645693962723016,3.002887100240588
1783246163768536800,7.214536865234375,8.687566475582122,-0.7654109562784432,2.8846552730917927
1783246163778549000,7.224549072265625,9.554338203707337,-0.8510606565132737,2.6627166954919694
1783246163788561000,7.234560791015625,10.134805265045165,-0.8804173916399478,2.4734382784783837
1783246163798572800,7.24457275390625,9.859702375751732,-1.0865379301220177,2.475852938404679
1783246163808585000,7.2545849609375,8.761301573878526,-0.702019849602878,2.7499726618796587
1783246163818595800,7.264595947265625,7.3973980702281,0.061892392550408834,2.932700926597416
1783246163828607700,7.274607666015625,6.334177302807569,0.467204547034204,3.024539252339303
1783246163838620000,7.284619873046875,5.563334384608268,0.8995935090139507,3.2334500060617923
1783246163848631800,7.2946318359375,5.345487167975306,1.3140356031537055,3.2021383374750614
1783246163858643700,7.304643798828125,5.553511494252086,1.556779945155978,2.802301691792905
1783246163868654800,7.31465478515625,5.951728137516975,1.2672390729263423,2.257343166209757
1783246163878666800,7.324666748046875,6.443930055424571,0.980821593414247,2.010795340271294
1783246163888679000,7.334678955078125,6.8537336761087175,1.0659583756908775,1.9404086756199597
1783246163898690800,7.34469091796875,6.910082170796394,1.2534677372053264,1.8267152225531638
1783246163908702000,7.354701904296875,6.652863313239813,1.3950602739363909,1.551050023201853
1783246163918713900,7.3647138671875,6.220418821680545,1.4709355991318822,0.8437224225796759
1783246163928726000,7.37472607421875,5.655588305413723,1.4700848275214433,0.3288961465403437
1783246163938738000,7.384738037109375,5.576580819672346,1.5257272197663783,0.1521494404502213
1783246163948749800,7.394749755859375,5.5020706453502175,1.5270534999340772,0.04861673139184713
1783246163958760700,7.4047607421875,4.779480009144544,1.2980679264321922,-0.20723726755231617
1783246163968772900,7.41477294921875,3.2613808000385758,0.9710288059353828,-0.49766982792466874
1783246163978784800,7.42478466796875,1.185256078505516,0.6631231327146291,-1.10138858551234
1783246163988797000,7.434796875,-0.7361310857802629,0.020257775130867958,-1.6208122723445295
1783246163998807800,7.444807861328125,-2.404587445092201,-0.4280155692011118,-1.4453477150194347
1783246164008819700,7.45481982421875,-3.8601007264256477,-0.6059580609470605,-1.085854185641557
1783246164018831600,7.46483154296875,-5.303402176439762,-1.3186249767705798,-0.7565230086848139
1783246164028843800,7.47484375,-5.960563185879588,-2.1656372346758843,-0.9968401235401629
1783246164038855700,7.484855712890625,-4.842182256773114,-2.5712112549662587,-1.7599617998376487
1783246164048866800,7.49486669921875,-3.0777000569015738,-2.86270033865422,-1.8396338869675992
1783246164058879000,7.50487890625,-1.495882116600871,-3.506075691586733,-1.0846011168405414
1783246164068891000,7.514890869140625,0.497320576095581,-4.759878944356739,0.0034586160212755203
1783246164078902800,7.52490283203125,2.411883447319269,-5.083816007184982,1.2274709800310433
1783246164088914000,7.534913818359375,2.2678479013502595,-4.170128214105963,1.9767671062022447
1783246164098925800,7.54492578125,0.6649187839597464,-2.4166882172524926,0.5619184282124042
1783246164108937700,7.554937744140625,-3.8989574035644528,-1.7569535579323767,-2.162894073447585
1783246164118950000,7.564949951171875,-10.050676198506356,-0.9591431378304958,-3.443190488606691
1783246164128961800,7.5749619140625,-12.773582574284076,1.3547548592939973,-2.8654540212765336
1783246164138972700,7.58497265625,-11.291881543248891,3.292636354523897,-0.9856728328377008
1783246164148984800,7.59498486328125,-6.4310279037535185,4.625408222329616,0.753617058110237
1783246164158996700,7.604996826171875,-0.6793219878435135,5.716322467839717,0.9684960725873708
1783246164169008600,7.615008544921875,3.5977731475532053,6.046897068986296,1.3333072898566722
