time,seconds_elapsed,z,y,x
1783246175897114600,0.062114501953125,1.003748003232479,2.7992537023991346,-0.23821678157523274
1783246175907126500,0.07212646484375,-0.9033674745947122,2.105474734658003,-0.7886017161212862
1783246175917137400,0.082137451171875,-2.994787380415201,0.88058105776906,-1.3029773257836699
1783246175927149300,0.0921494140625,-4.889283030644059,-1.1719149508953093,-1.3612497742712497
1783246175937161500,0.102161376953125,-6.435571976923942,-3.6539240738421674,-1.0671434938222168
1783246175947173400,0.11217333984375,-7.716902995827794,-6.047106327822804,-0.990950480979681
1783246175957184300,0.122184326171875,-8.213489996951818,-7.033581124693155,-1.3399727390952407
1783246175967196400,0.132196533203125,-7.969628633618354,-6.798941763213277,-1.3977813694633543
1783246175977208300,0.142208251953125,-7.759048777639865,-6.520439294609427,-0.0014119126245379448
1783246175987220200,0.15222021484375,-7.111430672571062,-7.167306873571873,3.034937604495883
1783246175997232400,0.162232421875,-6.255912159866094,-7.929895758166909,5.306522354286908
1783246176007243500,0.172243408203125,-7.056997071593999,-7.527920054629445,6.580125993809103
1783246176017255400,0.18225537109375,-7.950495478603243,-6.324674145925044,7.270213121294975
1783246176027267600,0.192267578125,-6.710995184212923,-4.999347333428263,6.160737967699766
1783246176037279500,0.202279541015625,-4.487431830269098,-4.251044163817167,4.691589251984656
1783246176047290400,0.212290283203125,-1.8125258075505495,-3.2782635457783935,3.7613548132523893
1783246176057302500,0.222302490234375,1.3781038784384727,-1.2627408847242594,2.665194776043296
1783246176067314400,0.232314453125,4.1541888866961,1.3541758903622627,1.4290449611246585
1783246176077326300,0.242326416015625,5.974846562775969,3.1602117513716217,0.09939093307852745
1783246176087338500,0.25233837890625,6.689597591397166,4.454919553720951,-0.9496557630389928
1783246176097349400,0.262349365234375,6.709069184586405,5.778333226072788,-1.358884214183688
1783246176107361300,0.272361328125,6.467928186127543,7.14731739398837,-1.1267033517718315
1783246176117373400,0.28237353515625,5.987168284210562,8.527412738505005,-0.3356979355096817
1783246176127385300,0.29238525390625,5.571466253137588,9.484851995027064,0.9835928116932511
1783246176137396200,0.302396240234375,5.890234096634388,9.587869301909208,2.2938968271031976
1783246176147408400,0.312408447265625,5.426577305209636,9.02677680312693,3.1047803715288635
1783246176157420300,0.322420166015625,4.414268394380808,8.47223854829371,3.1631942743137476
1783246176167432200,0.33243212890625,3.9451381399810312,8.011721223938464,2.8323370568335053
1783246176177444400,0.3424443359375,4.378053756183386,6.845446324756741,2.499316231578588
1783246176187455500,0.35245556640625,5.631090993016958,5.263316834288835,2.232391680304706
1783246176197467400,0.36246728515625,7.168023497408628,3.4806259007707236,1.8342618385404348
1783246176207479600,0.3724794921875,8.313509291061758,2.1861007615119217,1.4832850853562354
1783246176217491500,0.382491455078125,8.928798659455776,1.992725430573523,1.39233874001801
1783246176227503400,0.39250341796875,9.116227356949448,2.0397499243378636,1.6081652644783258
1783246176237514500,0.402514404296875,8.61207488900721,2.069835266000032,1.9568729036867618
1783246176247526400,0.4125263671875,7.68022600081563,2.5200395783945915,2.3971429743051527
1783246176257538300,0.422538330078125,6.102369365361333,2.8340739636287093,2.587734519743919
1783246176267550500,0.432550537109375,4.13093076070547,2.8055165621861815,2.4710797326534983
1783246176277561300,0.442561279296875,2.9974323419660327,2.5184023325815796,2.492868955135345
1783246176287573200,0.4525732421875,2.56820681245327,1.0362693398699163,1.8794553174853323
1783246176297585400,0.46258544921875,5.085137026655674,-0.8465537004828453,-0.18248890300393103
1783246176307597300,0.472597412109375,6.040564358833432,-1.6477259982332586,-1.7842641741842031
1783246176317609200,0.482609130859375,4.097316075873374,-1.855421823208034,-1.385332076126337
1783246176327620600,0.49262060546875,1.3864017511844635,-1.2489789013534784,0.9333885188490152
1783246176337632500,0.502632568359375,-1.240762277150154,-0.042914428097009655,4.096528140366077
1783246176347644400,0.51264453125,-3.282790667814016,0.42407706070840356,6.181517136356234
1783246176357656600,0.522656494140625,-3.570122924083471,0.056121115672588345,6.381441742807627
1783246176367667200,0.532667236328125,-2.4034078799188134,-1.537005569627881,4.57269662283957
1783246176377679400,0.542679443359375,-0.4103320284724235,-3.6470629559010264,2.213783718207478
1783246176387691300,0.552691162109375,1.0833704060018061,-5.05465245654285,-0.16740180850923062
1783246176397703200,0.562703125,0.5127794265121222,-6.181465113908052,-1.9285960727512836
1783246176407715300,0.57271533203125,-1.3818243602663278,-7.0168480165570974,-3.0576907035738228
1783246176417726200,0.582726318359375,-3.4768788231968877,-7.065790618902445,-3.290319894275069
1783246176427738000,0.592738037109375,-7.2161682273745535,-6.21449761493802,-2.7924644806504246
1783246176437750300,0.602750244140625,-13.162535130119323,-4.0589451364248985,-4.155882831132412
1783246176447762200,0.61276220703125,-11.938860765892267,-4.303400373998284,-8.656365281632542
1783246176457774000,0.622774169921875,-11.202280182778834,-3.349371802702546,-7.671494412827491
1783246176467785200,0.63278515625,-10.875272918725013,-0.769958536580205,-9.465458143249153
1783246176477797400,0.64279736328125,-11.543671361494063,-0.7056780798494815,-9.357419208812713
1783246176487809300,0.652809326171875,-12.362383115327358,0.9196171831279992,-8.177991982591152
1783246176497821400,0.662821533203125,-13.448812908899784,3.913310338565707,-8.469336981633305
1783246176507832300,0.672832275390625,-13.936271431672573,6.667796678477525,-7.242448916056752
1783246176517844200,0.68284423828125,-13.84828452066183,9.677910222840309,-5.819094275528192
1783246176527856400,0.6928564453125,-11.300016918909549,12.696677029258012,-5.892815345299244
1783246176537868300,0.702868408203125,-8.15652950784564,13.115284718644618,-6.737623663419485
1783246176547880200,0.712880126953125,-5.565994543728232,12.018932081472872,-7.675966005283594
1783246176557891000,0.72289111328125,-2.715361367225647,10.776977379667759,-7.649585363358259
1783246176567903200,0.7329033203125,-1.2859189312160015,8.342254324030876,-6.568993774420022
1783246176577915100,0.7429150390625,-1.3275380588054657,5.6340714701324695,-5.099918416202068
1783246176587927300,0.75292724609375,-0.8271370523512362,5.260303039425612,-3.005384762275219
1783246176597938200,0.762938232421875,-2.54864228028357,5.682796630334853,-1.514668065613508
1783246176607950300,0.772950439453125,-5.150426368167996,7.431316706442833,-1.4096803354412317
1783246176617962200,0.782962158203125,-8.724775970035791,8.604442786693573,-2.424364743229747
1783246176627974100,0.79297412109375,-7.9060081021010875,7.415072843128442,-2.8737498481959105
1783246176637986300,0.802986328125,-6.069845398375391,7.600009723806381,-3.2932918958231805
1783246176647997200,0.8129970703125,-8.226192826658487,6.915356896328926,-3.2876226180151105
1783246176658009300,0.82300927734375,-8.543577106842399,5.533628982174396,-3.045282472899556
1783246176668021200,0.833021240234375,-6.854688200354576,4.550981926898658,-2.5877736827105284
1783246176678033200,0.843033203125,-5.323928247117996,2.3486107063263653,-1.9986659265384077
1783246176688045300,0.85304541015625,-3.0210593012690543,-0.16500205389112232,-1.1235995405375956
1783246176698056200,0.86305615234375,-0.7988479464560747,-2.310826042333245,0.5557248342692852
1783246176708068000,0.873068115234375,1.3313058869063854,-3.3409804064542055,2.427172786387801
1783246176718080300,0.883080322265625,2.7697423612326384,-3.1846938661992548,4.654339717781544
1783246176728092200,0.893092041015625,2.3926152677476407,-3.3877935955554244,6.728911949175596
1783246176738103000,0.90310302734375,0.6337871481150389,-3.310838950690627,7.855197952318191
1783246176748115200,0.913115234375,-0.27864216933548447,-3.8884003537148235,8.309428159227966
1783246176758127000,0.923127197265625,-0.5131067587703466,-4.737942130097746,7.949561412623524
1783246176768139000,0.933138916015625,-0.9582780454337596,-4.839295887681842,6.72884882081151
1783246176778151200,0.943151123046875,-1.866451459005475,-5.352551115012169,6.156940913504362
1783246176788162300,0.953162353515625,-2.1255238354742527,-5.860421142172813,6.234955881077051
1783246176798174200,0.96317431640625,-0.9241396289885043,-6.0552948949754235,5.919388879448175
1783246176808186400,0.973186279296875,0.5078852247297764,-6.5549857073336835,5.1445004852503535
1783246176818198300,0.9831982421875,1.4549486331880093,-6.5382847479015584,4.085117104035616
1783246176828209200,0.993209228515625,2.4840514424294233,-6.4991574371278285,3.307200301927328
1783246176838221300,1.00322119140625,3.5933453942388294,-6.848952287051081,3.3729321265101433
1783246176848233200,1.013233154296875,4.0932179929047825,-6.748344379398226,4.102952620455622
1783246176858245000,1.0232451171875,4.22360495274961,-6.578588116717338,5.031850842148065
1783246176868257300,1.03325732421875,4.248676850163936,-6.818882142958045,5.829814406985044
1783246176878268200,1.04326806640625,4.152817013821005,-6.787140850782394,6.346999374979734
1783246176888280000,1.053280029296875,3.1903777570545673,-6.194518656748533,6.801105663248896
1783246176898292200,1.063292236328125,1.5986375576764345,-5.515520494031906,7.1077896857202045
1783246176908304100,1.07330419921875,-0.13937632198631764,-5.6232116379439825,7.143489944654703
1783246176918316000,1.08331591796875,-1.109285183981061,-6.278661751812696,6.918153249049186
1783246176928327400,1.093327392578125,-0.7284609895437956,-7.476051920226216,6.0918701831787825
1783246176938339300,1.10333935546875,0.7458873406410217,-7.792396335968375,5.300827942037582
1783246176948351200,1.113351318359375,0.5530068074822425,-6.11475655324757,6.246189222753047
1783246176958363400,1.12336328125,0.20261223810017107,-5.988971534240245,7.061518348410726
1783246176968374300,1.133374267578125,0.6978688674032688,-7.020560899600386,7.092681548437476
1783246176978386200,1.14338623046875,1.3070014667332173,-7.527753465890884,6.537220333540439
1783246176988398300,1.1533984375,1.6822133742466567,-7.628993826228379,5.4895057628095145
1783246176998410200,1.16341015625,1.7119386504247784,-7.358824301683902,3.9531794076174496
1783246177008422100,1.173422119140625,1.762337296797335,-7.038480587172508,3.1082869183450934
1783246177018433300,1.183433349609375,1.7309440874069928,-6.325654973655939,3.5731513319939374
1783246177028445200,1.193445068359375,0.1178118481710553,-5.352430703502893,3.502569144770503
1783246177038457000,1.20345703125,-1.9499784679979084,-3.3301515539258717,1.0687982752919196
1783246177048469200,1.21346923828125,-3.185596367996931,-0.6794441529184579,-2.82402924721539
1783246177058480400,1.22348046875,-6.0503323041319845,2.8189848233073946,-7.354112470731139
1783246177068492300,1.2334921875,-10.1375010800004,6.871380976480245,-10.584199722361564
1783246177078504400,1.24350439453125,-13.462718684655426,11.723739174830913,-10.727407585334777
1783246177088516400,1.253516357421875,-13.94739137610197,15.111688837730883,-9.273355608725547
1783246177098528300,1.2635283203125,-9.555644610130786,17.317088758474586,-8.435622343558073
1783246177108539400,1.273539306640625,-4.219641309815645,19.116084637844562,-8.733281348052621
1783246177118551300,1.28355126953125,-1.5914947001844644,19.45022540704012,-9.428114793282747
1783246177128563200,1.293563232421875,-1.8372411466121672,17.184288892269134,-9.704232997098565
1783246177138575400,1.303575439453125,-4.17714598391354,14.131563702148199,-9.922952320390939
1783246177148587300,1.313587158203125,-6.026822249206901,12.467753707337378,-10.073896915096045
1783246177158598100,1.32359814453125,-5.912893672209978,12.715381729727982,-10.338591807621716
1783246177168610300,1.3336103515625,-5.548012312313914,13.412996914631128,-10.377220521223544
1783246177178622200,1.343622314453125,-5.5318356690168375,12.881041078484058,-9.622828971609472
1783246177188634000,1.353634033203125,-5.685131795284152,11.226592786258458,-8.394657295963167
1783246177198645000,1.36364501953125,-5.732050782847404,9.530682602831721,-7.421971370470524
1783246177208657200,1.3736572265625,-6.079816757291555,7.560014982548355,-6.638764645260572
1783246177218669000,1.3836689453125,-6.135209558689594,4.586753205242752,-6.121482646632194
1783246177228681200,1.39368115234375,-5.6561792570441956,1.6275877578288316,-5.893190608352422
1783246177238693000,1.403693115234375,-4.847974576438963,-1.12273327909708,-5.6825616525352
1783246177248704300,1.413704345703125,-3.501302485835552,-3.9034354257613417,-5.075046425274015
1783246177258716400,1.42371630859375,-1.6969640763938425,-6.4126932056397195,-3.7089591478437183
1783246177268728300,1.433728271484375,-0.22002792167291044,-8.289640924218297,-1.982365072339773
1783246177278740200,1.443740234375,0.7819051410920917,-9.145158267879486,-0.2042792945295572
1783246177288751000,1.453751220703125,1.1880467321373522,-8.746749901434779,2.3989690206885337
1783246177298763300,1.46376318359375,0.6005027181506156,-7.7879592303037635,5.667409676110744
1783246177308775200,1.473775146484375,-0.40520036467239257,-6.833433815401792,8.503242173844576
1783246177318787300,1.483787353515625,-1.0814074353657663,-5.9526937676787375,10.442789848721027
1783246177328799200,1.49379931640625,-1.2599812107525765,-5.709301190900803,11.65876605966091
1783246177338810000,1.50381005859375,-1.0136743539631365,-5.825939026856422,11.858936749827862
1783246177348822000,1.513822021484375,-0.2011298905879259,-5.960757247146963,11.058227101153134
1783246177358834200,1.523834228515625,0.8426075932055711,-6.372657547849417,9.468985148331523
1783246177368846000,1.53384619140625,1.9233454587467014,-6.852951001298427,7.942727767211198
1783246177378858200,1.543858154296875,3.350149801337719,-6.9220338898748155,7.141370468282699
1783246177388869400,1.553869384765625,4.39979037169516,-6.956767349603772,6.750487821167707
1783246177398881300,1.56388134765625,4.770488893437386,-6.87465429906249,6.607636516547203
1783246177408893400,1.5738935546875,4.477405526295304,-6.769851277807355,6.786499045747518
1783246177418905300,1.5839052734375,3.9342140103846788,-6.751658618512749,6.806386234000325
1783246177428916200,1.593916259765625,3.4349726953595874,-6.591480916038155,6.525583087238669
1783246177438928100,1.60392822265625,3.195887460386753,-6.547060759553313,6.135481945890188
1783246177448940300,1.613940185546875,2.9207717116117475,-6.540320637643337,6.021741000419855
1783246177458952200,1.6239521484375,2.7336668392449615,-6.649377224689721,6.028959845757484
1783246177468964400,1.63396435546875,2.511844289240241,-7.0179890032857655,5.927013382977247
1783246177478975200,1.643975341796875,2.055439660900831,-7.268834234157204,5.540828538289666
1783246177488987100,1.653987060546875,1.6558032139658927,-7.200695348432659,5.377026215577125
1783246177498999000,1.6639990234375,1.4610826058983801,-6.911447029408812,5.43951452819407
1783246177509011200,1.67401123046875,1.091177207295224,-6.640125996741652,5.7182116425871845
1783246177519022300,1.684022216796875,0.7292207949351519,-6.936649275204539,5.794587026259303
1783246177529034200,1.6940341796875,0.5523585727065802,-7.081098078149557,5.851412490808963
1783246177539046400,1.70404638671875,0.39459443417973816,-7.097994267892837,5.8899114405512805
1783246177549058300,1.714058349609375,0.5402074585985392,-7.110308390542865,5.7021817142844196
1783246177559070500,1.724070556640625,0.6472375813186169,-6.6832479301095,5.124079043990373
1783246177569081300,1.734081298828125,0.6265245367009192,-5.912405596432089,3.928316184517741
1783246177579093200,1.74409326171875,0.42020116912312805,-5.737831704336404,1.0352081403791904
1783246177589105200,1.754105224609375,-0.7542932768713683,-5.438443099570274,-2.7421266245543956
1783246177599117300,1.764117431640625,-1.8598036915540694,-3.625703941529989,-6.017288112664223
1783246177609128200,1.774128173828125,-1.62138495766595,-0.40939533214420076,-8.136900678268075
1783246177619140000,1.78414013671875,-0.8179467608101666,3.612111761768162,-9.858387201499939
1783246177629152300,1.79415234375,0.25356091957092286,8.704640359979868,-12.83677874290943
1783246177639164200,1.8041640625,0.03601005553603172,15.881929698383807,-16.3988878718853
1783246177649176000,1.814176025390625,-1.6887191028788684,21.963924384236336,-18.520360970664022
1783246177659187200,1.824187255859375,-2.740854120400548,25.09743868281841,-18.793152660405635
1783246177669199000,1.83419921875,-1.5396195515185593,28.364693927848336,-19.15335375353098
1783246177679211300,1.844211181640625,0.6045052317902445,28.539688091182708,-18.39552112355232
1783246177689223200,1.85422314453125,1.5988561688631773,22.390190479421616,-16.19396268066764
1783246177699235300,1.8642353515625,-0.19627543629407881,13.71558986839652,-13.629172983181476
1783246177709246200,1.87424609375,-3.5428710522815585,11.096388197243213,-13.407353940308093
1783246177719258400,1.88425830078125,-5.2952358211189505,11.961391746652126,-13.733092791861296
1783246177729270300,1.894270263671875,-5.295117747697234,11.407206543040274,-12.322927887773513
1783246177739282200,1.9042822265625,-4.908778004708886,9.48786403632462,-10.163547375404834
1783246177749293300,1.914293212890625,-4.613647057387232,7.416287479615211,-8.177244963616133
1783246177759305200,1.92430517578125,-4.02006595519334,5.313434910154342,-6.263993759512901
1783246177769317000,1.934317138671875,-3.1222093529745933,3.4304689541995526,-4.628296929508448
1783246177779329300,1.944329345703125,-2.060634745325893,1.6490782896250484,-3.37336701079607
1783246177789341200,1.954341064453125,-1.414743171788752,-0.22815204528719185,-1.8181003928124904
1783246177799352000,1.96435205078125,-1.3155138590127229,-2.306557278972864,0.0924082345843315
1783246177809364200,1.9743642578125,-1.4519184717118738,-4.40644982958436,1.974899558764696
1783246177819376000,1.984376220703125,-1.6805480713829397,-6.058293492269516,3.669710841038823
1783246177829388000,1.994387939453125,-1.7180185548603533,-7.212607320022583,4.96559645499587
1783246177839399400,2.0043994140625,-1.5111913294136523,-8.273839543974399,5.871462760668993
1783246177849411300,2.014411376953125,-1.1229289477996527,-9.751924138078094,6.795609988442063
1783246177859423200,2.02442333984375,-0.05776581413969397,-11.281522646319866,7.811454087659716
1783246177869435400,2.034435302734375,1.2987871806174516,-11.94508124784231,9.017038083922863
1783246177879447300,2.044447265625,1.4542518830955027,-11.510575732100008,9.920594359087943
1783246177889458200,2.054458251953125,0.7387135034888982,-10.878543903219699,9.914136561250686
1783246177899470300,2.06447021484375,0.6762894882798195,-10.959946759665012,10.082471851217747
1783246177909482200,2.074482177734375,1.2134332484588026,-10.587218193399906,11.024859084558486
1783246177919494100,2.084494140625,2.060606249883771,-9.414016125303506,11.86054067789316
1783246177929505300,2.09450537109375,3.1760224839657543,-8.585616505670547,12.049100425243378
1783246177939517200,2.10451708984375,3.9577094522625207,-8.23844206737876,11.84644434800148
1783246177949529000,2.114529052734375,4.363617819073796,-8.055674931955338,11.545221513545512
1783246177959541200,2.124541259765625,4.463700826069712,-7.8870023728579275,11.027543209075928
1783246177969553200,2.13455322265625,4.248566375526786,-7.615466820657253,10.297814391553402
1783246177979564300,2.144564208984375,3.7786446784883734,-7.286944475865363,9.374984676119684
1783246177989576400,2.154576416015625,3.106626291656494,-6.944062766331434,8.235427103471755
1783246177999588400,2.16458837890625,2.4594050769507882,-6.819360281863808,7.282853991681337
1783246178009600300,2.174600341796875,1.7981611821115016,-6.904257410165667,6.436186309430003
1783246178019612400,2.1846123046875,1.169109976477176,-7.134200138261914,5.097113295653462
1783246178029623300,2.194623291015625,0.5137146615356206,-7.535340560019016,3.366061656218767
1783246178039635200,2.20463525390625,-0.25044541789889335,-7.485269245904684,1.3277426414668558
1783246178049647400,2.2146474609375,-0.6684213852532208,-8.230453406712412,0.7676566893786192
1783246178059659300,2.2246591796875,-0.697539343187958,-8.497682201629877,0.7044120054364204
1783246178069670100,2.234670166015625,-1.02547351282835,-8.013087836116553,0.5837099887818098
1783246178079682300,2.244682373046875,-1.10097613225393,-7.717068415522575,0.734273475214839
1783246178089694200,2.254694091796875,-1.007634489277005,-7.104785243207216,1.162611115977168
1783246178099706000,2.2647060546875,-1.221969752266258,-6.519869970288872,1.536539121159911
1783246178109718300,2.27471826171875,-1.8762357709169386,-6.426669708544016,1.6415718595176934
1783246178119729400,2.2847294921875,-2.6458213825315235,-5.489148619934916,1.157980533567071
1783246178129741300,2.2947412109375,-4.291705260029435,-2.971137624758482,0.39438860940933224
1783246178139753200,2.304753173828125,-5.6243958792924875,-0.4426198486149311,-0.45441666939258574
1783246178149765400,2.314765380859375,-5.733109351989627,1.9907365948438642,-1.6718705516695975
1783246178159776300,2.3247763671875,-4.391465026420355,4.735907409399748,-3.4484038393408056
1783246178169788200,2.3347880859375,-1.3826590575248001,8.805185723790526,-5.827896006143093
1783246178179800300,2.34480029296875,1.1541174283981324,14.32669698266983,-8.333547285962105
1783246178189812200,2.354812255859375,1.0889613578766584,19.77697080528736,-9.751101131257414
1783246178199824400,2.364824462890625,-1.5978654042601586,22.659795355820656,-10.149784222990274
1783246178209835300,2.374835205078125,-5.979058042991161,22.802138126397132,-10.406605605661868
1783246178219847200,2.38484716796875,-8.931185846853255,23.947450317049025,-12.052443890452384
1783246178229859000,2.394859130859375,-11.208748502010106,24.610583386635778,-13.094241930615901
1783246178239871200,2.404871337890625,-12.25499241566658,24.054179337930677,-12.62961600189805
1783246178249883100,2.414883056640625,-10.587454340243339,25.15577630549669,-12.032731474244594
1783246178259894000,2.42489404296875,-7.477617854368686,26.270356673276424,-10.70888291760683
1783246178269906200,2.43490625,-4.194969225373864,25.450889717161655,-8.609462660682201
1783246178279918000,2.44491796875,-1.7985455052539705,22.941146784114835,-6.547170065146684
1783246178289930200,2.45493017578125,-0.47785132099390026,19.28453683218956,-5.287296844813227
1783246178299941400,2.46494140625,0.20726327877640724,14.95339563382864,-5.091824541595578
1783246178309953300,2.474953369140625,0.5068102889746428,10.293856009316444,-5.496219581234455
1783246178319965200,2.484965087890625,0.21330022085309028,5.468114599734545,-5.671596021884679
1783246178329977300,2.494977294921875,-0.7452502117812633,0.8561445356488228,-5.663754076212644
1783246178339989200,2.5049892578125,-1.6975298935830592,-3.504468840911984,-5.3138686253964895
1783246178350000000,2.515000244140625,-2.556632109993696,-7.214330490553379,-4.46417136619091
1783246178360012300,2.52501220703125,-3.0627380500912667,-9.758484227246045,-3.5568098535239696
1783246178370024200,2.535024169921875,-3.054072513076663,-10.874057113194466,-2.410822540089488
1783246178380036000,2.5450361328125,-2.309216853570938,-10.962986273491381,-0.889331934979558
1783246178390048300,2.55504833984375,-1.1230488478522747,-10.573542719268799,1.0878384913265704
1783246178400059100,2.56505908203125,0.09286832637675106,-9.79525357671678,3.6689918791145084
1783246178410071000,2.575071044921875,1.412225343748927,-8.909941983294486,6.830123667940497
1783246178420083200,2.585083251953125,2.9652555809825656,-7.746513121193647,10.371487530529498
1783246178430095000,2.59509521484375,4.5527223408252,-6.861193344464898,13.328883045661449
1783246178440106200,2.605106201171875,5.645432237580418,-6.634680590817332,14.943140781795977
1783246178450118400,2.615118408203125,6.100328214922547,-6.718965140178799,14.875870495599507
1783246178460130300,2.62513037109375,5.7443970542013645,-6.996687272059917,13.162747896087168
1783246178470142200,2.63514208984375,4.427124953344464,-7.458715585500001,10.842210022556781
1783246178480154400,2.645154296875,2.687237096503377,-7.903118225878477,8.818808006429672
1783246178490165200,2.655165283203125,1.3360031048119068,-8.20111917567849,6.832856307774782
1783246178500177200,2.66517724609375,0.5673111906340346,-8.465013857737183,5.1176668388605115
1783246178510189300,2.675189208984375,0.15392916347384453,-8.602728968513011,3.9582729313641782
1783246178520201200,2.685201171875,-0.2251765731403604,-8.61127409401834,3.2329385494083165
1783246178530212000,2.695212158203125,-0.7299404144465923,-8.495206751427054,2.8214550128132103
1783246178540224300,2.705224365234375,-1.1900864943366498,-8.088204744160175,3.0318852311879394
1783246178550236200,2.715236083984375,-1.1952782908260822,-8.533917882615327,3.454062011232972
1783246178560248000,2.725248046875,-0.9723965871572494,-9.447986199444532,3.8567338803410527
1783246178570260200,2.73526025390625,-1.0121136074524373,-9.622007718354464,4.266783000218868
1783246178580271400,2.745271240234375,-1.1572060420632362,-8.946682691192626,4.560951239988207
1783246178590283300,2.755283203125,-1.0385002407271415,-7.889954792922735,5.889062714767456
1783246178600295400,2.76529541015625,-2.1196704332709313,-7.952275932279229,7.102993683615327
1783246178610307300,2.775307373046875,-3.230667974127829,-8.168000165408849,7.387510882464051
1783246178620318200,2.785318115234375,-4.0993841143190854,-8.559000885945558,6.929316448098421
1783246178630330400,2.795330322265625,-4.065716822516918,-9.155754480695723,5.762040262919664
1783246178640342300,2.80534228515625,-3.521044128137827,-9.061679774203895,5.086819865176081
1783246178650354200,2.815354248046875,-3.2786814789295193,-8.780930403456091,4.913613754302263
1783246178660366300,2.825366455078125,-3.38852950861454,-8.314393672680854,4.913253688818216
1783246178670377200,2.835377197265625,-3.684591014784574,-7.4844854020506135,5.292468109971285
1783246178680389000,2.84538916015625,-3.621024259281158,-6.997318555700779,5.505432815259694
1783246178690401300,2.8554013671875,-3.340153307980299,-6.0104410232484335,5.1353737604647876
1783246178700413200,2.8654130859375,-3.078132603099942,-4.2422278201550245,4.154764640757441
1783246178710424000,2.875424072265625,-3.0999557278513907,-1.6465367884486912,3.1431624168932437
1783246178720436200,2.885436279296875,-3.124975602817535,1.7123954542815685,1.4394465281516313
1783246178730448100,2.8954482421875,-2.804750546249747,5.878672838178277,-1.4325994387358427
1783246178740460000,2.9054599609375,-2.0210738654404876,9.599142391073704,-4.859306410053372
1783246178750472200,2.91547216796875,-1.5107470927774904,13.202871816682816,-8.320750348231195
1783246178760483300,2.9254833984375,-1.8593417731307447,17.92235533002615,-11.762605204319954
1783246178770495200,2.9354951171875,-3.4233331109702587,22.45929499530792,-14.082516470384597
1783246178780507400,2.94550732421875,-4.380277861973643,25.174198097372052,-14.63610078549385
1783246178790519300,2.955519287109375,-3.857089269649982,26.69560102419853,-13.964132083022594
1783246178800531200,2.96553125,-2.8540649045169353,26.884920650005338,-11.867321131813526
1783246178810542300,2.975542236328125,-1.8905190016828477,25.076489418292045,-8.469619305706024
1783246178820554200,2.98555419921875,-0.36480098813623185,23.1372983017683,-5.873027525767684
1783246178830566100,2.995566162109375,1.9483128728732466,22.658747892594334,-5.305473137494921
1783246178840578300,3.005578369140625,3.927944720856845,22.351808434057233,-5.722334275475144
1783246178850589200,3.015589111328125,4.538856604818999,21.004382602477072,-5.721964857640862
1783246178860601000,3.02560107421875,3.7941222336053846,18.415988742041588,-5.856103278973698
1783246178870613200,3.03561328125,2.2783944298058745,15.178074157786368,-6.8470788943946355
1783246178880625200,3.045625244140625,0.558632830670476,11.909993567848204,-8.606378138670324
1783246178890637000,3.055636962890625,-1.285958240313083,8.072179492032527,-11.083644451004266
1783246178900648200,3.065648193359375,-2.1559160511285067,3.238390969595313,-13.324136727917194
1783246178910660400,3.075660400390625,-1.5063630324743686,-1.5948557010501623,-14.030620278930662
1783246178920672300,3.08567236328125,0.0410609091848135,-5.010976980945467,-12.697627461850642
1783246178930684400,3.095684326171875,1.4438386256307363,-7.105735675799846,-9.542621462428569
1783246178940696300,3.1056962890625,1.792199643358588,-7.921008102834224,-5.0085114676147695
1783246178950707200,3.115707275390625,1.1673305457144976,-8.093152137434481,-0.6508990264356136
1783246178960719400,3.12571923828125,0.28248613141253587,-8.449078621980547,2.773534739252925
1783246178970731300,3.135731201171875,-0.5846200528314337,-9.093419897335767,5.13158196696639
1783246178980743200,3.1457431640625,-1.3356471309810876,-10.014973601484298,6.332562268826365
1783246178990754000,3.155754150390625,-2.057022546178102,-10.955216808533669,6.871235430529714
1783246179000766200,3.16576611328125,-2.554734167417884,-11.229287432169913,6.917300431612134
1783246179010778000,3.175778076171875,-2.787401936563849,-11.091541341733931,6.750586605367064
1783246179020790300,3.185790283203125,-3.107016752278805,-10.818721594941616,6.562016921144724
1783246179030802200,3.19580224609375,-3.8276118307530878,-10.563735611003636,6.328266617459058
1783246179040813300,3.205813232421875,-4.542994143015146,-10.441510914826393,6.015601767012477
1783246179050825200,3.2158251953125,-5.244365465581417,-10.192238047838211,5.630177969825268
1783246179060837400,3.22583740234375,-5.6453334533810615,-10.129850857508181,4.909221072301269
1783246179070849300,3.235849365234375,-5.670589475190639,-10.527910264384746,4.090822037678957
1783246179080860200,3.245860107421875,-5.135064548385143,-10.748614039492606,3.4544887122124432
1783246179090872300,3.255872314453125,-4.206244068104028,-10.668534540605544,3.0799037044256923
1783246179100884200,3.26588427734375,-3.257697143089771,-10.484435864317417,2.883627099087834
1783246179110896400,3.275896484375,-2.349150220030546,-10.39306340252161,2.9331238281846046
1783246179120908300,3.285908203125,-1.4305144491553305,-10.495296281027793,3.0448902587115763
1783246179130919200,3.295919189453125,-0.8633142811477184,-10.684688387548922,2.9634435631245375
1783246179140931000,3.30593115234375,-0.7242787354230881,-10.91134727166891,2.629417944741249
1783246179150943200,3.315943115234375,-1.4441361472725867,-10.91330541999936,2.400589315366745
1783246179160955100,3.325955078125,-2.7783412627518174,-10.90362924463749,2.4554174686193466
1783246179170967300,3.33596728515625,-4.034515044045448,-10.942544373965262,2.715048063492775
1783246179180978200,3.345978271484375,-5.274983891206979,-11.19708378317952,2.788238387387991
1783246179190990300,3.355990234375,-6.237802502679824,-11.610572229856253,2.6096236954689025
1783246179201002200,3.366002197265625,-5.986046586704254,-11.70020866163969,2.035396989825368
1783246179211014100,3.37601416015625,-5.126852015835047,-11.801375372219084,1.2000041503041983
1783246179221025300,3.386025390625,-5.476073449784517,-11.757489468741417,0.7641057188987731
1783246179231037200,3.396037109375,-6.950805810850858,-11.34827972229719,0.6632435442239045
1783246179241049300,3.40604931640625,-8.66673879160881,-11.235546492564678,0.6258616158127784
1783246179251061200,3.416061279296875,-9.9829289424479,-10.865046123743056,-0.07168927168250083
1783246179261073200,3.4260732421875,-10.66809614918828,-9.772418644574284,-1.9821213267117737
1783246179271084300,3.436084228515625,-11.176932975554466,-7.509747853600978,-4.207279256370663
1783246179281096200,3.44609619140625,-12.266392930603027,-3.4777181966304775,-6.059688161498308
1783246179291108000,3.456108154296875,-12.881833690166472,1.8851976605296135,-8.051440655386447
1783246179301120300,3.466120361328125,-11.793474974358082,7.953744835788011,-10.93785066319108
1783246179311132200,3.476132080078125,-10.037282463926076,14.333666821682453,-14.83733296741247
1783246179321143000,3.48614306640625,-8.480515962773561,20.515023214519022,-19.359811561143395
1783246179331155200,3.4961552734375,-8.307897880920768,24.8246469930768,-22.432170841538905
1783246179341167000,3.5061669921875,-8.33905815833807,27.606936116671562,-22.827735508990287
1783246179351179000,3.516178955078125,-7.144171497178077,29.67351325765848,-21.45114904937744
1783246179361190400,3.5261904296875,-5.924032321339845,30.28137393735647,-19.080344631421564
1783246179371201500,3.536201416015625,-4.7068420584350825,29.827361757111547,-16.23181982537508
1783246179381213400,3.54621337890625,-2.1202041017562148,30.20863603340387,-12.494363481843472
1783246179391225300,3.556225341796875,1.4691031230077147,31.340833890938757,-8.47416104078889
1783246179401237500,3.566237548828125,3.8014059608727693,31.01344551861286,-5.112800109606981
1783246179411248400,3.576248291015625,4.4000402548030015,28.019052105951307,-2.9672569839328524
1783246179421260300,3.58626025390625,4.639957556685805,23.262371957635878,-1.4151584745913743
1783246179431272400,3.5962724609375,4.940281980997324,18.831826966714857,-0.41676060021519656
1783246179441284400,3.606284423828125,5.114048063841462,14.566574244803189,0.3027899376422167
1783246179451295500,3.61629541015625,5.690501797884703,10.116300471061468,1.6310089644491672
1783246179461307400,3.626307373046875,6.934138753688335,5.9993520584791895,3.3397634318798777
1783246179471319600,3.636319580078125,7.7510718074113125,2.5175518532320855,5.10338346196413
1783246179481331500,3.64633154296875,7.730842673853039,-0.23566227478682994,7.024995667177438
1783246179491343600,3.656343505859375,6.932185281533003,-1.9102330253258346,8.819522292178869
1783246179501354500,3.6663544921875,5.727841640719771,-2.8574039858117697,10.017145684826373
1783246179511366400,3.676366455078125,4.426244663378596,-3.417994380290806,10.711017591547966
1783246179521378300,3.68637841796875,2.717080446103215,-4.041661993190646,10.87874848588109
1783246179531390500,3.696390380859375,0.9161969994209707,-4.6945396262228485,10.534213748443126
1783246179541402400,3.70640234375,-0.3594113309871405,-5.521030781885981,9.747238026088475
1783246179551413200,3.716413330078125,-1.2005553544461727,-6.989730877050757,8.697239728334546
1783246179561425400,3.72642529296875,-1.4782833315461874,-8.603091956606507,7.839116586089133
1783246179571437300,3.736437255859375,-1.145402791544795,-9.383089072120189,7.392686823797225
1783246179581449500,3.746449462890625,-1.0419248814135789,-9.466693238002062,7.249087331157923
1783246179591460400,3.75646044921875,-1.3514414969623088,-9.371865667316317,7.160150572076439
1783246179601472300,3.76647216796875,-1.644495053488016,-9.045387395572662,6.797145527446269
1783246179611484400,3.776484375,-1.8648866939067839,-8.811672163200377,6.054791621628404
1783246179621496300,3.786496337890625,-1.7646178089499474,-8.574186180117726,5.616695972439646
1783246179631508200,3.79650830078125,-1.1499755062878132,-8.018264946493506,5.7709746800035235
1783246179641519400,3.806519287109375,-0.3836380828142166,-7.3090914257436985,6.168730135497451
1783246179651531500,3.816531494140625,0.4107248271822929,-6.782979054927826,6.422080627188086
1783246179661543400,3.82654345703125,1.1702923181295395,-6.477443033447861,6.539125874900818
1783246179671555300,3.836555419921875,2.0261551142275334,-6.270342251756787,6.357265332928299
1783246179681566500,3.84656640625,2.686944251036644,-6.247884336233139,5.964063302955031
1783246179691578400,3.856578369140625,2.9850866551339625,-6.355248147886991,5.127696649965643
1783246179701590300,3.86659033203125,2.8858453596591946,-6.8858508158594365,3.7282524618566035
1783246179711602400,3.8766025390625,2.8061481380879876,-7.509010186976194,2.1191513778328894
1783246179721614300,3.8866142578125,2.7533260639607904,-7.930361622112989,0.9698159230142831
1783246179731625200,3.896625244140625,2.7593501465559003,-7.96469409982562,0.5090688815563917
1783246179741637400,3.906637451171875,2.2679519462466238,-7.83263248476684,0.8230278634667396
1783246179751649300,3.916649169921875,1.4091361455619333,-7.5394310442030426,1.7541355779021977
1783246179761661200,3.9266611328125,0.8016554050922393,-7.282811906105279,2.589092948615551
1783246179771672600,3.936672607421875,0.33370822299718855,-7.012016358616948,3.2156501454770563
1783246179781684500,3.9466845703125,-0.20448796884417533,-6.744368461504578,3.390595793494582
1783246179791696400,3.9566962890625,-0.7018728423476219,-6.7961646997153755,3.008812398636341
1783246179801708500,3.96670849609375,-0.9156476949751376,-6.687891372001171,2.073244782182574
1783246179811720400,3.976720458984375,-1.0247744246482848,-6.446306136906147,0.7513385917842388
1783246179821731300,3.9867314453125,-1.3617951331943272,-6.156506613740325,-1.6085072097837925
1783246179831743500,3.996743408203125,-3.0224475407570597,-5.893593343934416,-5.133264220964908
1783246179841755400,4.00675537109375,-5.620999807113408,-5.005529821455478,-8.56630565600097
1783246179851767300,4.016767333984375,-7.249484221521019,-1.949421710897982,-10.525387467908859
1783246179861779500,4.026779541015625,-7.567870372223854,2.971946018531918,-10.43603277567625
1783246179871790300,4.036790283203125,-6.623434974181651,8.236061309722066,-9.48948725361228
1783246179881802200,4.04680224609375,-5.576494894954562,13.066703935348986,-9.382678153231739
1783246179891814400,4.056814453125,-5.364315202564001,17.33032934831977,-9.809477916902303
1783246179901826300,4.066826416015625,-5.1051007872760295,18.92589641250968,-10.28049150083065
1783246179911837400,4.07683740234375,-4.534994960954785,19.42580758962035,-9.896114582347868
1783246179921849600,4.086849609375,-3.2170284480929374,18.75591744698882,-9.627955813103913
1783246179931861500,4.096861572265625,-1.9620634580671785,16.627257067054508,-10.728903961372374
1783246179941873400,4.106873291015625,-2.199923827420175,13.12492231556177,-12.536913168281316
1783246179951885600,4.116885498046875,-3.9486864801123738,9.158092568254471,-13.952325909894704
1783246179961896400,4.126896484375,-5.592348882168531,7.740752073448896,-14.947980623042582
1783246179971908400,4.136908447265625,-5.695740283060074,8.875575603312253,-15.328331354749201
1783246179981920500,4.14692041015625,-4.865693773002922,10.073561399531364,-14.54098621456027
1783246179991932400,4.156932373046875,-3.5706522086545824,9.959781875616311,-12.96125034123063
1783246180001944300,4.1669443359375,-2.165843863163888,8.246164770585297,-11.053016673028468
1783246180011955500,4.17695556640625,-1.0115966709062456,5.360000261974334,-9.231992501723767
1783246180021967400,4.18696728515625,-0.5448910133048892,2.7262641617730257,-7.22809072035849
1783246180031979300,4.196979248046875,-0.3072781889721751,1.2250555894523858,-3.9742619431346653
1783246180041991400,4.206991455078125,0.9235498464018106,0.308874810513854,0.08690846812427043
1783246180052002300,4.217002197265625,3.376590064495802,-0.0539065083630383,4.635978131660819
1783246180062014500,4.227014404296875,6.174584122222662,-0.1823611849710345,9.405927511394024
1783246180072026400,4.2370263671875,8.526257723250986,-0.3852092776536941,13.682175090050697
1783246180082038500,4.24703857421875,9.799154091286658,-0.5554384185433388,16.389399912571907
1783246180092050400,4.257050537109375,10.374050074493885,-1.0579030795291064,16.748046177470684
1783246180102061600,4.2670615234375,11.086242066282033,-2.012622847959399,14.89505801115036
1783246180112073500,4.277073486328125,10.992864694404602,-3.2707588692367073,11.919777295237779
1783246180122085400,4.28708544921875,9.668867669206858,-4.72909422225356,8.94857771115899
1783246180132097500,4.29709765625,8.166216204601525,-5.8489516536533825,6.458610322684049
1783246180142108400,4.3071083984375,7.071174065506458,-6.355601783630251,4.887214992198348
1783246180152120300,4.317120361328125,4.977780229264497,-4.70433767439872,6.022096974250674
1783246180162132500,4.327132568359375,3.9708538882568476,-4.855001114074885,5.817054294133186
1783246180172144400,4.337144287109375,3.4474943232804534,-7.154998596140742,5.199893871170282
1783246180182156300,4.34715625,3.9842292103976007,-7.565925667896867,3.8609886151760815
1783246180192167200,4.357167236328125,4.942515439137816,-7.268622052711248,3.3934757328450678
1783246180202179300,4.367179443359375,4.921587801921367,-6.41198418058753,3.2567654151976106
1783246180212191200,4.377191162109375,3.919304610544443,-5.080115399101376,2.7992028489947316
1783246180222203400,4.387203369140625,2.7897552216917276,-4.446262784534692,3.188154820308089
1783246180232215300,4.39721533203125,0.9599386721223592,-4.487780789837241,3.7056355563789602
1783246180242226400,4.407226318359375,-0.7888507224462926,-4.623185285583138,4.1575668386965985
1783246180252238600,4.417238525390625,-0.5507914695203304,-4.693389871665835,5.1376621636629105
1783246180262250500,4.42725048828125,-1.9245966278515756,-4.785205401054024,5.198306894239783
1783246180272262400,4.437262451171875,-1.841699002803862,-5.227916435083746,4.373372320368886
1783246180282273300,4.447273193359375,-1.0925976685523986,-5.284172575312852,3.350940659454465
1783246180292285400,4.457285400390625,-1.4954592150136827,-6.204227565336227,1.6967343592911959
1783246180302297300,4.46729736328125,-2.300259055611491,-7.921134359562396,0.014151274949312209
1783246180312309500,4.4773095703125,-2.399845511262119,-8.658685833534598,-1.900577015969157
1783246180322321400,4.4873212890625,-1.3100427341252565,-8.7301313595891,-4.2390404222905635
1783246180332332300,4.497332275390625,-0.8073129924625158,-8.889743829396366,-5.982437748557329
1783246180342344200,4.50734423828125,-1.9179703415796159,-8.24938723976314,-7.152724221467971
1783246180352356400,4.5173564453125,-5.037181681782007,-6.880597133114933,-8.182628410220145
1783246180362368300,4.5273681640625,-9.180739284348487,-5.829034654784202,-8.836113946017623
1783246180372380400,4.53738037109375,-16.38360846968889,-4.453850463184714,-8.692505101028084
1783246180382392300,4.547392333984375,-16.525289561486243,-0.5312573324888944,-12.316803267413377
1783246180392404500,4.557404541015625,-15.770012461209296,3.1166976038157936,-14.51233879674673
1783246180402416400,4.56741650390625,-16.036334662675856,7.744914453825354,-14.949915390497445
1783246180412428300,4.57742822265625,-13.995310480618476,12.115381700402498,-15.681609370613097
1783246180422439700,4.587439697265625,-10.917077924275398,15.11656141220331,-15.803526608276366
1783246180432451600,4.59745166015625,-7.770496054327488,17.182499086242913,-16.085665972077845
1783246180442463500,4.60746337890625,-5.134216991645097,17.14007448748946,-16.177445261108875
1783246180452475600,4.6174755859375,-4.545408218419552,16.947973706531524,-14.591141699826716
1783246180462487600,4.627487548828125,-5.790702293780446,18.258524390178916,-12.456364882838725
1783246180472498400,4.63749853515625,-6.433590447717904,17.464404641288517,-11.450137337750196
1783246180482510600,4.647510498046875,-7.349684717416763,13.91537126698494,-11.728434054648876
1783246180492522500,4.6575224609375,-8.897557133495807,9.749700616809726,-11.535225020188092
1783246180502534400,4.667534423828125,-9.823521639823912,8.334204873088002,-8.59903946634531
1783246180512545500,4.677545654296875,-7.970854376021027,9.917689285296202,-5.071594238993526
1783246180522557400,4.687557373046875,-3.8708898314654823,9.927400531971454,-2.9905434592351314
1783246180532569300,4.6975693359375,-0.32231004614830017,8.637747090402245,-1.2162334005713462
1783246180542581500,4.70758154296875,2.327664948931336,6.909670667386054,0.11531886231154202
1783246180552593400,4.717593505859375,3.7944548265606164,4.290578301826119,-0.34562107136994596
1783246180562604500,4.7276044921875,4.634678739500045,2.208617275355011,-1.0798811025813222
1783246180572616700,4.73761669921875,5.066731601393222,1.262113838867098,-0.6231938579082489
1783246180582628600,4.747628662109375,5.019219324111938,0.3105160018496215,0.4560547919884324
1783246180592640500,4.757640625,4.71385982824266,-0.7485130129694938,0.9200646346345543
1783246180602651600,4.767651611328125,3.9660014797896146,-1.93619792605713,1.4779878557309507
1783246180612663600,4.77766357421875,3.6638165223032235,-2.3731141562029716,2.476362056970596
1783246180622675500,4.787675537109375,3.7333869021356105,-1.7691899391710757,4.145801874361932
1783246180632687600,4.7976875,4.041583082735539,-1.436813549299538,5.786947909682989
1783246180642699500,4.807699462890625,4.254083093121648,-2.3672899800941347,5.6595233067750925
1783246180652710400,4.81771044921875,3.759416830927133,-3.0005528120741247,4.886268066737055
1783246180662722600,4.82772265625,3.394036873859167,-2.836202500090003,3.9827769657626746
1783246180672734500,4.837734375,3.62144979121685,-2.6950112376362085,2.9418393418207764
1783246180682746400,4.847746337890625,4.226784167307615,-2.3979874623052773,1.865619392095506
1783246180692757200,4.85775732421875,4.895642628803849,-1.5302210240542888,0.6279442673057317
1783246180702769400,4.867769287109375,5.305386628255247,0.30954880078528074,-0.5518748808428645
1783246180712781300,4.87778125,7.393922503072023,-0.12105068396180868,1.7878092994451522
1783246180722793500,4.88779345703125,9.067447251689433,-0.8800074956648051,3.8616415261268613
1783246180732805400,4.897805419921875,10.899417179900407,-0.6780516756467521,3.04920081538707
1783246180742816500,4.90781640625,12.392695251482724,-0.9999522642113268,0.5316442859798669
1783246180752828700,4.91782861328125,12.54966275973916,-1.7604644886627792,-0.28555969363898037
1783246180762840600,4.927840576171875,11.571170778316258,-2.30085819054842,-0.259866157194972
1783246180772852500,4.9378525390625,10.916249072235821,-2.115975962667167,-0.39673020409941673
1783246180782864600,4.94786474609375,10.622637881827353,-1.5991129201032221,-0.09511924710869789
1783246180792875500,4.95787548828125,10.227312868350744,-1.1260248679883778,0.6678276571437716
1783246180802887400,4.967887451171875,9.795265851676463,-0.7163833790633827,1.87544052888602
1783246180812899600,4.977899658203125,9.612704467958212,-0.4243313642630353,2.862406616404652
1783246180822911500,4.987911376953125,9.429839717379211,-0.19019925818555056,2.7809540755987165
1783246180832922400,4.99792236328125,8.42018687401712,-0.09435136800874024,1.8015309508055448
1783246180842934300,5.007934326171875,7.60982033920288,-0.16805033554583787,1.1160095968652517
1783246180852946400,5.017946533203125,7.032027465510368,0.0023219401415437457,0.8104225758504122
1783246180862958300,5.027958251953125,6.01762771988213,0.8353186783064156,0.7853753744859248
1783246180872970500,5.037970458984375,5.249236871010065,1.536912046125531,0.8770029800865798
1783246180882981600,5.047981689453125,4.709917812618613,1.4210476787604391,0.6108427642486989
1783246180892993500,5.05799365234375,4.0809383570462465,1.0754599982034414,0.38706389254443346
1783246180903005700,5.068005615234375,3.221961812841892,0.8747226871296763,-0.0797752552434802
1783246180913017600,5.078017578125,1.4705413391172886,0.9343767992340027,-1.1358058188989757
1783246180923028500,5.088028564453125,-1.353445822522044,0.9858321150526403,-1.8802154882028699
1783246180933040400,5.098040283203125,-3.961694137984514,1.235408787292987,-1.5706617555141449
1783246180943052500,5.108052490234375,-6.040800505676866,2.2125718581996856,-2.1597265493273734
1783246180953064400,5.118064453125,-7.742345480120181,3.1262220957472917,-3.8856460865706204
1783246180963076600,5.12807666015625,-9.728397716540098,2.923868800844252,-5.709712694311142
1783246180973087500,5.13808740234375,-11.344235999864338,2.0133464860588313,-7.8795795293807975
1783246180983099400,5.148099365234375,-11.274349393689631,0.7586784331530332,-8.491897188487648
1783246180993111300,5.158111328125,-9.796308054205774,-0.04544686918407678,-7.296738724648952
1783246181003123500,5.16812353515625,-7.715733952048421,-0.39560996789783237,-5.414959348130226
1783246181013134600,5.178134521484375,-6.5020660180509084,-1.7223747042432427,-3.4762311729431152
1783246181023146500,5.188146484375,-8.006446498405932,-3.197791540442407,-2.178195249084383
1783246181033158700,5.19815869140625,-11.968409516459703,-2.206295992800593,-2.3678853156387802
1783246181043170600,5.208170654296875,-16.301242321169376,0.8991115707159042,-3.544297870214283
1783246181053182500,5.218182373046875,-19.177183541929722,3.226173000796139,-4.150974016302824
1783246181063193600,5.228193603515625,-19.189636196267603,3.576745264832675,-4.122944438126683
1783246181073205500,5.23820556640625,-16.14392176169157,2.8427380393385886,-2.819152581089735
1783246181083217400,5.248217529296875,-11.821885076284408,2.326263265439868,-1.0136172169484197
1783246181093229600,5.2582294921875,-8.025435861036181,2.03114108594656,-0.28908070737197994
1783246181103241500,5.268241455078125,-5.069453719833493,1.2533870731845498,-0.23798618768975138
1783246181113252400,5.27825244140625,-1.6429355490863322,0.2328314352750778,-0.18153247906193137
1783246181123264500,5.288264404296875,2.1940087581574916,-0.511876924714446,-0.4906389063745737
1783246181133276400,5.2982763671875,5.4015960086882115,-1.2066785135015845,-1.352076872256398
1783246181143288300,5.308288330078125,7.059108949181437,-1.6679507478773592,-1.575915145997703
1783246181153299500,5.318299560546875,7.000083928760886,-1.4991168607383965,-0.7423739256925881
1783246181163311400,5.328311279296875,5.480323508444428,-0.7442758137911558,0.5293938767045736
1783246181173323500,5.338323486328125,3.5679379812598224,0.41751580249667164,1.7564096603140233
1783246181183335400,5.34833544921875,2.051914993906021,1.344117437684536,3.2790450515449043
1783246181193346600,5.3583466796875,0.7390618785351515,2.054859815186262,5.195870607003569
1783246181203358500,5.3683583984375,0.25423545783162116,2.774306015886366,5.247691979655623
1783246181213370600,5.37837060546875,0.9468114795237779,2.290130460307002,2.6841458524897694
1783246181223382500,5.388382568359375,1.7747803065240382,0.5389496405571699,1.3283547820158301
1783246181233394400,5.39839453125,3.041490679401159,-0.4481543941274285,1.7046641293771565
1783246181243405600,5.408405517578125,4.868047934913635,0.010012275448441505,2.52007085031569
1783246181253417500,5.41841748046875,6.0746203576922415,1.0278653764009476,3.2871985473841425
1783246181263429400,5.428429443359375,6.672716014701128,1.4695301162481307,3.527686634892225
1783246181273441500,5.438441650390625,7.0086904290646315,1.6246464436799286,3.336650852817297
1783246181283453400,5.448453369140625,6.9847805611670015,1.6492723508924245,3.029368279930949
1783246181293464300,5.45846435546875,6.730001497977971,1.5499085980817675,2.691447407674789
1783246181303476500,5.4684765625,6.645528148046136,1.7248086533918976,2.7812849149882792
1783246181313488400,5.47848828125,6.909431597933173,2.049105781704187,2.9724212348282335
1783246181323500300,5.488500244140625,7.089979888263344,2.1112460115358234,2.884989035090804
1783246181333511700,5.49851171875,6.947550023925304,1.975884185887873,2.3966703883573413
1783246181343523600,5.508523681640625,6.579075607973337,1.9556550523295997,1.7034262581452726
1783246181353535500,5.518535400390625,6.231344120320677,2.244661379291117,0.9951583079330623
1783246181363547600,5.528547607421875,5.849864092323184,2.575838622505963,0.6633436435975134
1783246181373559000,5.53855908203125,5.424003655329346,2.829284975786507,0.8448366674318909
1783246181383570000,5.54856982421875,5.25607110094428,3.0582226184934376,0.8329464692823588
1783246181393581800,5.558581787109375,5.333038020768761,3.1148309331610795,0.6643871613010763
1783246181403593700,5.56859375,5.675763078436255,3.0070304836556314,0.5915940200299025
1783246181413606000,5.57860595703125,5.972921147671341,2.664714591310918,0.2533662737816572
1783246181423616800,5.58861669921875,5.89541471414268,2.472468264402449,-0.012553045972436666
1783246181433628700,5.598628662109375,5.515684744682908,2.608902687717974,-0.04294000092968345
1783246181443640800,5.608640869140625,4.9969092926263805,2.78680338614881,-0.022145050182193517
1783246181453652700,5.61865283203125,4.271180358394981,2.6676202496245502,-0.06694646106958389
1783246181463665000,5.628664794921875,3.3900884284943342,2.3262527440458536,-0.2605196526676416
1783246181473676000,5.638676025390625,2.1809441094011066,1.8173299929618834,-1.1974077040702105
1783246181483688000,5.64868798828125,-0.2723018603980541,1.275206983065605,-2.607056475329399
1783246181493699800,5.658699951171875,-3.0589158614546057,0.5537693162873387,-3.6745214561909436
1783246181503712000,5.6687119140625,-5.1853036202818155,-0.6975754374146461,-4.607100996744633
1783246181513723000,5.678722900390625,-6.80137921949327,-1.974585962770879,-5.143711380699276
1783246181523734800,5.68873486328125,-8.104187326189875,-2.841864763635397,-5.358755814871191
1783246181533747000,5.698746826171875,-9.40912133899927,-3.6415310407370325,-5.032613058692217
1783246181543758800,5.7087587890625,-9.97539328624606,-4.388804867300391,-3.983231723792851
1783246181553770800,5.718770751953125,-9.394307800748944,-5.38468169876635,-3.144060534776747
1783246181563782000,5.728781982421875,-9.259089182963967,-6.189340961849689,-2.6917063508719203
1783246181573793800,5.738793701171875,-10.892104811060427,-6.832026286691427,-1.7402660425037144
1783246181583805700,5.7488056640625,-13.350386436939239,-6.730437551307678,0.29975758420899506
1783246181593817900,5.75881787109375,-15.170040488934516,-5.574933636987209,2.925195081011951
1783246181603829000,5.7688291015625,-16.682804182231425,-4.627905299842357,5.098775091385841
1783246181613841000,5.7788408203125,-17.703284709078073,-4.551538683998585,6.815185626527667
1783246181623853000,5.78885302734375,-16.817524787366388,-4.452387404894829,7.940100925838947
1783246181633865000,5.798864990234375,-13.03486152088642,-4.25877972650528,7.4629709048569195
1783246181643876900,5.808876953125,-7.694697009238601,-4.346336429405212,5.938473519146442
1783246181653888000,5.818887939453125,-2.3138860144257545,-4.449262550872564,3.7779625414431095
1783246181663900000,5.82889990234375,1.2452934908390045,-4.7396723148912185,1.4006522487245499
1783246181673911800,5.838911865234375,2.6676310632795093,-4.973341370034218,-0.6155033764708787
1783246181683924000,5.848924072265625,3.142264591270685,-4.315108347448707,-1.5898000250957904
1783246181693935900,5.858935791015625,3.638748132020235,-2.770738971054554,-1.785549245558679
1783246181703946800,5.86894677734375,4.333997172313929,-1.4991262130886316,-1.401656603461504
1783246181713959000,5.878958984375,4.784451952338219,-0.6335860725849867,-0.9300636122100054
1783246181723970800,5.888970703125,4.101071629014611,0.19156886603832243,-0.5955815552961081
1783246181733982700,5.898982666015625,2.1012217533886433,1.2558166384190321,-0.09241663708649575
1783246181743994000,5.908994140625,0.20039690013825892,2.6623142521709204,0.7238540072049945
1783246181754006000,5.919006103515625,-0.9455945049494504,3.8059342519521713,1.618873705497384
1783246181764018000,5.929017822265625,-0.7699141129165887,4.501336436980963,1.8126073483541607
1783246181774030000,5.939030029296875,0.4821124855697155,4.328932290139794,0.982459496814385
1783246181784042000,5.9490419921875,2.328154193753004,3.5073236458212134,0.4750950810883194
1783246181794052900,5.959052978515625,4.1752229068964715,3.156850750505924,0.633909897711873
1783246181804065000,5.96906494140625,5.772694343402981,3.32634982355535,0.973232015068084
1783246181814077000,5.979076904296875,6.3527580846369265,3.488299796399474,1.6193303632237017
1783246181824088800,5.9890888671875,6.324639074611664,3.918655206725001,2.2423355666920544
1783246181834100000,5.999099853515625,6.47039662206769,4.308691466143727,2.3036153803020714
1783246181844112000,6.00911181640625,6.665275051045417,4.239070232906937,2.0147651206851003
1783246181854123800,6.019123779296875,6.866758577376603,3.9939240904599425,1.5804370073363183
1783246181864136000,6.029135986328125,7.186979542291164,4.044385280674696,1.0837062138274312
1783246181874147800,6.03914794921875,7.599519894462824,4.060774689939618,0.7344095226846635
1783246181884159000,6.049158935546875,8.05954855851829,3.8627047714442013,0.7119839750606566
1783246181894171000,6.0591708984375,8.500011521360278,3.908243118304014,0.8531281104370951
1783246181904182800,6.069182861328125,8.614215992689132,4.015899775424599,0.7352385208547115
1783246181914195000,6.07919482421875,8.224363857665658,4.163476939523219,0.7724355211529881
1783246181924205800,6.089205810546875,7.727977932071686,4.593415001219511,1.1528317725017667
1783246181934218000,6.099218017578125,7.202237901699543,4.891788291463255,1.5819453660726546
1783246181944230000,6.10922998046875,6.6419350919902325,5.105122999107837,1.9630274807937442
1783246181954242000,6.119241943359375,5.916989417091012,5.4585424692690365,1.7487633833445608
1783246181964254000,6.12925390625,4.841338791686296,5.608385240212082,1.1203392235673963
1783246181974264800,6.139264892578125,3.845534440934658,5.4069777017265555,0.7618645158432423
1783246181984277000,6.149277099609375,3.84282635101974,5.193921811023354,0.40621874793469903
1783246181994289000,6.159288818359375,4.228205140021443,5.064470670723915,0.07246991893248632
1783246182004300800,6.16930078125,4.45299998383522,4.922242466437816,0.20189389723036438
1783246182014311700,6.179311767578125,4.460687615728378,4.7836564180463546,0.5277245187202468
1783246182024323800,6.18932373046875,4.3116269350737335,4.445556682091951,0.6294420315828174
1783246182034335700,6.199335693359375,3.794837103876471,3.703419049373269,0.7417110778696835
1783246182044348000,6.209347900390625,2.8825638537704945,2.29802267486155,0.7601043743029237
1783246182054359800,6.21935986328125,3.063574500915408,0.5083411518037318,0.5804112760299817
1783246182064371000,6.229370849609375,2.0937609159886836,-0.5618301654070615,-0.21379962174259126
1783246182074382800,6.2393828125,-1.1410621319919825,-1.888141312766075,-1.2901695743978023
1783246182084395000,6.24939501953125,-4.421582516786456,-4.023822969639301,-2.2684103575386105
1783246182094407000,6.259406982421875,-6.53542877394855,-6.630927960285544,-2.9706463341102003
1783246182104417800,6.269417724609375,-7.763264349508285,-8.468366675296425,-2.9337407910391686
1783246182114430000,6.279429931640625,-8.977101794853805,-8.413617432498931,-1.843582332332432
1783246182124441900,6.28944189453125,-10.29537109005451,-7.764950110638141,0.3654336600165814
