time,seconds_elapsed,z,y,x
1783246111879086000,0.063086181640625,0.04696223512291908,-0.28839111328125,0.127112478017807
1783246111889097000,0.073096923828125,-0.04619825631380081,-0.24303928017616272,0.19571802020072937
1783246111899108900,0.08310888671875,-0.12537376582622528,-0.20511241257190704,0.2658363878726959
1783246111909121000,0.09312109375,-0.21581313014030457,-0.22785954177379608,0.3424302041530609
1783246111919133000,0.1031328125,-0.33160391449928284,-0.28443199396133423,0.39949455857276917
1783246111929143800,0.113143798828125,-0.44698041677474976,-0.3506028652191162,0.43185675144195557
1783246111939155700,0.12315576171875,-0.48063182830810547,-0.3663802444934845,0.410602331161499
1783246111949167900,0.13316796875,-0.36204099655151367,-0.38332435488700867,0.3432715833187103
1783246111959179800,0.1431796875,-0.12070267647504807,-0.5689296126365662,0.29008984565734863
1783246111969192000,0.15319189453125,0.2323780655860901,-0.8605010509490967,0.25325727462768555
1783246111979203000,0.163203125,0.43100327253341675,-1.0583949089050293,0.15580235421657562
1783246111989215000,0.173215087890625,0.4494723677635193,-1.0814768075942993,0.013051795773208141
1783246111999227000,0.183226806640625,0.3899962604045868,-0.9949808120727539,-0.15861183404922485
1783246112009239000,0.193239013671875,0.28004178404808044,-0.8804198503494263,-0.3412974774837494
1783246112019250000,0.20325,0.1604568064212799,-0.9375449419021606,-0.4888501763343811
1783246112029261800,0.21326171875,0.08175703138113022,-0.9709704518318176,-0.5499868392944336
1783246112039274000,0.22327392578125,0.07873726636171341,-1.0015275478363037,-0.5254021286964417
1783246112049286000,0.233285888671875,0.15755198895931244,-1.0060968399047852,-0.46081772446632385
1783246112059297800,0.2432978515625,0.2681346833705902,-0.9909651279449463,-0.3648083508014679
1783246112069309000,0.253308837890625,0.34803104400634766,-1.1132618188858032,-0.24387723207473755
1783246112079320800,0.26332080078125,0.31732240319252014,-1.3458106517791748,-0.11092422902584076
1783246112089332700,0.273332763671875,0.18125124275684357,-1.6502822637557983,0.016858067363500595
1783246112099345000,0.283344970703125,0.008558028377592564,-2.0366923809051514,0.11222879588603973
1783246112109356000,0.29335595703125,-0.20827293395996094,-2.1845133304595947,0.12466417998075485
1783246112119368000,0.303367919921875,-0.44065263867378235,-2.012855291366577,0.02746731974184513
1783246112129380000,0.313380126953125,-0.620084285736084,-1.8718990087509155,-0.051213476806879044
1783246112139392000,0.32339208984375,-0.7393033504486084,-1.8463619947433472,-0.09709708392620087
1783246112149404000,0.33340380859375,-0.8242494463920593,-1.8670686483383179,-0.1662367731332779
1783246112159415000,0.3434150390625,-0.8833247423171997,-1.924430251121521,-0.26291805505752563
1783246112169427000,0.353427001953125,-0.9370899200439453,-1.835187554359436,-0.338569313287735
1783246112179438800,0.36343896484375,-1.0080231428146362,-1.614567518234253,-0.40621253848075867
1783246112189451000,0.373450927734375,-1.0731779336929321,-1.4423588514328003,-0.48533177375793457
1783246112199462000,0.3834619140625,-1.1272039413452148,-1.405171275138855,-0.5736525654792786
1783246112209473800,0.393473876953125,-1.1564202308654785,-1.4995814561843872,-0.6800644397735596
1783246112219486000,0.40348583984375,-1.1714318990707397,-1.5740832090377808,-0.7968459129333496
1783246112229497900,0.413497802734375,-1.1821529865264893,-1.5220627784729004,-0.9045137763023376
1783246112239509800,0.423509765625,-1.1973907947540283,-1.3549858331680298,-0.9790588617324829
1783246112249521000,0.43352099609375,-1.1963791847229004,-1.1535464525222778,-0.9837682247161865
1783246112259533000,0.443532958984375,-1.1309417486190796,-0.9610705375671387,-0.8920633792877197
1783246112269545000,0.453544921875,-1.0144221782684326,-0.8865624070167542,-0.7202966809272766
1783246112279556900,0.463556884765625,-0.8649637699127197,-0.945220947265625,-0.492978572845459
1783246112289568000,0.473568115234375,-0.6971747875213623,-0.9396333694458008,-0.22371229529380798
1783246112299580000,0.483579833984375,-0.5424792170524597,-0.7591456174850464,0.055347029119729996
1783246112309591300,0.49359130859375,-0.4108576774597168,-0.4383317828178406,0.29332810640335083
1783246112319603200,0.503603271484375,-0.3721824586391449,-0.03535368666052818,0.34749677777290344
1783246112329615400,0.513615478515625,-0.4153818190097809,0.41502150893211365,0.16636736690998077
1783246112339626200,0.523626220703125,-0.5461107492446899,0.46629881858825684,-0.1217951774597168
1783246112349638100,0.53363818359375,-0.6371133923530579,0.268735408782959,-0.4450496435165405
1783246112359650300,0.543650390625,-0.532341718673706,0.10759952664375305,-0.8073511123657227
1783246112369662200,0.553662109375,-0.22694416344165802,-0.08252475410699844,-1.1501476764678955
1783246112379673300,0.56367333984375,0.17762543261051178,-0.20798733830451965,-1.3684059381484985
1783246112389685500,0.573685546875,0.5629664063453674,-0.32537880539894104,-1.4749562740325928
1783246112399697400,0.583697509765625,0.8023470044136047,-0.5450565218925476,-1.4440913200378418
1783246112409709300,0.593709228515625,0.8530970811843872,-0.8363381028175354,-1.2637314796447754
1783246112419721500,0.603721435546875,0.8378459811210632,-0.22170902788639069,-0.36104586720466614
1783246112429732400,0.613732421875,0.8215542435646057,-0.31466782093048096,0.46264418959617615
1783246112439744300,0.623744140625,0.8898182511329651,-0.3186149001121521,1.299470067024231
1783246112449756400,0.63375634765625,1.088736891746521,-0.31293123960494995,2.01015567779541
1783246112459768300,0.643768310546875,1.2688720226287842,-0.1081719622015953,2.5797863006591797
1783246112469779200,0.653779296875,1.299767017364502,-0.1401640921831131,2.7997348308563232
1783246112479791400,0.663791259765625,1.228938102722168,-0.4681571424007416,2.5492758750915527
1783246112489803300,0.67380322265625,1.2537074089050293,-0.8226158618927002,1.972395658493042
1783246112499815200,0.683815185546875,1.3869086503982544,-1.16656494140625,1.1926214694976807
1783246112509827300,0.693827392578125,1.4984513521194458,-1.4305648803710938,0.36797985434532166
1783246112519838200,0.703838134765625,1.4865107536315918,-1.5129975080490112,-0.35323160886764526
1783246112529850400,0.713850341796875,1.3478093147277832,-1.4709980487823486,-0.8513326048851013
1783246112539862300,0.7238623046875,1.1617411375045776,-1.3595614433288574,-1.1038689613342285
1783246112549874400,0.73387451171875,0.9904350638389587,-1.205627202987671,-1.159212589263916
1783246112559885300,0.74388525390625,0.8728487491607666,-1.1191495656967163,-1.0621883869171143
1783246112569897200,0.753897216796875,0.823294460773468,-1.142377495765686,-0.8361376523971558
1783246112579909400,0.763909423828125,0.8060342669487,-1.22172212600708,-0.49976447224617004
1783246112589921300,0.77392138671875,0.774800717830658,-1.4046449661254883,-0.09744654595851898
1783246112599933400,0.783933349609375,0.7386533617973328,-2.107884168624878,0.3218575119972229
1783246112609944300,0.7939443359375,0.6695201396942139,-2.418118953704834,0.7206566333770752
1783246112619956200,0.803956298828125,0.5539053678512573,-2.146040439605713,1.1273343563079834
1783246112629968400,0.813968505859375,0.43240708112716675,-1.838926911354065,1.430696725845337
1783246112639980300,0.823980224609375,0.30404165387153625,-1.5260931253433228,1.5270506143569946
1783246112649991200,0.8339912109375,0.1688835769891739,-1.2226016521453857,1.4413834810256958
1783246112660003000,0.844003173828125,0.03032943420112133,-0.9630034565925598,1.2298924922943115
1783246112670015200,0.85401513671875,-0.0844382718205452,-0.7100394368171692,0.9689163565635681
1783246112680027100,0.864027099609375,-0.17098888754844666,-0.5000292062759399,0.7368810176849365
1783246112690039300,0.874039306640625,-0.22915270924568176,-0.31544029712677,0.6013256311416626
1783246112700050400,0.884050537109375,-0.2875816524028778,-0.19174684584140778,0.5892784595489502
1783246112710062300,0.894062255859375,-0.3640710115432739,-0.11726697534322739,0.6834273934364319
1783246112720074200,0.90407421875,-0.4378914535045624,-0.05732641741633415,0.8375319838523865
1783246112730086400,0.91408642578125,-0.4846128821372986,-0.026850532740354538,0.9861366152763367
1783246112740097300,0.92409716796875,-0.5204792618751526,-0.041220150887966156,1.092761516571045
1783246112750109200,0.934109130859375,-0.5364527702331543,-0.0836675837635994,1.147307276725769
1783246112760121300,0.944121337890625,-0.5207939147949219,-0.13356882333755493,1.1351995468139648
1783246112770133200,0.95413330078125,-0.45293527841567993,-0.14709481596946716,1.0664831399917603
1783246112780145400,0.9641455078125,-0.3318197727203369,-0.12321130931377411,0.964729905128479
1783246112790156300,0.97415625,-0.1558810919523239,-0.05952431634068489,0.8433215022087097
1783246112800168200,0.984168212890625,0.05696326121687889,0.02304166555404663,0.7290721535682678
1783246112810180000,0.99418017578125,0.2799122929573059,0.13682666420936584,0.6503032445907593
1783246112820192300,1.004192138671875,0.48632270097732544,0.25577008724212646,0.6179988384246826
1783246112830203400,1.014203369140625,0.658301830291748,0.3372667133808136,0.6349068284034729
1783246112840215300,1.02421533203125,0.7635430097579956,0.3849692642688751,0.699232280254364
1783246112850227500,1.0342275390625,0.7882644534111023,0.4001903533935547,0.7978270649909973
1783246112860239400,1.0442392578125,0.738609254360199,0.3922826051712036,0.9240148067474365
1783246112870251300,1.054251220703125,0.6303996443748474,0.3801502287387848,1.054850459098816
1783246112880262400,1.064262451171875,0.49543628096580505,0.3675071597099304,1.1547000408172607
1783246112890274300,1.0742744140625,0.3735933005809784,0.3777724504470825,1.1959505081176758
1783246112900286200,1.0842861328125,0.2570275664329529,0.43832927942276,1.1766303777694702
1783246112910298400,1.09429833984375,0.140179842710495,0.45514968037605286,1.1173063516616821
1783246112920309200,1.104309326171875,0.02084413357079029,0.3958013951778412,1.0367233753204346
1783246112930321200,1.114321044921875,-0.08503305166959763,0.31633421778678894,0.9186041355133057
1783246112940333300,1.124333251953125,-0.1838959902524948,0.23931585252285004,0.7556780576705933
1783246112950345200,1.13434521484375,-0.340555340051651,0.2179909199476242,0.6052513122558594
1783246112960357000,1.144357177734375,-0.5972326397895813,0.28647834062576294,0.4794885814189911
1783246112970368500,1.154368408203125,-0.8494488596916199,0.4356828033924103,0.3143966495990753
1783246112980380400,1.16438037109375,-1.0529407262802124,0.6107723116874695,0.07833432406187057
1783246112990392300,1.174392333984375,-1.1679153442382812,0.8540729880332947,-0.26867809891700745
1783246113000404500,1.184404541015625,-1.1499840021133423,1.256075143814087,-0.8154810070991516
1783246113010415400,1.194415283203125,-1.0392953157424927,1.8478376865386963,-1.4231077432632446
1783246113020427300,1.20442724609375,-0.9030362963676453,2.177564859390259,-1.7945704460144043
1783246113030439400,1.214439453125,-0.6019891500473022,1.6936743259429932,-1.907974362373352
1783246113040451300,1.224451416015625,-0.06354775279760361,0.6294189095497131,-1.7904999256134033
1783246113050463200,1.234463134765625,0.48344358801841736,-0.3958984911441803,-1.4068915843963623
1783246113060474400,1.244474365234375,0.6661486625671387,-0.972851574420929,-0.7824811935424805
1783246113070486300,1.254486328125,0.4819440245628357,-0.9824267029762268,-0.0994545966386795
1783246113080498200,1.264498291015625,0.20385035872459412,-0.6253489851951599,0.341922789812088
1783246113090510300,1.27451025390625,0.008443674072623253,-0.20671430230140686,0.3824165165424347
1783246113100521200,1.284521240234375,-0.08711507171392441,0.08717217296361923,0.08875958621501923
1783246113110533000,1.294533203125,-0.13934247195720673,0.12288101017475128,-0.3312987983226776
1783246113120545300,1.304545166015625,-0.1970185488462448,-0.06529608368873596,-0.7055826783180237
1783246113130557200,1.31455712890625,-0.253091961145401,-0.36440926790237427,-0.9202868938446045
1783246113140569000,1.324569091796875,-0.29164040088653564,-0.702058732509613,-0.9550305008888245
1783246113150580500,1.33458056640625,-0.29688966274261475,-1.072396159172058,-0.8324235081672668
1783246113160592400,1.34459228515625,-0.28404736518859863,-1.4499554634094238,-0.5954631567001343
1783246113170604300,1.354604248046875,-0.290060430765152,-1.800426721572876,-0.3026216924190521
1783246113180616400,1.364616455078125,-0.3287971615791321,-2.023185968399048,-0.060622911900281906
1783246113190627300,1.37462744140625,-0.37500396370887756,-2.064453125,0.0414215624332428
1783246113200639200,1.38463916015625,-0.411064475774765,-1.9170154333114624,-0.04027862846851349
1783246113210651400,1.3946513671875,-0.41278862953186035,-1.6760802268981934,-0.28740665316581726
1783246113220663300,1.404663330078125,-0.4036788046360016,-1.4350296258926392,-0.6104155778884888
1783246113230675200,1.41467529296875,-0.4522547125816345,-1.315471887588501,-0.8757850527763367
1783246113240686000,1.42468603515625,-0.561252772808075,-1.2878721952438354,-1.0139970779418945
1783246113250698200,1.4346982421875,-0.6843174695968628,-1.259742021560669,-1.0025036334991455
1783246113260710100,1.444710205078125,-0.7614127993583679,-1.1475869417190552,-0.8740001916885376
1783246113270722300,1.454722412109375,-0.7729265093803406,-0.9086583852767944,-0.6682649254798889
1783246113280733400,1.4647333984375,-0.7258375883102417,-0.6130810379981995,-0.43021532893180847
1783246113290745300,1.474745361328125,-0.6501063108444214,-0.3342320919036865,-0.19205984473228455
1783246113300757500,1.484757568359375,-0.5503299236297607,-0.11996295303106308,0.016300030052661896
1783246113310769700,1.494769775390625,-0.421448677778244,0.04351354017853737,0.18592624366283417
1783246113320781600,1.504781494140625,-0.24222566187381744,0.1581365168094635,0.32699522376060486
1783246113330792700,1.514792724609375,-0.012504056096076965,0.19759684801101685,0.4395156502723694
1783246113340804600,1.5248046875,0.24249760806560516,0.16229531168937683,0.5269193053245544
1783246113350816500,1.53481640625,0.49555110931396484,0.09160485118627548,0.5735639333724976
1783246113360828700,1.54482861328125,0.724166989326477,0.006832968909293413,0.580996572971344
1783246113370839600,1.554839599609375,0.9198945760726929,-0.06564799696207047,0.5565648674964905
1783246113380851500,1.5648515625,1.0513405799865723,-0.07532165944576263,0.5342867374420166
1783246113390863600,1.574863525390625,1.1010448932647705,-0.026016268879175186,0.534441351890564
1783246113400875500,1.58487548828125,1.092811942100525,0.07191881537437439,0.5557038187980652
1783246113410887400,1.594887451171875,1.0592854022979736,0.22463245689868927,0.5803084969520569
1783246113420898600,1.604898681640625,1.0146055221557617,0.39671555161476135,0.5948541164398193
1783246113430910500,1.614910400390625,0.9607940316200256,0.55485600233078,0.6018415093421936
1783246113440922600,1.624922607421875,0.8955670595169067,0.7063549757003784,0.6091164350509644
1783246113450934500,1.6349345703125,0.8251534700393677,0.8463312983512878,0.6249101161956787
1783246113460945700,1.644945556640625,0.7421256899833679,0.9531373977661133,0.6439024806022644
1783246113470957600,1.65495751953125,0.6441851854324341,0.9967055320739746,0.6810868382453918
1783246113480969700,1.6649697265625,0.4978969395160675,0.9864691495895386,0.7423280477523804
1783246113490981600,1.674981689453125,0.3089103400707245,0.9706221222877502,0.8204037547111511
1783246113500993500,1.68499365234375,0.10122640430927277,0.9468100070953369,0.8930190801620483
1783246113511004700,1.695004638671875,-0.0805479884147644,0.9208941459655762,0.9195523858070374
1783246113521016600,1.7050166015625,-0.21080079674720764,0.9494011998176575,0.8899670243263245
1783246113531028500,1.715028564453125,-0.3277203142642975,1.0398316383361816,0.8422356843948364
1783246113541040600,1.72504052734375,-0.5240861177444458,1.1445202827453613,0.7858113050460815
1783246113551051500,1.735051513671875,-0.8421990275382996,1.2201693058013916,0.7037820219993591
1783246113561063400,1.7450634765625,-1.2440513372421265,1.3077083826065063,0.5368300676345825
1783246113571075600,1.75507568359375,-1.6332694292068481,1.4432765245437622,0.18653550744056702
1783246113581087500,1.76508740234375,-1.8967779874801636,1.5269067287445068,-0.4103294909000397
1783246113591099400,1.775099365234375,-1.882412075996399,1.6279933452606201,-1.2793102264404297
1783246113601110800,1.78511083984375,-1.4870383739471436,1.6586753129959106,-2.2781171798706055
1783246113611122700,1.795122802734375,-0.8791030645370483,1.2583200931549072,-3.0257487297058105
1783246113621134600,1.805134521484375,-0.3163555860519409,0.2081431746482849,-3.304953098297119
1783246113631146800,1.815146728515625,0.033044856041669846,-0.9834242463111877,-2.863395929336548
1783246113641157600,1.82515771484375,-0.05419737100601196,-1.4233391284942627,-1.7151951789855957
1783246113651169500,1.83516943359375,-0.5761673450469971,-0.8215687274932861,-0.33273762464523315
1783246113661181700,1.845181640625,-1.0797398090362549,0.3008767068386078,0.7215780019760132
1783246113671193600,1.855193603515625,-1.1741857528686523,1.1224112510681152,1.1724436283111572
1783246113681205500,1.86520556640625,-0.9061973094940186,1.3270878791809082,1.1017215251922607
1783246113691216400,1.87521630859375,-0.596864640712738,0.9912591576576233,0.7063274383544922
1783246113701228500,1.885228515625,-0.4973561763763428,0.33381012082099915,0.23028552532196045
1783246113711240400,1.895240478515625,-0.6062285304069519,-0.32195594906806946,-0.12238073348999023
1783246113721252600,1.905252685546875,-0.7562223076820374,-0.8001565933227539,-0.27371352910995483
1783246113731263700,1.915263671875,-0.8472980856895447,-1.0407088994979858,-0.2582816481590271
1783246113741275600,1.925275634765625,-0.887627363204956,-1.0547081232070923,-0.21446679532527924
1783246113751287800,1.935287841796875,-0.9082027673721313,-0.9805899858474731,-0.26369020342826843
1783246113761299700,1.9452998046875,-0.9607770442962646,-0.9284767508506775,-0.43419644236564636
1783246113771311600,1.9553115234375,-1.0537899732589722,-0.9053977131843567,-0.6665163040161133
1783246113781322500,1.965322509765625,-1.1629774570465088,-0.9191713333129883,-0.8812903761863708
1783246113791334700,1.975334716796875,-1.2641505002975464,-0.9177176356315613,-1.0251293182373047
1783246113801346600,1.9853466796875,-1.3611366748809814,-0.8605598211288452,-1.0841816663742065
1783246113811358700,1.995358642578125,-1.4458348751068115,-0.7323079109191895,-1.073426604270935
1783246113821370600,2.00537060546875,-1.504734992980957,-0.5638102293014526,-0.9998676776885986
1783246113831381500,2.015381591796875,-1.49973464012146,-0.39725804328918457,-0.866701066493988
1783246113841393400,2.025393310546875,-1.4212939739227295,-0.30510255694389343,-0.6910719871520996
1783246113851405600,2.035405517578125,-1.2874298095703125,-0.2977622449398041,-0.4851200580596924
1783246113861417500,2.04541748046875,-1.125793218612671,-0.3322525918483734,-0.2902839779853821
1783246113871428600,2.0554287109375,-0.9939371347427368,-0.3933209180831909,-0.13951702415943146
1783246113881440500,2.0654404296875,-0.924667239189148,-0.4394511282444,-0.04604965075850487
1783246113891452700,2.07545263671875,-0.9094848036766052,-0.4831559658050537,-0.01718873716890812
1783246113901464600,2.085464599609375,-0.9433197379112244,-0.5201632976531982,-0.05192514508962631
1783246113911475700,2.095475830078125,-0.9826343059539795,-0.562882661819458,-0.16034440696239471
1783246113921487600,2.105487548828125,-0.987533450126648,-0.6022137999534607,-0.3306783437728882
1783246113931499500,2.11549951171875,-0.9457720518112183,-0.6400487422943115,-0.5450788140296936
1783246113941511700,2.12551171875,-0.8454654216766357,-0.6929668188095093,-0.769189178943634
1783246113951523600,2.135523681640625,-0.6835220456123352,-0.739470362663269,-0.9626989960670471
1783246113961534500,2.145534423828125,-0.48755595088005066,-0.7786611914634705,-1.0898337364196777
1783246113971546600,2.155546630859375,-0.3090421259403229,-0.8168703317642212,-1.1207231283187866
1783246113981558500,2.16555859375,-0.1794748306274414,-0.8603128790855408,-1.0599972009658813
1783246113991570400,2.1755703125,-0.07819060236215591,-0.8884239792823792,-0.9291617274284363
1783246114001582600,2.18558251953125,0.01889679580926895,-0.8962041139602661,-0.7630108594894409
1783246114011593500,2.195593505859375,0.10859615355730057,-0.8911983370780945,-0.5809736847877502
1783246114021605400,2.20560546875,0.17915821075439453,-0.8538384437561035,-0.3954640328884125
1783246114031617500,2.215617431640625,0.22546768188476562,-0.7957215905189514,-0.21083205938339233
1783246114041629400,2.22562939453125,0.2503080368041992,-0.7207583785057068,-0.023853112012147903
1783246114051640600,2.235640625,0.266674667596817,-0.6251085996627808,0.13968627154827118
1783246114061652700,2.24565283203125,0.2895248830318451,-0.48855796456336975,0.2559601664543152
1783246114071664600,2.25566455078125,0.3339056074619293,-0.2699412405490875,0.279855877161026
1783246114081676500,2.265676513671875,0.40376484394073486,0.055169180035591125,0.19545313715934753
1783246114091688700,2.275688720703125,0.4584976136684418,0.45037269592285156,0.026213347911834717
1783246114101699600,2.285699462890625,0.42841559648513794,0.8528242707252502,-0.13062046468257904
1783246114111711500,2.29571142578125,0.2655978798866272,1.2875394821166992,-0.19490696489810944
1783246114121723600,2.3057236328125,-0.02172231487929821,1.711646556854248,-0.18287400901317596
1783246114131735600,2.315735595703125,-0.4050559103488922,2.137084722518921,-0.1276816576719284
1783246114141746400,2.325746337890625,-0.9015700221061707,2.586331605911255,-0.04429648444056511
1783246114151758600,2.335758544921875,-1.5105628967285156,3.0710809230804443,0.012341512367129326
1783246114161770500,2.3457705078125,-2.080629587173462,3.5630741119384766,-0.05463273078203201
1783246114171782400,2.355782470703125,-2.4376041889190674,3.8400661945343018,-0.435257226228714
1783246114181794600,2.365794677734375,-2.4140148162841797,3.70292592048645,-1.2826154232025146
1783246114191805700,2.3758056640625,-2.057053565979004,3.027104377746582,-2.3354382514953613
1783246114201817600,2.385817626953125,-1.6991232633590698,1.4429490566253662,-3.2421584129333496
1783246114211829800,2.395829833984375,-1.4008538722991943,-0.6313064098358154,-3.711618185043335
1783246114221841700,2.405841552734375,-1.1364802122116089,-1.957694411277771,-3.3823130130767822
1783246114231852500,2.4158525390625,-1.2252426147460938,-1.8657406568527222,-2.3822553157806396
1783246114241864700,2.42586474609375,-1.8440672159194946,-0.6086843609809875,-1.449514627456665
1783246114251876600,2.435876708984375,-2.5711569786071777,0.7628852725028992,-0.9751779437065125
1783246114261888500,2.445888427734375,-2.981179714202881,1.4368245601654053,-0.8253828287124634
1783246114271900700,2.455900634765625,-3.0758376121520996,1.3862740993499756,-0.8125752210617065
1783246114281911600,2.46591162109375,-3.023895502090454,0.8510014414787292,-0.9154214262962341
1783246114291923500,2.47592333984375,-2.872624158859253,0.15937164425849915,-1.0654176473617554
1783246114301935600,2.485935546875,-2.7184441089630127,-0.7256428599357605,-1.1617075204849243
1783246114311947500,2.495947509765625,-2.518282175064087,-1.6616381406784058,-1.0915478467941284
1783246114321958700,2.505958740234375,-2.1899709701538086,-2.481253147125244,-0.8911199569702148
1783246114331970600,2.515970458984375,-1.841840386390686,-2.9898369312286377,-0.7300538420677185
1783246114341982700,2.525982666015625,-1.6238923072814941,-3.1065638065338135,-0.7515636682510376
1783246114351994600,2.53599462890625,-1.5199189186096191,-2.938075065612793,-1.0311732292175293
1783246114362006500,2.546006591796875,-1.5116764307022095,-2.5125503540039062,-1.5160539150238037
1783246114372017700,2.556017578125,-1.6245042085647583,-1.8880138397216797,-1.9948335886001587
1783246114382029600,2.566029541015625,-1.7932125329971313,-1.342794418334961,-2.291425943374634
1783246114392041500,2.57604150390625,-1.9462379217147827,-1.026978850364685,-2.340165615081787
1783246114402053600,2.5860537109375,-1.967653512954712,-1.0169422626495361,-2.141051769256592
1783246114412064500,2.596064453125,-1.8841148614883423,-1.1858636140823364,-1.7743295431137085
1783246114422076400,2.606076416015625,-1.7789956331253052,-1.4144047498703003,-1.364528775215149
1783246114432088600,2.616088623046875,-1.6558732986450195,-1.5702983140945435,-1.0402772426605225
1783246114442100500,2.6261005859375,-1.534568428993225,-1.5753597021102905,-0.8547438383102417
1783246114452112400,2.6361123046875,-1.453212022781372,-1.4698365926742554,-0.7952149510383606
1783246114462123500,2.64612353515625,-1.4157146215438843,-1.3277993202209473,-0.8156861662864685
1783246114472135400,2.656135498046875,-1.4180924892425537,-1.2046517133712769,-0.8574092388153076
1783246114482147300,2.666147216796875,-1.4884681701660156,-1.1456714868545532,-0.9053717255592346
1783246114492159500,2.676159423828125,-1.589164137840271,-1.1801421642303467,-1.0009582042694092
1783246114502170600,2.686170654296875,-1.6756230592727661,-1.205727219581604,-1.1650822162628174
1783246114512182500,2.6961826171875,-1.7167840003967285,-1.2385989427566528,-1.3833574056625366
1783246114522194700,2.706194580078125,-1.719139814376831,-1.2869139909744263,-1.622644305229187
1783246114532206600,2.71620654296875,-1.7242780923843384,-1.3146332502365112,-1.817564606666565
1783246114542218500,2.726218505859375,-1.739556908607483,-1.3418326377868652,-1.9313678741455078
1783246114552229600,2.736229736328125,-1.7521862983703613,-1.364449143409729,-1.9838310480117798
1783246114562241500,2.746241455078125,-1.7596758604049683,-1.402199149131775,-1.999268651008606
1783246114572253400,2.75625341796875,-1.7984340190887451,-1.430781602859497,-1.9908151626586914
1783246114582265600,2.766265625,-1.8842724561691284,-1.4664114713668823,-1.9654234647750854
1783246114592277500,2.776277587890625,-1.9663646221160889,-1.4395179748535156,-1.941622257232666
1783246114602288400,2.786288330078125,-2.0575592517852783,-1.2957879304885864,-1.8936281204223633
1783246114612300500,2.796300537109375,-2.2140016555786133,-1.0598735809326172,-1.8042865991592407
1783246114622312400,2.8063125,-2.4629385471343994,-0.7876622676849365,-1.6753355264663696
1783246114632324400,2.816324462890625,-2.7946863174438477,-0.500566840171814,-1.4996052980422974
1783246114642335700,2.826335693359375,-3.1164422035217285,-0.2859669327735901,-1.2977712154388428
1783246114652347600,2.83634765625,-3.392399311065674,-0.19288109242916107,-1.1662110090255737
1783246114662359600,2.846359619140625,-3.632205009460449,-0.1768089234828949,-1.1433464288711548
1783246114672371700,2.856371826171875,-3.7928783893585205,-0.14527016878128052,-1.172652244567871
1783246114682383600,2.866383544921875,-3.839078187942505,0.028651833534240723,-1.138079047203064
1783246114692394500,2.87639453125,-3.69893479347229,0.3841327428817749,-0.9741425514221191
1783246114702406700,2.88640673828125,-3.3202786445617676,0.8673132658004761,-0.653003990650177
1783246114712418600,2.89641845703125,-2.9327094554901123,1.159368872642517,-0.3025953769683838
1783246114722430500,2.906430419921875,-2.7598671913146973,1.091285228729248,0.052147798240184784
1783246114732441300,2.91644140625,-2.8640778064727783,0.7657077312469482,0.3671276271343231
1783246114742453500,2.92645361328125,-3.091474771499634,0.39411768317222595,0.5527763366699219
1783246114752465400,2.93646533203125,-3.1973800659179688,0.26014697551727295,0.6580742001533508
1783246114762477600,2.9464775390625,-3.1302871704101562,0.3140837252140045,0.7287377119064331
1783246114772489500,2.956489501953125,-3.095510959625244,-0.09554602950811386,0.44111183285713196
1783246114782500600,2.96650048828125,-3.2837109565734863,0.10378172248601913,0.08273746818304062
1783246114792512800,2.9765126953125,-3.4976751804351807,1.0415730476379395,-0.24932774901390076
1783246114802524700,2.986524658203125,-3.472611427307129,1.828534483909607,-0.785154402256012
1783246114812536600,2.99653662109375,-3.380929708480835,2.298372268676758,-1.4383310079574585
1783246114822547500,3.00654736328125,-3.2247016429901123,2.0549888610839844,-1.9194300174713135
1783246114832559600,3.0165595703125,-2.9993631839752197,1.2947653532028198,-1.9801615476608276
1783246114842571500,3.026571533203125,-2.885155439376831,0.11338258534669876,-1.6542388200759888
1783246114852583700,3.036583740234375,-2.6119027137756348,-1.245283842086792,-1.351332664489746
1783246114862595600,3.046595703125,-2.4230618476867676,-2.4445695877075195,-1.4037660360336304
1783246114872606500,3.0566064453125,-2.636854648590088,-2.63651967048645,-1.7703783512115479
1783246114882618400,3.066618408203125,-2.8563997745513916,-1.9793587923049927,-2.2421963214874268
1783246114892630500,3.076630615234375,-2.873990297317505,-1.1691374778747559,-2.7877795696258545
1783246114902642400,3.086642333984375,-2.7971036434173584,-0.32915714383125305,-3.265042304992676
1783246114912653600,3.096653564453125,-2.8077266216278076,0.2465752512216568,-3.591625690460205
1783246114922665500,3.10666552734375,-2.82453989982605,0.45538386702537537,-3.724820137023926
1783246114932677600,3.116677734375,-2.6287474632263184,0.010914848186075687,-3.6809332370758057
1783246114942689500,3.126689453125,-2.2081165313720703,-0.9190215468406677,-3.5130653381347656
1783246114952701700,3.13670166015625,-1.93832266330719,-1.8931899070739746,-3.165062189102173
1783246114962712600,3.146712646484375,-1.955570936203003,-2.203317165374756,-2.6514689922332764
1783246114972724500,3.156724365234375,-1.955308437347412,-2.0347681045532227,-2.0403168201446533
1783246114982736600,3.166736572265625,-1.9632004499435425,-1.3705545663833618,-1.3774751424789429
1783246114992748500,3.17674853515625,-2.027315378189087,-0.5646400451660156,-0.851392924785614
1783246115002759400,3.186759521484375,-2.1012661457061768,0.08693642914295197,-0.5432308316230774
1783246115012771600,3.196771484375,-2.1215994358062744,0.4736025631427765,-0.4177623391151428
1783246115022783500,3.206783447265625,-2.1667330265045166,0.588066041469574,-0.37251389026641846
1783246115032795400,3.21679541015625,-2.0276248455047607,0.5475999712944031,-0.3459767997264862
1783246115042807600,3.2268076171875,-1.8736666440963745,0.33676737546920776,-0.28643277287483215
1783246115052818400,3.236818359375,-1.5905489921569824,0.1595759093761444,-0.18425142765045166
1783246115062830300,3.246830322265625,-1.4482855796813965,-0.11680562049150467,-0.16517972946166992
1783246115072842500,3.256842529296875,-1.4619414806365967,-0.511900782585144,-0.21961505711078644
1783246115082854400,3.2668544921875,-1.495554804801941,-0.8036513924598694,-0.30583465099334717
1783246115092865500,3.276865478515625,-1.4818592071533203,-0.9768792390823364,-0.3831854462623596
1783246115102877700,3.286877685546875,-1.452888011932373,-1.1618046760559082,-0.440990686416626
1783246115112889600,3.2968896484375,-1.4161978960037231,-1.3023579120635986,-0.45840319991111755
1783246115122901500,3.306901611328125,-1.4757137298583984,-1.3763657808303833,-0.43937093019485474
1783246115132913700,3.31691357421875,-1.5819741487503052,-1.3617841005325317,-0.3619481921195984
1783246115142924500,3.326924560546875,-1.6317802667617798,-1.2554848194122314,-0.22871077060699463
1783246115152936400,3.3369365234375,-1.6169785261154175,-1.106907844543457,-0.03702710568904877
1783246115162948600,3.346948486328125,-1.522882103919983,-0.9409560561180115,0.24340082705020905
1783246115172960500,3.35696044921875,-1.4395689964294434,-0.6034777164459229,0.6085438132286072
1783246115182971400,3.366971435546875,-1.52759850025177,-0.26084768772125244,1.0033252239227295
1783246115192983600,3.376983642578125,-1.6829075813293457,0.009139054454863071,1.3274433612823486
1783246115202995500,3.386995361328125,-1.8937550783157349,0.06707505881786346,1.5087788105010986
1783246115213007400,3.39700732421875,-2.1428942680358887,-0.11327549070119858,1.5474764108657837
1783246115223019500,3.40701953125,-2.36627197265625,-0.27329444885253906,1.4736378192901611
1783246115233030700,3.41703076171875,-2.490699529647827,-0.27895697951316833,1.3342475891113281
1783246115243042600,3.42704248046875,-2.496833562850952,-0.16144391894340515,1.1720898151397705
1783246115253054700,3.4370546875,-2.346626043319702,-0.14584653079509735,1.0239856243133545
1783246115263066600,3.447066650390625,-2.0706241130828857,-0.11321135610342026,0.9076753258705139
1783246115273077500,3.457077392578125,-1.769620418548584,0.18823987245559692,0.7428072094917297
1783246115283089700,3.467089599609375,-1.5860633850097656,0.4656808376312256,0.470592200756073
1783246115293101600,3.4771015625,-1.6228638887405396,0.5674708485603333,0.349897563457489
1783246115303113500,3.487113525390625,-1.8189187049865723,0.5390471816062927,0.3824336528778076
1783246115313125000,3.497125,-2.130307674407959,0.5250364542007446,0.620918333530426
1783246115323136000,3.507135986328125,-2.4005305767059326,0.4048525094985962,1.0446019172668457
1783246115333148200,3.517148193359375,-2.5315775871276855,0.48931726813316345,1.533134937286377
1783246115343160000,3.52716015625,-2.456754207611084,0.7950151562690735,1.973223090171814
1783246115353172200,3.537172119140625,-2.2140979766845703,1.0188729763031006,2.2761168479919434
1783246115363183400,3.547183349609375,-2.0527713298797607,0.9898737072944641,2.2354660034179688
1783246115373195300,3.5571953125,-1.9535988569259644,0.6132193207740784,1.8138291835784912
1783246115383207400,3.56720751953125,-1.8732062578201294,0.2786455750465393,1.3186007738113403
1783246115393219300,3.57721923828125,-1.7455370426177979,0.013134540989995003,0.9549468755722046
1783246115403231200,3.587231201171875,-1.6484112739562988,-0.4886484146118164,0.7578726410865784
1783246115413242000,3.5972421875,-1.6468838453292847,-1.106357455253601,0.7670265436172485
1783246115423254300,3.607254150390625,-1.6610674858093262,-1.5788296461105347,1.0424355268478394
1783246115433266200,3.61726611328125,-1.655045986175537,-1.8462941646575928,1.3997422456741333
1783246115443278300,3.6272783203125,-1.6956498622894287,-1.996989369392395,1.4463614225387573
1783246115453290200,3.637290283203125,-1.773066520690918,-1.8800348043441772,1.063177227973938
1783246115463301000,3.647301025390625,-1.8067137002944946,-1.4663050174713135,0.4500216543674469
1783246115473313000,3.65731298828125,-1.8899221420288086,-0.9975981712341309,-0.23873627185821533
1783246115483325200,3.6673251953125,-2.1617355346679688,-0.5325860381126404,-0.9626457691192627
1783246115493337000,3.677337158203125,-2.6687283515930176,-0.44485512375831604,-1.6536073684692383
1783246115503348200,3.68734814453125,-3.0483930110931396,-0.754743754863739,-1.9931827783584595
1783246115513360400,3.6973603515625,-3.2173099517822266,-1.2443976402282715,-2.1782121658325195
1783246115523372300,3.707372314453125,-3.2493183612823486,-1.4540904760360718,-2.2462921142578125
1783246115533384400,3.717384521484375,-3.1514341831207275,-1.3960411548614502,-2.111959218978882
1783246115543396400,3.727396240234375,-2.8762705326080322,-1.345627784729004,-1.7726799249649048
1783246115553407200,3.7374072265625,-2.4807424545288086,-1.2511500120162964,-1.239906907081604
1783246115563419100,3.747419189453125,-2.0813167095184326,-1.1036537885665894,-0.5587949752807617
1783246115573431300,3.757431396484375,-1.6420751810073853,-0.9294137358665466,0.19690638780593872
1783246115583443200,3.767443115234375,-1.4231245517730713,-0.6336915493011475,0.7797881960868835
1783246115593454000,3.7774541015625,-1.5018008947372437,-0.43443748354911804,1.116524577140808
1783246115603466200,3.78746630859375,-1.6399034261703491,-0.4383432865142822,1.286583423614502
1783246115613478100,3.79747802734375,-1.5688207149505615,-0.6051256060600281,1.2910165786743164
1783246115623490000,3.807489990234375,-1.4104456901550293,-0.8275083303451538,1.047835111618042
1783246115633502200,3.817502197265625,-1.239963412284851,-0.9828530550003052,0.766912043094635
1783246115643513000,3.82751318359375,-1.189458966255188,-1.0986336469650269,0.38810107111930847
1783246115653525000,3.83752490234375,-1.1434811353683472,-1.2350519895553589,0.07407239824533463
1783246115663537200,3.847537109375,-1.0745140314102173,-1.1233906745910645,-0.09061082452535629
1783246115673549000,3.857549072265625,-0.9805789589881897,-0.8887799978256226,-0.047498203814029694
1783246115683560200,3.867560302734375,-0.9101215600967407,-0.6664600968360901,0.13306517899036407
1783246115693572400,3.877572265625,-0.9700774550437927,-0.3530135750770569,0.3616979420185089
1783246115703584300,3.887584228515625,-0.9380883574485779,-0.24608685076236725,0.5240602493286133
1783246115713596200,3.89759619140625,-0.9092861413955688,-0.08311646431684494,0.5078986883163452
1783246115723608300,3.9076083984375,-0.8667016625404358,0.0908777043223381,0.39796820282936096
1783246115733619200,3.917619140625,-0.6976807713508606,0.13327623903751373,0.2542383670806885
1783246115743631000,3.927631103515625,-0.43337905406951904,-0.040369320660829544,-0.003861610312014818
1783246115753643300,3.937643310546875,-0.27932488918304443,-0.32239633798599243,-0.3668590784072876
1783246115763655200,3.9476552734375,-0.318621426820755,-0.34337857365608215,-0.6955291032791138
1783246115773666000,3.957666015625,-0.48934176564216614,-0.144961878657341,-0.9411076903343201
1783246115783678200,3.96767822265625,-0.6299493908882141,0.14411525428295135,-1.002882480621338
1783246115793690000,3.977690185546875,-0.6020503044128418,0.20868343114852905,-0.8778914213180542
1783246115803702000,3.987701904296875,-0.5019639730453491,-0.006486671976745129,-0.6201064586639404
1783246115813714200,3.997714111328125,-0.5102839469909668,-0.3437967896461487,-0.22467845678329468
1783246115823725300,4.007725341796875,-0.762444257736206,-0.8245059251785278,0.2554929256439209
1783246115833737200,4.0177373046875,-1.0557379722595215,-1.2821661233901978,0.7591835260391235
1783246115843749400,4.027749267578125,-1.2198137044906616,-1.4273416996002197,1.0746005773544312
1783246115853761300,4.03776123046875,-1.1707639694213867,-1.2163829803466797,1.0765491724014282
1783246115863772200,4.047772216796875,-1.0233925580978394,-0.8272759914398193,0.8269633054733276
1783246115873784300,4.057784423828125,-0.8464559316635132,-0.36939871311187744,0.5060738921165466
1783246115883796200,4.067796142578125,-0.7082858085632324,-0.16209720075130463,0.19758766889572144
1783246115893808000,4.07780810546875,-0.5903893709182739,-0.26467108726501465,-0.05154786631464958
1783246115903820300,4.0878203125,-0.481397420167923,-0.4430490732192993,-0.21714268624782562
1783246115913831200,4.0978310546875,-0.49967703223228455,-0.5529286861419678,-0.31328845024108887
1783246115923843000,4.107843017578125,-0.7545412182807922,-0.506817638874054,-0.38880425691604614
1783246115933855200,4.117855224609375,-1.1055150032043457,-0.3240931034088135,-0.49584606289863586
1783246115943867100,4.1278671875,-1.5707831382751465,0.09802509099245071,-0.40660861134529114
1783246115953879000,4.137879150390625,-2.0179948806762695,0.4919130504131317,-0.17382299900054932
1783246115963890400,4.147890380859375,-2.1796185970306396,0.527941882610321,0.04806891828775406
1783246115973902300,4.15790234375,-2.145557165145874,0.19290846586227417,0.09736144542694092
1783246115983914200,4.167914306640625,-1.962550401687622,-0.25155794620513916,0.046341411769390106
1783246115993926400,4.177926513671875,-1.7169121503829956,-0.6656734347343445,-0.15220209956169128
1783246116003937300,4.187937255859375,-1.441314697265625,-0.9916102290153503,-0.5910100936889648
1783246116013949200,4.19794921875,-1.3255836963653564,-1.272744059562683,-1.2670866250991821
1783246116023961300,4.20796142578125,-1.418343424797058,-1.5680774450302124,-2.0051066875457764
1783246116033973200,4.21797314453125,-1.6286509037017822,-1.6651339530944824,-2.4356274604797363
1783246116043985200,4.227985107421875,-1.9007282257080078,-1.5575110912322998,-2.479642152786255
1783246116053996300,4.237996337890625,-1.9412792921066284,-1.4772404432296753,-2.423645257949829
1783246116064008200,4.24800830078125,-2.005570411682129,-0.8228881359100342,-2.05907940864563
1783246116074020000,4.25802001953125,-2.1709394454956055,-0.27185842394828796,-1.5327469110488892
1783246116084032300,4.2680322265625,-2.2221577167510986,-0.27560922503471375,-1.0712677240371704
1783246116094043100,4.278043212890625,-2.1500425338745117,-0.6159037947654724,-0.8445449471473694
1783246116104055000,4.288054931640625,-2.049724578857422,-0.9244393110275269,-0.7568678259849548
1783246116114067200,4.298067138671875,-1.9164400100708008,-1.1579654216766357,-0.7340198159217834
1783246116124079000,4.3080791015625,-1.7194390296936035,-1.2876211404800415,-0.7056488990783691
1783246116134091300,4.31809130859375,-1.4913276433944702,-1.1588215827941895,-0.6124024391174316
1783246116144102100,4.32810205078125,-1.2671250104904175,-0.8614500164985657,-0.4136459529399872
1783246116154114300,4.3381142578125,-1.098334789276123,-0.6658613681793213,-0.13152997195720673
1783246116164126200,4.348126220703125,-0.9061456918716431,-0.7398762106895447,0.1728925108909607
1783246116174138400,4.358138427734375,-0.8267812132835388,-0.8165327906608582,0.5593773722648621
1783246116184149200,4.368149169921875,-0.9463478326797485,-0.9538096785545349,0.978611946105957
1783246116194161200,4.3781611328125,-1.0772793292999268,-1.2062443494796753,1.3519951105117798
1783246116204173300,4.38817333984375,-1.1715154647827148,-1.4477347135543823,1.6129685640335083
1783246116214185200,4.398185302734375,-1.162049651145935,-1.464677333831787,1.7065448760986328
1783246116224197000,4.408197021484375,-1.0640925168991089,-1.1978280544281006,1.636321783065796
1783246116234208000,4.4182080078125,-0.9665050506591797,-0.8261951804161072,1.4523775577545166
1783246116244220200,4.42822021484375,-0.9117608666419983,-0.5454434156417847,1.2309945821762085
1783246116254232000,4.438232177734375,-0.9200814366340637,-0.42922425270080566,1.0052111148834229
1783246116264244200,4.448244140625,-0.9774094223976135,-0.44608232378959656,0.8052907586097717
1783246116274255400,4.45825537109375,-1.0375010967254639,-0.5392094850540161,0.633456826210022
1783246116284267300,4.468267333984375,-1.0539286136627197,-0.6343935132026672,0.4639434218406677
1783246116294279200,4.478279052734375,-1.0302990674972534,-0.6859034299850464,0.3301903009414673
1783246116304291300,4.488291259765625,-0.9419795274734497,-0.6468143463134766,0.26858311891555786
1783246116314303200,4.49830322265625,-0.8114184737205505,-0.6150667071342468,0.2730083465576172
1783246116324314000,4.508314208984375,-0.6657773852348328,-0.6155204772949219,0.33205196261405945
1783246116334326300,4.518326171875,-0.5938720703125,-0.6135455965995789,0.48866352438926697
1783246116344338200,4.528338134765625,-0.641534149646759,-0.7605385184288025,0.7130646705627441
1783246116354350000,4.53835009765625,-0.7582045793533325,-0.9729668498039246,0.9383751749992371
1783246116364361200,4.548361328125,-0.843190610408783,-1.143309473991394,1.121964693069458
1783246116374373000,4.558373046875,-0.8885972499847412,-1.243718147277832,1.1758372783660889
1783246116384385000,4.568385009765625,-0.9452168345451355,-1.330413579940796,1.1461470127105713
1783246116394397200,4.578397216796875,-1.0767316818237305,-1.490976333618164,1.1572407484054565
1783246116404409000,4.5884091796875,-1.3531174659729004,-1.7524702548980713,1.1487865447998047
1783246116414420200,4.598420166015625,-1.6709517240524292,-1.9205596446990967,1.0397226810455322
1783246116424432400,4.608432373046875,-1.8267275094985962,-1.8242796659469604,0.8101578950881958
1783246116434444300,4.6184443359375,-1.7241448163986206,-1.4809616804122925,0.5331093072891235
1783246116444456200,4.628456298828125,-1.4303408861160278,-0.9783464074134827,0.4315078556537628
1783246116454467000,4.638467041015625,-1.1197043657302856,-0.5462817549705505,0.5624576210975647
1783246116464479200,4.648479248046875,-0.8896262049674988,-0.3878556489944458,0.8656880259513855
1783246116474491100,4.6584912109375,-0.7967097163200378,-0.5923953056335449,1.1583776473999023
1783246116484503300,4.66850341796875,-0.8231258988380432,-0.9921041131019592,1.345356822013855
1783246116494515200,4.67851513671875,-0.958730936050415,-1.3744356632232666,1.3625659942626953
1783246116504526000,4.688526123046875,-1.1974924802780151,-1.452330470085144,1.1411957740783691
1783246116514538000,4.6985380859375,-1.5025665760040283,-0.9860966801643372,0.745343029499054
1783246116524550100,4.708550048828125,-1.8089025020599365,-0.24114051461219788,0.26547443866729736
1783246116534562000,4.71856201171875,-1.8782333135604858,0.2566254734992981,-0.14503870904445648
1783246116544574200,4.72857421875,-1.5876450538635254,0.2709812521934509,-0.35218632221221924
1783246116554585300,4.73858544921875,-1.1074237823486328,-0.170193150639534,-0.34072089195251465
1783246116564597200,4.74859716796875,-0.6594708561897278,-0.6717926263809204,-0.20697082579135895
1783246116574609200,4.758609130859375,-0.39292654395103455,-1.0480879545211792,-0.13722680509090424
1783246116584621300,4.768621337890625,-0.31416329741477966,-1.2443361282348633,-0.17984670400619507
1783246116594632200,4.778632080078125,-0.3983806371688843,-1.53803551197052,-0.2869764566421509
1783246116604644000,4.78864404296875,-0.6157342791557312,-1.8880161046981812,-0.568071722984314
1783246116614656300,4.79865625,-0.8283395171165466,-2.049598455429077,-1.1758148670196533
1783246116624668200,4.808668212890625,-0.9302507042884827,-1.809828758239746,-2.0055618286132812
1783246116634680300,4.818680419921875,-0.8891977071762085,-1.1528279781341553,-2.7682418823242188
1783246116644691200,4.828691162109375,-0.7296479940414429,-0.5406640768051147,-3.3006324768066406
1783246116654703000,4.838703125,-0.5229485630989075,-0.25133582949638367,-3.5902957916259766
1783246116664715000,4.848715087890625,-0.4254678189754486,-0.22223520278930664,-3.5566329956054688
1783246116674727200,4.85872705078125,-0.4631771147251129,-0.3519687056541443,-3.155437707901001
1783246116684738000,4.868738037109375,-0.5833538174629211,-0.5676202774047852,-2.405454158782959
1783246116694750000,4.87875,-0.6772089600563049,-1.0177991390228271,-1.5162595510482788
1783246116704762000,4.88876220703125,-0.7352525591850281,-1.4319425821304321,-0.6863599419593811
1783246116714774000,4.89877392578125,-0.7444720268249512,-1.5463874340057373,-0.09865476936101913
1783246116724786200,4.9087861328125,-0.7250242829322815,-1.3697227239608765,0.2101060003042221
1783246116734797300,4.91879736328125,-0.676131546497345,-1.0902355909347534,0.3173598051071167
1783246116744809200,4.928809326171875,-0.6355955600738525,-0.8806134462356567,0.29791074991226196
1783246116754821000,4.938821044921875,-0.6153246164321899,-0.7951834797859192,0.17788492143154144
1783246116764833300,4.948833251953125,-0.5950340032577515,-0.808489978313446,-0.015576142817735672
1783246116774844200,4.95884423828125,-0.5777674317359924,-0.810645341873169,-0.25551092624664307
1783246116784856000,4.96885595703125,-0.6116564273834229,-0.7758002281188965,-0.4507981240749359
1783246116794868200,4.9788681640625,-0.6629828214645386,-0.6221052408218384,-0.4870157241821289
1783246116804880100,4.988880126953125,-0.7157291173934937,-0.35246554017066956,-0.36127299070358276
1783246116814892000,4.99889208984375,-0.7930555939674377,-0.11126650869846344,-0.13362674415111542
1783246116824903200,5.008903076171875,-0.8970704078674316,0.0005857255309820175,0.15137995779514313
1783246116834915000,5.0189150390625,-1.0100818872451782,-0.03167101368308067,0.43312177062034607
1783246116844927000,5.028927001953125,-1.0849438905715942,-0.13523416221141815,0.6749847531318665
1783246116854939100,5.038939208984375,-1.0893218517303467,-0.3322606682777405,0.8491982221603394
1783246116864950300,5.0489501953125,-1.058493971824646,-0.567203164100647,0.8685271739959717
1783246116874962200,5.058962158203125,-1.00017511844635,-0.6809373497962952,0.705644428730011
1783246116884974300,5.068974365234375,-0.9000466465950012,-0.6266418695449829,0.39087823033332825
1783246116894986200,5.078986328125,-0.7827655076980591,-0.4892781674861908,0.042550429701805115
1783246116904998100,5.088998046875,-0.6902313232421875,-0.36359506845474243,-0.20706313848495483
1783246116915009300,5.09900927734375,-0.6440078020095825,-0.3193238377571106,-0.3148338496685028
1783246116925021200,5.109021240234375,-0.6398601531982422,-0.34272342920303345,-0.28845125436782837
1783246116935033000,5.119033203125,-0.6972314119338989,-0.40510809421539307,-0.10498801618814468
1783246116945045200,5.129045166015625,-0.7672771215438843,-0.4899739921092987,0.17027577757835388
1783246116955056000,5.13905615234375,-0.7772709727287292,-0.49480292201042175,0.469193696975708
1783246116965068000,5.149068115234375,-0.7182574272155762,-0.4897000193595886,0.7059553861618042
1783246116975080200,5.159080078125,-0.6423705220222473,-0.4498640298843384,0.855082094669342
1783246116985092000,5.169092041015625,-0.5733906030654907,-0.41358378529548645,0.9634810090065002
1783246116995104000,5.17910400390625,-0.546112060546875,-0.5184219479560852,1.0430632829666138
1783246117005115400,5.189115478515625,-0.6293209195137024,-0.6932422518730164,1.1338509321212769
1783246117015127300,5.199127197265625,-0.7525249123573303,-0.8560490608215332,1.1331067085266113
1783246117025139200,5.20913916015625,-0.8132947683334351,-0.9092155694961548,0.9460551142692566
1783246117035151400,5.2191513671875,-0.7767479419708252,-0.7093274593353271,0.5903319716453552
1783246117045162200,5.229162353515625,-0.6514368653297424,-0.39094576239585876,0.21617275476455688
1783246117055174100,5.239174072265625,-0.5042788982391357,-0.12105362117290497,-0.05815811827778816
1783246117065186300,5.249186279296875,-0.37277042865753174,0.05489423871040344,-0.2101343423128128
1783246117075198200,5.2591982421875,-0.33718353509902954,0.17942482233047485,-0.1361779272556305
1783246117085210000,5.269210205078125,-0.5556154847145081,0.1485300213098526,0.07062878459692001
1783246117095221200,5.27922119140625,-1.0959570407867432,-0.03429443761706352,0.22603584825992584
1783246117105233200,5.289233154296875,-1.8322441577911377,-0.29080504179000854,0.22760418057441711
1783246117115245000,5.2992451171875,-2.4685516357421875,-0.3005395531654358,0.2148616909980774
1783246117125257200,5.30925732421875,-2.7383787631988525,-0.22367911040782928,0.08249406516551971
1783246117135268000,5.31926806640625,-2.5632760524749756,-0.08950225263834,-0.21850383281707764
1783246117145280000,5.329280029296875,-2.072863817214966,-0.10072001814842224,-0.531836986541748
1783246117155292200,5.339292236328125,-1.4395495653152466,-0.3789980709552765,-0.9144803881645203
1783246117165304000,5.349303955078125,-0.9424096941947937,-0.6379715800285339,-1.44229257106781
1783246117175316000,5.35931591796875,-0.6997405290603638,-0.5074428915977478,-2.013000965118408
1783246117185327000,5.3693271484375,-0.6446117758750916,-0.22905519604682922,-2.337052345275879
1783246117195339300,5.37933935546875,-0.7976095676422119,-0.19315683841705322,-2.181164503097534
1783246117205351200,5.38935107421875,-1.1166704893112183,-0.33037516474723816,-1.6618187427520752
1783246117215363300,5.39936328125,-1.2582358121871948,-0.42882096767425537,-0.9770905375480652
1783246117225375200,5.409375244140625,-1.2531288862228394,-0.6382274627685547,-0.20863142609596252
1783246117235386000,5.41938623046875,-1.139072060585022,-1.0154606103897095,0.39987239241600037
1783246117245398300,5.429398193359375,-0.8488752245903015,-1.5010794401168823,0.759394645690918
1783246117255410200,5.43941015625,-0.4947049915790558,-1.948743224143982,0.71492600440979
1783246117265422000,5.449422119140625,-0.1865982860326767,-2.1551902294158936,0.25075700879096985
1783246117275433000,5.459432861328125,0.019659055396914482,-1.9402060508728027,-0.5828845500946045
1783246117285445000,5.469445068359375,0.09261475503444672,-1.306226372718811,-1.5857117176055908
1783246117295457000,5.47945703125,-0.04033973440527916,-0.5357184410095215,-2.507556676864624
1783246117305469200,5.48946923828125,-0.4485567808151245,0.09137021750211716,-3.034846067428589
1783246117315481000,5.499481201171875,-0.9981668591499329,0.4311203956604004,-3.0044608116149902
1783246117325492500,5.509492431640625,-1.4071322679519653,0.4976586699485779,-2.4504077434539795
1783246117335504400,5.51950439453125,-1.6168248653411865,0.2952503561973572,-1.5935908555984497
1783246117345516300,5.529516357421875,-1.6522002220153809,-0.04086989164352417,-0.630979597568512
1783246117355528400,5.539528564453125,-1.5325390100479126,-0.36446282267570496,0.23314669728279114
1783246117365539300,5.549539306640625,-1.2999521493911743,-0.5609209537506104,0.8981894254684448
1783246117375551200,5.55955126953125,-1.0344972610473633,-0.6558197736740112,1.361271858215332
1783246117385563400,5.5695634765625,-0.8093042969703674,-0.666149914264679,1.6571978330612183
1783246117395575300,5.5795751953125,-0.6745253801345825,-0.6613849401473999,1.7981528043746948
1783246117405587200,5.589587158203125,-0.6335992217063904,-0.6826172471046448,1.7649152278900146
1783246117415598300,5.599598388671875,-0.6735243201255798,-0.6421345472335815,1.5520039796829224
1783246117425610200,5.6096103515625,-0.7693938612937927,-0.5093008875846863,1.1781164407730103
1783246117435622100,5.6196220703125,-0.8417249917984009,-0.3129368722438812,0.730532169342041
1783246117445634300,5.62963427734375,-0.8707600831985474,-0.15397971868515015,0.29045623540878296
1783246117455645400,5.6396455078125,-0.8490458130836487,-0.06680838763713837,-0.04695368558168411
1783246117465657300,5.6496572265625,-0.7727049589157104,-0.06645951420068741,-0.23364579677581787
1783246117475669500,5.65966943359375,-0.6757540702819824,-0.13122987747192383,-0.276189386844635
1783246117485681400,5.669681396484375,-0.6106147170066833,-0.19780491292476654,-0.17895980179309845
1783246117495693300,5.679693359375,-0.5887316465377808,-0.21673689782619476,0.021551869809627533
1783246117505704400,5.689704345703125,-0.6193870306015015,-0.24653953313827515,0.282259076833725
1783246117515716400,5.69971630859375,-0.7013902068138123,-0.2735553979873657,0.5540831089019775
1783246117525728300,5.709728271484375,-0.8131745457649231,-0.28227245807647705,0.7747888565063477
1783246117535740400,5.719740478515625,-0.9389795064926147,-0.2549307942390442,0.9135299921035767
1783246117545751300,5.729751220703125,-1.05547297000885,-0.18867719173431396,0.9556529521942139
1783246117555763200,5.73976318359375,-1.1178195476531982,-0.05846326798200607,0.8883660435676575
1783246117565775400,5.749775390625,-1.1096093654632568,0.02645535208284855,0.734937310218811
1783246117575787300,5.759787353515625,-1.0480738878250122,0.004866224713623524,0.533194899559021
1783246117585799200,5.769799072265625,-0.9304187297821045,-0.006488163024187088,0.30658650398254395
1783246117595810000,5.77981005859375,-0.7319433093070984,0.013703608885407448,0.1330442577600479
1783246117605822200,5.789822265625,-0.5603590607643127,0.06643206626176834,0.01020196545869112
1783246117615834000,5.799834228515625,-0.511868953704834,0.1251172125339508,-0.04722733050584793
1783246117625846300,5.80984619140625,-0.5461103320121765,0.08008236438035965,-0.06186113506555557
1783246117635857400,5.819857421875,-0.646571934223175,-0.11320561170578003,-0.038639552891254425
1783246117645869300,5.829869384765625,-0.7429540753364563,-0.22178667783737183,0.08411193639039993
1783246117655881500,5.839881591796875,-0.8310647010803223,-0.03301990404725075,0.3802156448364258
1783246117665893400,5.849893310546875,-0.9594082832336426,0.1485312581062317,0.7961172461509705
1783246117675905300,5.8599052734375,-1.1045693159103394,0.16425690054893494,1.1649439334869385
1783246117685916200,5.869916259765625,-1.1564137935638428,-0.0474710687994957,1.3603150844573975
1783246117695928300,5.87992822265625,-1.0672661066055298,-0.5169999599456787,1.3759934902191162
1783246117705940200,5.889940185546875,-0.8737816214561462,-1.164355993270874,1.1113836765289307
1783246117715952400,5.899952392578125,-0.5621565580368042,-1.5964066982269287,0.4577968120574951
1783246117725963300,5.90996337890625,-0.1717216670513153,-1.5424044132232666,-0.3433115780353546
1783246117735975200,5.91997509765625,0.15768738090991974,-1.14485764503479,-0.8980336785316467
1783246117745987000,5.929987060546875,0.2777821123600006,-0.7192469835281372,-1.0314444303512573
1783246117755999200,5.939999267578125,0.1844707429409027,-0.7064395546913147,-0.910621702671051
1783246117766011100,5.95001123046875,0.017687350511550903,-1.0036619901657104,-0.8044734597206116
1783246117776022300,5.960022216796875,-0.09980269521474838,-1.3707466125488281,-0.7921361327171326
1783246117786034400,5.970034423828125,-0.09765405207872391,-1.6234157085418701,-0.8481152653694153
1783246117796046300,5.98004638671875,-0.022490277886390686,-1.6469237804412842,-0.9822664856910706
1783246117806058500,5.99005859375,0.03998321667313576,-1.4714505672454834,-1.251286506652832
1783246117816069400,6.0000693359375,0.1043141782283783,-1.2425570487976074,-1.832981824874878
1783246117826081300,6.010081298828125,0.14953412115573883,-0.8673248291015625,-2.613049030303955
1783246117836093200,6.02009326171875,0.1511075645685196,-0.43964773416519165,-3.169283151626587
1783246117846105300,6.030105224609375,0.09626056253910065,-0.18590973317623138,-3.213193416595459
1783246117856117200,6.0401171875,-0.05748457461595535,-0.0698886513710022,-2.7143125534057617
1783246117866128100,6.050128173828125,-0.30290818214416504,-0.13064759969711304,-1.8604267835617065
1783246117876140300,6.060140380859375,-0.5874525904655457,-0.30474305152893066,-0.9019142389297485
1783246117886152200,6.070152099609375,-0.8134766817092896,-0.47566577792167664,-0.05596033111214638
1783246117896164000,6.0801640625,-0.9495988488197327,-0.5808446407318115,0.5603630542755127
1783246117906175500,6.090175537109375,-0.9970249533653259,-0.5920493602752686,0.9216088652610779
1783246117916187400,6.1001875,-0.9649295210838318,-0.5049727559089661,1.0024937391281128
1783246117926199300,6.11019921875,-0.8192684650421143,-0.2689594328403473,0.7967697978019714
1783246117936211500,6.12021142578125,-0.6055606603622437,0.026415618136525154,0.4373868405818939
1783246117946223400,6.130223388671875,-0.4028346538543701,0.2083904892206192,0.06203879415988922
1783246117956234200,6.140234130859375,-0.1750364750623703,0.3891642093658447,-0.2053430825471878
1783246117966246400,6.150246337890625,0.02415679208934307,0.4433097243309021,-0.3218156397342682
1783246117976258300,6.16025830078125,0.09549928456544876,0.2701002359390259,-0.284080445766449
1783246117986270200,6.170270263671875,0.07363846153020859,0.0840616524219513,-0.12435977905988693
1783246117996281300,6.18028125,0.014819014817476273,0.0001525909174233675,0.06403027474880219
1783246118006293200,6.190293212890625,-0.04625685513019562,0.0029702153988182545,0.24348577857017517
1783246118016305200,6.20030517578125,-0.08963218331336975,0.10476832091808319,0.3722458779811859
1783246118026317300,6.2103173828125,-0.1030808761715889,0.21711324155330658,0.4278838336467743
1783246118036329200,6.2203291015625,-0.06847848743200302,0.3169654905796051,0.436780720949173
1783246118046340400,6.23034033203125,0.002024437300860882,0.42246368527412415,0.4102463126182556
1783246118056352300,6.240352294921875,0.08346864581108093,0.44388502836227417,0.38403210043907166
1783246118066364400,6.250364501953125,0.13947251439094543,0.3534986674785614,0.40197381377220154
1783246118076376300,6.260376220703125,0.1288217008113861,0.15071088075637817,0.46261170506477356
1783246118086387500,6.270387451171875,0.08617491275072098,-0.070964515209198,0.5448203086853027
1783246118096399400,6.2803994140625,0.052439454942941666,-0.21340352296829224,0.6383649706840515
1783246118106411300,6.290411376953125,0.05921799689531326,-0.2376590520143509,0.6840022206306458
1783246118116423400,6.30042333984375,0.07926980406045914,-0.11943969130516052,0.6606519222259521
1783246118126435300,6.310435302734375,0.11201789230108261,0.06217271089553833,0.6142606735229492
1783246118136446200,6.3204462890625,0.14668036997318268,0.21275220811367035,0.6002337336540222
1783246118146458400,6.330458251953125,0.16846954822540283,0.2738848030567169,0.6324175000190735
1783246118156470300,6.34047021484375,0.15055878460407257,0.24783381819725037,0.679408848285675
1783246118166482200,6.350482177734375,0.08977479487657547,0.15143191814422607,0.7141889333724976
1783246118176493300,6.360493408203125,0.05131375044584274,0.09590824693441391,0.7422391176223755
1783246118186505200,6.370505126953125,0.03270091861486435,0.06305975466966629,0.7950578331947327
1783246118196517000,6.38051708984375,0.016426604241132736,-0.00042733829468488693,0.8646852374076843
1783246118206529300,6.390529296875,0.04017720744013786,0.0018816222436726093,0.9267967939376831
1783246118216541200,6.400541259765625,0.11087577790021896,0.13565342128276825,0.9436067342758179
1783246118226552300,6.41055224609375,0.12545152008533478,0.24551893770694733,0.9042335152626038
1783246118236564500,6.420564453125,0.08816007524728775,0.1928485482931137,0.8656234741210938
1783246118246576400,6.430576416015625,0.046955905854701996,-0.002248512813821435,0.8216901421546936
1783246118256588300,6.44058837890625,-0.058845989406108856,-0.13668526709079742,0.7498852610588074
1783246118266599200,6.45059912109375,-0.2611655294895172,-0.015606771223247051,0.7066892981529236
1783246118276611300,6.460611328125,-0.4424942433834076,0.4003414809703827,0.7554628849029541
1783246118286623200,6.470623291015625,-0.4902934730052948,0.8173978328704834,0.9335412383079529
1783246118296635400,6.480635498046875,-0.36210545897483826,0.8941303491592407,1.0491511821746826
1783246118306647300,6.490647216796875,-0.11741048842668533,0.564382016658783,0.9491111636161804
1783246118316658200,6.500658203125,0.15310178697109222,-0.009768483228981495,0.7709794640541077
1783246118326670300,6.51067041015625,0.4050440192222595,-0.6830443739891052,0.6048903465270996
1783246118336682200,6.52068212890625,0.5943217873573303,-1.122468113899231,0.3601229190826416
1783246118346694100,6.530694091796875,0.659870982170105,-1.1887264251708984,-0.15013408660888672
1783246118356705300,6.540705322265625,0.614322304725647,-0.981005847454071,-0.9326090216636658
1783246118366717400,6.550717529296875,0.4589760899543762,-0.679384708404541,-1.740588903427124
1783246118376729300,6.560729248046875,0.24838943779468536,-0.47875142097473145,-2.255727529525757
1783246118386741500,6.570741455078125,0.08826075494289398,-0.4643447995185852,-2.318542957305908
1783246118396753400,6.58075341796875,-0.0020865686237812042,-0.5675724744796753,-1.9411813020706177
1783246118406764300,6.590764404296875,-0.028453459963202477,-0.725922703742981,-1.3056559562683105
1783246118416776200,6.600776123046875,0.025927698239684105,-0.8823333382606506,-0.6570490002632141
1783246118426788400,6.610788330078125,0.1241900846362114,-1.0762873888015747,-0.22706831991672516
1783246118436800300,6.62080029296875,0.20661519467830658,-1.2881444692611694,-0.11267151683568954
1783246118446811100,6.63081103515625,0.2482212334871292,-1.4253729581832886,-0.32976388931274414
1783246118456823300,6.6408232421875,0.2553163766860962,-1.3578709363937378,-0.7802001237869263
1783246118466835200,6.650835205078125,0.21320272982120514,-1.1272934675216675,-1.3409020900726318
1783246118476847400,6.660847412109375,0.12451973557472229,-0.6877991557121277,-1.93564772605896
1783246118486859300,6.670859375,0.008995000272989273,-0.09959632158279419,-2.4202475547790527
1783246118496870400,6.680870361328125,-0.08946210891008377,0.39248308539390564,-2.581859827041626
1783246118506882300,6.69088232421875,-0.13022206723690033,0.6676549911499023,-2.3189852237701416
1783246118516894500,6.70089453125,-0.11522462964057922,0.6117103695869446,-1.6768693923950195
1783246118526906400,6.71090625,-0.058684393763542175,0.29886749386787415,-0.7984636425971985
1783246118536917200,6.720917236328125,0.032152146100997925,-0.15807197988033295,0.08849122375249863
1783246118546929400,6.730929443359375,0.11904949694871902,-0.5036882758140564,0.779246985912323
1783246118556941300,6.74094140625,0.22966675460338593,-0.6029083728790283,1.1702715158462524
1783246118566953200,6.750953125,0.3361274302005768,-0.4447394907474518,1.2826377153396606
1783246118576964400,6.76096435546875,0.402703195810318,-0.15492157638072968,1.1525079011917114
1783246118586976300,6.770976318359375,0.3692514896392822,0.1655227392911911,0.8647825121879578
1783246118596988200,6.78098828125,0.22419430315494537,0.42741334438323975,0.5205113887786865
1783246118607000300,6.791000244140625,0.012935587204992771,0.524161159992218,0.20778010785579681
1783246118617012200,6.80101220703125,-0.18630856275558472,0.5222601890563965,-0.029332641512155533
1783246118627023000,6.811023193359375,-0.314388245344162,0.5139825940132141,-0.18794624507427216
1783246118637035300,6.82103515625,-0.34982606768608093,0.47848987579345703,-0.25920864939689636
1783246118647047200,6.831047119140625,-0.31403183937072754,0.42130622267723083,-0.2266288697719574
1783246118657059000,6.84105908203125,-0.21264897286891937,0.33109408617019653,-0.09282159805297852
1783246118667070500,6.851070556640625,-0.10105399787425995,0.22281581163406372,0.09880509227514267
1783246118677082400,6.861082275390625,-0.01870347186923027,0.168436199426651,0.320330411195755
1783246118687094300,6.87109423828125,0.032770637422800064,0.1826673299074173,0.5281448364257812
1783246118697106400,6.8811064453125,0.047282785177230835,0.24283750355243683,0.7024481296539307
1783246118707118300,6.891118408203125,0.01404493860900402,0.3202292323112488,0.8754262924194336
1783246118717129200,6.901129150390625,-0.03189917653799057,0.3586527407169342,1.0163136720657349
1783246118727141400,6.911141357421875,-0.050577521324157715,0.3438655436038971,1.1245551109313965
1783246118737153300,6.9211533203125,-0.06917831301689148,0.24819178879261017,1.1941548585891724
1783246118747165200,6.931165283203125,-0.10989564657211304,0.08513949066400528,1.174918532371521
1783246118757176300,6.94117626953125,-0.14670506119728088,-0.034266527742147446,1.0917168855667114
1783246118767188200,6.951188232421875,-0.16294315457344055,-0.04236520081758499,0.9772735834121704
1783246118777200000,6.9612001953125,-0.15648311376571655,0.06909581273794174,0.8905541300773621
1783246118787212300,6.97121240234375,-0.08275457471609116,0.2556353211402893,0.7698085308074951
1783246118797224200,6.98122412109375,0.04426830634474754,0.4787690341472626,0.6051241755485535
1783246118807235300,6.9912353515625,0.1424124538898468,0.5780348777770996,0.4338768422603607
1783246118817247500,7.00124755859375,0.20834629237651825,0.4889932870864868,0.2838619649410248
1783246118827259400,7.01125927734375,0.2595900595188141,0.2962177097797394,0.19024015963077545
1783246118837271300,7.021271240234375,0.23301836848258972,0.15644274652004242,0.20538508892059326
1783246118847282400,7.031282470703125,0.10615603625774384,0.23206640779972076,0.311353862285614
1783246118857294300,7.04129443359375,-0.023957686498761177,0.4871017336845398,0.4835457503795624
1783246118867306200,7.05130615234375,-0.08960779756307602,0.7966691851615906,0.7237722277641296
1783246118877318400,7.061318359375,-0.0379379577934742,0.9949444532394409,0.9915643334388733
1783246118887330300,7.071330322265625,0.13713665306568146,0.8689135313034058,1.113720417022705
1783246118897341200,7.081341064453125,0.33832308650016785,0.47652798891067505,1.0585402250289917
1783246118907353300,7.091353271484375,0.4650363028049469,0.0016693196957930923,0.8465603590011597
1783246118917365200,7.101365234375,0.5109987854957581,-0.37899887561798096,0.5010838508605957
1783246118927377200,7.111377197265625,0.5476822257041931,-0.4517918527126312,0.054825425148010254
1783246118937388300,7.12138818359375,0.59017413854599,-0.28895196318626404,-0.46044060587882996
1783246118947400400,7.131400390625,0.596683144569397,-0.17637722194194794,-0.9821498990058899
1783246118957412400,7.141412353515625,0.4941757619380951,-0.2468382865190506,-1.4621175527572632
1783246118967424500,7.151424560546875,0.22166194021701813,-0.40090107917785645,-1.8138965368270874
1783246118977436400,7.1614365234375,-0.13949978351593018,-0.48323437571525574,-1.8678783178329468
1783246118987447300,7.171447265625,-0.41454651951789856,-0.5200871825218201,-1.6346453428268433
1783246118997459500,7.18145947265625,-0.5189997553825378,-0.5057030320167542,-1.2353776693344116
1783246119007471400,7.191471435546875,-0.4778158366680145,-0.5666846036911011,-0.7876712679862976
1783246119017483300,7.201483154296875,-0.3344888985157013,-0.7198537588119507,-0.4328957200050354
1783246119027494100,7.211494140625,-0.1634172946214676,-0.893846869468689,-0.31074103713035583
1783246119037506300,7.22150634765625,-0.03329809382557869,-1.0342930555343628,-0.5037056803703308
1783246119047518200,7.231518310546875,0.0004721204750239849,-0.9822679758071899,-0.936385989189148
1783246119057530400,7.2415302734375,-0.08807744085788727,-0.6876541972160339,-1.489071249961853
1783246119067542300,7.251542236328125,-0.23594440519809723,-0.2588050961494446,-1.9758739471435547
1783246119077553200,7.26155322265625,-0.39985281229019165,0.13719959557056427,-2.232114553451538
1783246119087565000,7.27156494140625,-0.5377049446105957,0.3492410182952881,-2.2092325687408447
1783246119097577200,7.2815771484375,-0.6393157243728638,0.4216660261154175,-1.867348313331604
1783246119107589000,7.291589111328125,-0.7322336435317993,0.3051378130912781,-1.2618341445922852
1783246119117600300,7.301600341796875,-0.7617252469062805,0.10713757574558258,-0.5292031764984131
1783246119127612400,7.3116123046875,-0.6812679767608643,-0.16394850611686707,0.2845219671726227
1783246119137624300,7.321624267578125,-0.5183606743812561,-0.6910111308097839,0.6662699580192566
1783246119147636200,7.33163623046875,-0.2744564116001129,-0.6557570099830627,0.6696873307228088
1783246119157648400,7.3416484375,-0.09783366322517395,-0.2529011368751526,0.5360541939735413
1783246119167659300,7.3516591796875,-0.02894115075469017,0.054911285638809204,0.37211906909942627
1783246119177671200,7.361671142578125,-0.04223548248410225,0.2641698718070984,0.14735418558120728
1783246119187683300,7.371683349609375,-0.08712705224752426,0.3851628601551056,-0.055662307888269424
1783246119197695200,7.3816953125,-0.09259802848100662,0.45057404041290283,-0.18190348148345947
1783246119207706000,7.3917060546875,-0.0841885656118393,0.5258197784423828,-0.1953551024198532
1783246119217718300,7.40171826171875,-0.09456128627061844,0.3060148060321808,-0.15983068943023682
