time,seconds_elapsed,z,y,x
1783246120263644200,0.06264404296875,1.5816174492925406,0.019592004698514937,0.4539859498251229
1783246120273655300,0.0726552734375,2.364700840383768,-0.2660036370366812,-0.4616730702616274
1783246120283667200,0.082667236328125,1.9932477008819578,-0.5204582905769348,-1.3486059812754392
1783246120293679400,0.092679443359375,1.2510200517922638,-0.3143801299318671,-1.6194161418110131
1783246120303691300,0.102691162109375,0.5584773478478193,0.5011714063048363,-1.0154940436709672
1783246120313703200,0.112703125,0.10092764112651348,1.468279823926091,0.1433733192006126
1783246120323714000,0.122714111328125,0.5276227753788233,1.9099995088309047,1.1637873201496898
1783246120333726000,0.132725830078125,1.6661778929859399,1.877887629777193,1.626798068755865
1783246120343738000,0.142738037109375,2.972946720007062,1.9147350129202008,1.4851517560109495
1783246120353750000,0.15275,4.135628563132882,2.113295929802954,1.0808690176401288
1783246120363761000,0.162760986328125,4.78211737191081,2.216881976483762,0.4337776398591697
1783246120373773000,0.17277294921875,5.538380560615659,2.2474767289727926,-0.13912545249778777
1783246120383785000,0.182784912109375,6.401627621746063,2.249922660820186,-0.4566248469613492
1783246120393796900,0.192796875,7.091750405067205,2.1629472649395463,-0.6732631992612034
1783246120403809000,0.20280908203125,7.55154116871357,2.1430326041579244,-0.772962321506068
1783246120413820000,0.21281982421875,7.930677263933419,2.1503563711747526,-0.8302402790635823
1783246120423832000,0.22283203125,8.16331697602868,2.1109449827626348,-0.8691836115725338
1783246120433844000,0.232843994140625,7.947619046384096,2.091674465103447,-0.9720104373838752
1783246120443856100,0.242856201171875,7.155968902477621,2.172597429077327,-1.088877040594071
1783246120453867000,0.252866943359375,6.401972489660978,2.4479253592982886,-1.040290485144779
1783246120463879200,0.262879150390625,5.747676806524396,2.9215032407566905,-0.8180090123914182
1783246120473891000,0.27289111328125,5.100812150171399,3.3101348940744995,-0.6445251805547625
1783246120483903000,0.282903076171875,4.539662368243932,3.5888302549019455,-0.46789245623312886
1783246120493915100,0.2929150390625,4.7071477633833885,3.769096221159398,-0.22772035760534926
1783246120503926000,0.302926025390625,5.514093676099181,3.6467797550454732,-0.07282821258455514
1783246120513938000,0.31293798828125,6.171598968932032,3.378152199245989,-0.2347657460722141
1783246120523950000,0.3229501953125,6.696239513629674,3.2297830079868435,-0.5937868173664436
1783246120533962000,0.3329619140625,7.051281616556644,3.128313807329535,-0.7345000505123287
1783246120543972900,0.342972900390625,7.17339116192162,3.1418682854294775,-0.45336599129587407
1783246120553985000,0.352985107421875,7.363119368529319,3.3281150796622034,0.004275010438077152
1783246120563997000,0.362996826171875,7.453724937605857,3.2960821110635994,0.6655368427928536
1783246120574008800,0.3730087890625,7.043585216835141,3.050972208973765,1.1619871388599277
1783246120584021000,0.38302099609375,6.3865165618538855,2.7388410270124672,1.1557270555518566
1783246120594032000,0.3930322265625,5.792918216264248,2.6565526199042795,0.9520130667548626
1783246120604044000,0.4030439453125,4.473388691869378,2.459129767140746,0.48321664741933346
1783246120614056200,0.41305615234375,3.249955150660872,2.0340391454756257,-0.44310083706490694
1783246120624068000,0.423068115234375,2.189911259710789,1.1039338860809802,-0.46006388149932026
1783246120634079000,0.433078857421875,1.1821505137056112,0.03413374027013778,-0.3873295212106779
1783246120644091100,0.443091064453125,0.015734160226583478,-0.2442863107472658,-0.16355949039999396
1783246120654103000,0.45310302734375,-1.6769418635845184,0.3110053928017616,0.4202259017055854
1783246120664115000,0.463114990234375,-2.6275427985191344,1.3984978471696377,1.409583012546599
1783246120674127000,0.473127197265625,-3.5085803678840395,2.4391917254835365,2.349446864889562
1783246120684138000,0.483137939453125,-4.500695800989866,2.0800176373183725,2.787462142318487
1783246120694150000,0.49314990234375,-5.795314171490073,-0.505244939354062,2.6397560911431905
1783246120704162000,0.503162109375,-6.440178593936563,-3.6825843511372804,1.9195250236757098
1783246120714174000,0.513174072265625,-5.355744358095526,-6.165744397684931,1.3563174324356018
1783246120724185000,0.52318505859375,-1.8369459630578755,-6.831416045838594,1.1483040659442543
1783246120734197000,0.533197021484375,-1.2583768442958592,-6.244741362032294,0.8213144836775959
1783246120744209200,0.543209228515625,-3.8358693714886902,-5.716660321491957,0.6003263386704027
1783246120754221000,0.553220947265625,-6.557092324224114,-6.17936200414896,-0.7701848926819861
1783246120764232000,0.56323193359375,-8.26376706277132,-6.736724668753147,-2.9007231953173873
1783246120774244000,0.573244140625,-9.26443638921082,-5.538996062165499,-4.498526640257239
1783246120784256000,0.583256103515625,-9.77785177553892,-3.7616210629731412,-4.911854927936196
1783246120794268200,0.59326806640625,-9.411349536442756,-2.5326176126778126,-5.683412131884694
1783246120804280000,0.603280029296875,-9.538079142823815,-2.006565447616577,-6.263103532674909
1783246120814291000,0.613291015625,-9.097907856404781,-2.458206222555041,-5.878770453333854
1783246120824302800,0.623302734375,-9.32146877450943,-2.292586621287465,-5.604197140872478
1783246120834315000,0.63331494140625,-10.096563504934311,-1.9443965762123465,-4.694245319451391
1783246120844327000,0.643326904296875,-10.232520958387852,-1.1858666116192935,-2.86617795163691
1783246120854338000,0.653338134765625,-10.083251603418589,-0.2679974412024021,-2.938007800833881
1783246120864350200,0.66335009765625,-9.482596325054764,-1.5581149931520222,-4.586605905726552
1783246120874362000,0.673362060546875,-8.00740219169557,-3.8994314508169885,-6.638750616735219
1783246120884374000,0.6833740234375,-6.604709815445542,-5.427455257087946,-8.850798889452218
1783246120894386200,0.69338623046875,-5.357238396045565,-5.338651184475421,-8.303029398101568
1783246120904397000,0.70339697265625,-3.5668951942086218,-5.853565869450569,-1.0967734929323196
1783246120914409000,0.713408935546875,-1.2150883221894502,-9.173993317219615,14.271896886467934
1783246120924421000,0.723421142578125,-2.7979847053766247,-5.619773480188846,8.74063112629354
1783246120934433000,0.73343310546875,-1.9170242929011583,1.185910012369603,2.887066718147695
1783246120944444000,0.74344384765625,-1.629519018152356,2.162510480957478,3.000565087033808
1783246120954456000,0.7534560546875,-1.3670347874134778,1.059251425398141,4.924738959428668
1783246120964468000,0.763468017578125,-0.27039924164712426,1.6087689294598995,5.304626749798655
1783246120974480000,0.77347998046875,0.7619611080855131,2.5993326030790804,4.711083641527593
1783246120984492000,0.783491943359375,2.4183190333247184,2.7062852035835383,4.437575035688281
1783246120994503000,0.7935029296875,4.952444127956032,1.7656933292269705,3.2777415677309034
1783246121004514800,0.803514892578125,7.254860653862357,0.546198588772118,2.2269885060869155
1783246121014527000,0.81352685546875,8.5039038526237,0.41148704372644423,1.842488838007301
1783246121024539000,0.823538818359375,9.119149966397881,1.3768702449902892,2.1510484450921417
1783246121034550000,0.833550048828125,9.634652095872163,2.376423719142377,2.0372225978173315
1783246121044562200,0.843562255859375,9.689123690772057,2.8757793081969023,1.686591004808992
1783246121054574000,0.853573974609375,9.894690687024593,2.981815962900221,1.4839569932684302
1783246121064586000,0.8635859375,10.64012210059166,2.931923804745078,0.4179863426178694
1783246121074598100,0.87359814453125,10.178926146322489,2.8976792975768446,1.0353443339794874
1783246121084609000,0.883609130859375,9.663632691162825,3.045957887943089,2.0696134399428963
1783246121094621000,0.893620849609375,9.63560720463991,3.507315170253813,2.47204653185904
1783246121104633000,0.903633056640625,9.455882505652308,3.6841874024197456,2.275420820822567
1783246121114645000,0.91364501953125,9.166701406645775,3.4902328102886675,1.5574142975367604
1783246121124655900,0.92365576171875,9.082457189294695,3.1152298693507907,0.9493120641678571
1783246121134668000,0.93366796875,8.815057129463552,3.1013363685548305,0.2213622390165925
1783246121144680000,0.943679931640625,8.620410171154141,3.4523286115691065,-0.12444456418380141
1783246121154691800,0.95369189453125,8.884773055246471,3.7591482431188226,0.0853521785929799
1783246121164704000,0.9637041015625,9.686719552239776,3.7213942665249107,0.18462898377254605
1783246121174715100,0.973715087890625,10.505710123014449,3.0986624731704593,0.46801937054842707
1783246121184727000,0.98372705078125,10.686008237975836,2.642618202576041,0.6552369095094501
1783246121194739200,0.9937392578125,10.232913757097721,2.3741744789108634,0.4266166621886194
1783246121204751000,1.003751220703125,9.143220577815175,1.6827233695954082,0.07185951368287205
1783246121214762000,1.013761962890625,5.947935759496689,0.6369754227623343,0.30020401280224324
1783246121224774100,1.023774169921875,0.0729717127084732,-0.05521715257018804,0.08787322150319814
1783246121234786000,1.0337861328125,-11.463405984646082,1.3088845040008426,0.1707696775071323
1783246121244798000,1.0437978515625,-15.273084683823585,1.3866118868038058,-1.448495803786814
1783246121254810000,1.05381005859375,-15.188243669623136,0.49181554893851276,-2.608194539448619
1783246121264821000,1.063821044921875,-14.486958856296539,-0.684572747978568,-1.2763823104552925
1783246121274833000,1.0738330078125,-7.825060003685951,-3.0500913344860074,-0.045117637229710815
1783246121284845000,1.083844970703125,-4.119105882877111,-5.79324847113192,1.3911808021545409
1783246121294857000,1.09385693359375,-1.3587877680718898,-7.862768095311522,2.6442566174328324
1783246121304868000,1.1038681640625,-1.6505571300059556,-10.400856248354911,1.7971362229779362
1783246121314880500,1.113880615234375,-10.38703815088272,-12.218388485890626,0.3150137516602874
1783246121324892400,1.123892333984375,-22.293351568913458,-9.97970238161683,-2.835257035933435
1783246121334904300,1.133904296875,-29.52552400562763,-6.101490828961134,-5.938391686081886
1783246121344915700,1.143915771484375,-29.068212783837318,-3.1027254848256707,-6.306185718554258
1783246121354927600,1.153927734375,-21.374770743095873,-1.6416200825735925,-4.636611753389239
1783246121364939500,1.163939453125,-12.000991935634612,-2.2244997580111026,-4.8790270095676185
1783246121374951700,1.17395166015625,-4.427279267123342,-3.9748534792870283,-6.213855809903144
1783246121384963600,1.183963623046875,1.406235163423419,-5.871909919914603,-6.063796765860915
1783246121394974500,1.193974365234375,3.1700182751148938,-7.011721175062656,-5.349575898593664
1783246121404986600,1.203986572265625,0.8371469897121191,-6.273258431464433,-4.903151981520653
1783246121414998500,1.21399853515625,-2.3232465479671953,-4.2969659570366145,-4.397470404314994
1783246121425010400,1.224010498046875,-4.731638646039366,-2.0878136980220674,-3.9280949429824945
1783246121435022600,1.234022705078125,-6.851924580860137,0.39738457635492086,-2.879233540304005
1783246121445033500,1.244033447265625,-8.973264408648014,2.493529172609746,-1.0707909104138613
1783246121455045400,1.25404541015625,-9.843589445340633,2.811023050647974,1.2332909183561802
1783246121465057500,1.2640576171875,-8.711579803854226,2.184998060967028,3.1501679117411374
1783246121475069400,1.2740693359375,-5.7000563926935195,1.5383898635931312,4.149167843663692
1783246121485080600,1.28408056640625,-2.363451132583618,1.1905240820363163,3.9322222520455714
1783246121495092700,1.2940927734375,0.42329789302945137,1.0103171524897216,3.121579238377511
1783246121505104600,1.304104736328125,3.2276287525624037,1.082058885011822,2.9631682533144947
1783246121515116500,1.314116455078125,5.934436226454377,1.0514176630325616,3.1415809929206966
1783246121525127400,1.32412744140625,8.141509633368253,1.1520362382099032,3.041908612552285
1783246121535139600,1.3341396484375,9.865727627390623,1.2040119246408343,2.40101323986724
1783246121545151500,1.3441513671875,11.203925027376412,1.3042962994277476,1.6251682755969463
1783246121555163600,1.35416357421875,12.23427228372097,1.4702391413003206,0.5551628164723516
1783246121565175600,1.364175537109375,12.703252900516986,1.5284955154359339,-0.6953644833669066
1783246121575186400,1.3741865234375,12.46497372123003,1.345268069024384,-1.73616664436087
1783246121585198300,1.3841982421875,11.917821484994887,1.119958261425793,-2.1009394293159245
1783246121595210500,1.39421044921875,11.396987931364775,1.2105170687511562,-1.912076168974489
1783246121605222400,1.404222412109375,10.857065061861276,1.5985194842547177,-1.5235525060757993
1783246121615233500,1.414233642578125,10.275265875136851,2.174830010434985,-1.1763199078559874
1783246121625245700,1.42424560546875,9.25233094087541,2.744691214345395,-0.9015010231357067
1783246121635257600,1.434257568359375,8.802713196197152,2.9613153189241883,-0.6910240430098027
1783246121645269800,1.444269775390625,8.841961503002047,2.927540767355263,-0.5482783907208592
1783246121655281700,1.45428173828125,9.003253888720273,2.894981436794996,-0.21063056325241922
1783246121665292500,1.46429248046875,9.205556330218911,2.9923493396133183,0.1151087266921997
1783246121675304400,1.474304443359375,9.513235793468356,3.1927418558374043,0.46961526143774385
1783246121685316600,1.484316650390625,9.872414557808638,3.2931782063156363,0.8204862161599099
1783246121695328500,1.49432861328125,9.914570276492833,3.3015459294274447,0.8420264323167502
1783246121705339400,1.50433935546875,9.843900410985945,3.2364924424976107,0.672053896536678
1783246121715351600,1.5143515625,9.75219184910357,3.185461343440413,0.5407669191122054
1783246121725363500,1.524363525390625,9.476551784193516,2.99471431517899,0.3294571414239704
1783246121735375400,1.534375244140625,9.01905409992039,2.718089623145759,0.12784458188563586
1783246121745387500,1.544387451171875,8.556375798138976,2.5827070469707247,0.11833689495846629
1783246121755398400,1.5543984375,8.002937028980254,2.472846157804131,0.11116744172051549
1783246121765410300,1.564410400390625,7.270760818305611,2.3439757400020955,0.2495950846798718
1783246121775422500,1.57442236328125,6.380078053238988,2.007951349017024,0.3823115103855729
1783246121785434400,1.584434326171875,5.023907774189114,1.6522551660954952,0.6383484646812081
1783246121795445500,1.594445556640625,2.9091327117443084,1.2015528410509229,1.1141109967023133
1783246121805457700,1.604457763671875,0.09046762191057205,0.2198933355078101,1.364148272191733
1783246121815469600,1.614469482421875,-3.0107980194956063,-1.2475029835820197,1.112743653871864
1783246121825481500,1.6244814453125,-6.47140258423984,-1.7555194334760307,-0.1880656802229583
1783246121835493600,1.63449365234375,-10.863210725009441,-1.431235456906259,-2.2777016252361237
1783246121845504500,1.64450439453125,-14.772574956297873,-1.556504343084991,-3.4048896917849776
1783246121855516400,1.654516357421875,-16.350704563474654,-3.0660856069535014,-3.09553732688725
1783246121865528600,1.664528564453125,-15.004482846987246,-5.641721108102798,-1.4995137511014938
1783246121875540500,1.67454052734375,-11.849493214178084,-7.670742717677355,0.16657251807823775
1783246121885551400,1.68455126953125,-7.5078540026783935,-9.335925169885158,0.8375079319790005
1783246121895563500,1.6945634765625,-4.966550979241728,-11.706475905340909,0.9798509948164223
1783246121905575400,1.704575439453125,-9.08964680853784,-13.997936152946949,0.359426747751981
1783246121915587300,1.71458740234375,-18.954869993537663,-11.735565221703052,-1.2462548832170663
1783246121925599500,1.724599609375,-31.139262686324116,-6.297333719056844,-4.833781215913594
1783246121935610600,1.734610595703125,-39.07015856144428,-1.7933754091396927,-7.007662839582562
1783246121945622500,1.74462255859375,-37.29396488099098,-0.2332102054595947,-6.500377918833494
1783246121955634700,1.754634765625,-28.440373145949838,-1.1085104002162813,-4.625846613746881
1783246121965646600,1.764646484375,-17.839873446172476,-2.5284540632575747,-2.1838586816735566
1783246121975657500,1.774657470703125,-9.084622258374095,-3.324045053744316,-0.7681282524131238
1783246121985669600,1.784669677734375,-3.7145004153579473,-3.588683247646689,-0.8557937494497746
1783246121995681500,1.794681640625,-0.8352420328736305,-3.5203698821380733,-1.283235245089978
1783246122005693400,1.804693359375,0.5640928496420383,-2.9225416438937186,-1.0992983352348207
1783246122015705600,1.81470556640625,1.7014684020757673,-2.144950712738931,-1.2696810592509806
1783246122025716500,1.824716552734375,1.8684569536089897,-1.3268056528776884,-1.7487644062578678
1783246122035728400,1.834728271484375,1.6148510258525608,-0.42819151028990743,-2.272314671500772
1783246122045740500,1.844740478515625,2.0871493888944386,0.42571606008708474,-1.721152468971908
1783246122055752400,1.85475244140625,2.720384748345613,0.8854626923307776,-0.29549028215333817
1783246122065763600,1.864763671875,3.453269399550557,1.0275544107556343,0.8129141734704375
1783246122075775700,1.874775634765625,4.352964907634258,1.0804469197705386,0.8911305818993598
1783246122085787600,1.88478759765625,5.628685685440898,1.3109656941890715,0.9279881211102008
1783246122095799600,1.894799560546875,6.941283364745974,1.57742233569026,1.3250956340894102
1783246122105811700,1.904811767578125,8.424831484952568,1.8076842127382755,1.5189584562838077
1783246122115822600,1.914822509765625,9.758729726439714,2.1348232864782215,1.1086371684011072
1783246122125834500,1.92483447265625,11.043594180166721,2.2750375205934046,0.7367647805739194
1783246122135846700,1.9348466796875,12.27977614378929,2.097174523824453,0.450416639970988
1783246122145858600,1.944858642578125,12.555099982357024,1.5876906317263841,-0.22178718643039463
1783246122155869400,1.954869384765625,12.365684494960307,1.4779513231128454,-0.49222047647759315
1783246122165881600,1.964881591796875,11.938936753737925,1.6527248294338583,-0.26715061511471866
1783246122175893500,1.9748935546875,11.058130070519447,1.6656830952063202,-0.30739838128574193
1783246122185905400,1.984905517578125,9.656420860087872,1.7428116353332996,-0.35870742050148546
1783246122195917600,1.99491748046875,9.138235190618037,2.078622091306746,-0.17073570217229425
1783246122205928400,2.004928466796875,9.216013426825404,2.4373817534521223,-0.027518486848846075
1783246122215940400,2.0149404296875,9.174800541949272,2.5861393595069644,0.2591642925359309
1783246122225952500,2.024952392578125,9.371270039510726,2.914958056896925,0.7382598414372652
1783246122235964400,2.03496435546875,9.596563480496407,3.49897491967082,1.4490636668026446
1783246122245975600,2.0449755859375,9.947430928087234,3.7287913910388943,2.3168679528459903
1783246122255987500,2.054987548828125,10.213106648343802,3.601483107987046,2.6438033207073808
1783246122265999600,2.06499951171875,9.821897838014364,3.6258448113054036,2.205788627800345
1783246122276011500,2.075011474609375,9.11210004788637,3.7810815502464767,1.8359777025476096
1783246122286023700,2.085023681640625,8.394770693209766,3.9491847850233315,1.8646793347664177
1783246122296034600,2.09503466796875,8.253082002627849,4.05533366792947,1.7738642145924268
1783246122306046500,2.10504638671875,7.621381013137102,3.6296439113274213,1.661219247665256
1783246122316058000,2.11505810546875,6.5200529256403446,2.813458461101353,0.9831120424389839
1783246122326070000,2.125070068359375,6.910408334010839,2.3952432781636714,0.3706013449780643
1783246122336081200,2.1350810546875,7.259190207499265,1.939052292574942,0.4253340750321746
1783246122346093000,2.145093017578125,6.935287923723459,1.4119032721877098,0.5263529015734791
1783246122356105200,2.155105224609375,5.886653315538168,1.0824264031499624,0.022189912237226963
1783246122366117000,2.1651171875,4.197093377920985,1.2105761054620146,-0.6749773827679455
1783246122376128000,2.1751279296875,1.865057958820462,1.609170057606697,-0.8823070047788322
1783246122386140200,2.18514013671875,-0.8277408634632826,1.5249772781819104,-0.9184000624231994
1783246122396152000,2.195152099609375,-3.1839129449546335,0.8147077788889407,-1.1325029779613018
1783246122406164200,2.205164306640625,-5.6319689448952674,0.27266660205721854,-0.684366850142926
1783246122416176000,2.215176025390625,-7.915390262952447,-0.12446253823190927,0.3113454384110868
1783246122426187000,2.22518701171875,-9.471976731362938,-1.2116069098144768,0.11192688178569078
1783246122436199000,2.235198974609375,-9.22864494486153,-2.4718904645144937,-1.450190186614543
1783246122446211000,2.245211181640625,-7.633126395988464,-3.245757698971033,-3.68951298135668
1783246122456223000,2.255222900390625,-6.481209107983112,-4.7248114303678275,-4.837370472577214
1783246122466233900,2.26523388671875,-6.647405632355809,-6.966060663127899,-3.8733030300870537
1783246122476246000,2.27524609375,-7.628009491366147,-7.701870846390724,-1.7719975439377127
1783246122486258000,2.2852578125,-9.810108031499386,-6.7560442862510675,-0.6835254308827221
1783246122496269800,2.295269775390625,-13.670145629560947,-5.8556192948490375,-0.5218222724065185
1783246122506282000,2.305281982421875,-17.651005071264503,-6.237347160127759,-1.4913716534391044
1783246122516293000,2.315293212890625,-19.849568423986433,-6.35526919067502,-3.5500504423916337
1783246122526305000,2.325304931640625,-19.242306294703482,-5.140579512414336,-3.8110909040629863
1783246122536317200,2.335317138671875,-15.129881497025488,-3.9828292804718015,-2.4474044041641054
1783246122546329000,2.3453291015625,-8.948065085461735,-2.951433391857147,-1.080028694358468
1783246122556340000,2.355340087890625,-3.619204642638564,-2.2135995938122273,-0.40605493567511436
1783246122566352100,2.36535205078125,0.571148613372445,-2.3270418485969304,-1.4191674179717897
1783246122576364000,2.375364013671875,2.448855625885725,-3.7303427121341226,-3.970463135373592
1783246122586376000,2.3853759765625,1.6694827797502279,-4.621845561411977,-6.005155776321888
1783246122596388000,2.39538818359375,-1.0802028818815945,-3.341821825714409,-5.167136679950356
1783246122606399000,2.40539892578125,-5.829256188580393,-1.1949264086484908,-2.564781806440651
1783246122616411000,2.415410888671875,-9.751247846251726,0.6683712625011802,0.8827415968038141
1783246122626423000,2.425423095703125,-11.103138256025314,1.9618939467191694,4.493229410631955
1783246122636435000,2.43543505859375,-9.317109994778036,2.617291745878756,6.471705951100588
1783246122646446000,2.445446044921875,-5.529657155933976,2.6731664855748414,6.398502767723798
1783246122656458200,2.455458251953125,-1.0821943479597569,2.9196774866342543,5.731936216557026
1783246122666470100,2.46547021484375,2.968964372372627,2.727728096845746,4.624388231632113
1783246122676482000,2.47548193359375,6.187462893018126,1.1152981606602668,3.1651307953342793
1783246122686494200,2.485494140625,8.596423730888962,-0.6142290456861257,2.116396380036324
1783246122696505000,2.495505126953125,10.061693267083168,-1.5647276892900466,0.72701663595438
1783246122706517000,2.50551708984375,10.800980186545848,-1.5162150027945638,-0.5731683556970208
1783246122716529200,2.515529052734375,10.881125151884556,-0.7106652206122874,-1.0172648527357726
1783246122726541000,2.525541015625,10.158361497199534,0.2325748301655054,-0.9577801058489829
1783246122736552000,2.535552001953125,9.113806267282365,1.0630202764123677,-0.3019529022961855
1783246122746564000,2.545564208984375,8.271492688587307,1.6534887995436787,0.7726097086761147
1783246122756576000,2.555575927734375,7.5422186290949575,1.8244187821790574,1.5415052191346883
1783246122766588000,2.565587890625,7.060621691831946,1.9377233820587396,1.6412915812715887
1783246122776600000,2.57560009765625,7.287177700099349,2.2817729663282633,1.480920986573398
1783246122786611200,2.585611083984375,7.787188830453157,2.4735531370297075,1.5174533124178646
1783246122796623000,2.595623046875,8.019194336298108,2.5054630637705326,1.2101400521323085
1783246122806635300,2.60563525390625,8.174571945014595,2.4098700616702438,0.9442405330572277
1783246122816647200,2.615647216796875,8.456510817807912,2.0387059682428834,0.8347866903215646
1783246122826658000,2.625657958984375,8.663342134907841,1.6415023014128207,0.6579575666449964
1783246122836670200,2.635670166015625,8.30624952919185,1.4692504225239156,0.5983958820644766
1783246122846682000,2.64568212890625,7.903137515100837,1.517987857685983,0.5295956828869879
1783246122856694000,2.655694091796875,7.364246911254525,1.3729124472752212,0.38678485640734434
1783246122866706200,2.6657060546875,6.78990856193006,1.1146043331772089,0.10541560019552706
1783246122876717000,2.675717041015625,6.296442323175072,1.002539504225552,-0.003821165723353624
1783246122886729000,2.68572900390625,5.95858165667355,1.1643556215569377,0.35909357027485966
1783246122896741000,2.6957412109375,5.9458197902560235,1.2942708722367882,0.8047359815813601
1783246122906753000,2.7057529296875,6.125285546046495,1.35736065787822,0.9157253633212298
1783246122916764000,2.715763916015625,5.9115831741333,1.2550336713477968,0.8254211152788251
1783246122926776000,2.725776123046875,5.362306785351038,0.9326394540473818,0.5726423590615392
1783246122936788000,2.7357880859375,5.227379843989015,0.6427537139028311,0.27875520125590264
1783246122946799900,2.7457998046875,5.392229629927873,0.3856321792408824,0.08412095629759132
1783246122956812000,2.75581201171875,5.4149581790864465,0.184958215726912,0.08548033501729368
1783246122966823200,2.7658232421875,4.901350485056638,0.2692334127381444,0.3070702453099191
1783246122976835000,2.7758349609375,3.073565733575821,-0.030460312454402446,-0.02151515478082001
1783246122986847200,2.78584716796875,-0.2329886716634035,-0.6839061007633805,-1.1910166878588497
1783246122996859100,2.795859130859375,-4.287525928518176,-0.949670376086235,-2.6695953490898012
1783246123006870000,2.8058701171875,-8.817906673675775,-0.8845812333211303,-3.2700431221827864
1783246123016882000,2.8158818359375,-13.539805431467293,-1.7493749393716453,-3.5774998825922606
1783246123026894000,2.82589404296875,-16.088151359152793,-3.4458103157162663,-3.4206697369799017
1783246123036906000,2.835906005859375,-15.994211677217482,-4.586931484419107,-2.3549995305806397
1783246123046918100,2.845918212890625,-14.18016202110052,-4.4666441860452295,-0.8760309932492673
1783246123056929000,2.855928955078125,-12.020911272591352,-4.076493944858014,0.4029707789894193
1783246123066941000,2.86594091796875,-11.813538103699683,-3.5003026611432433,1.435528039533645
1783246123076953000,2.875953125,-14.775796840953825,-2.5630077825054527,1.9510813146732746
1783246123086965000,2.885965087890625,-19.803947659540174,-1.8976999992281198,1.2313006213217974
1783246123096976100,2.89597607421875,-23.88557984406948,-1.4014387229271232,-0.02360962457573041
1783246123106988000,2.905988037109375,-24.841764132094383,-0.7506161227285861,-0.8577182877715677
1783246123117000200,2.916000244140625,-22.562100705265998,-0.5681327726826071,-0.9819661603394895
1783246123127012000,2.92601220703125,-18.186428291261194,-1.3541884575828909,-0.530903331419453
1783246123137024300,2.936024169921875,-14.789289944255351,-2.315688679933548,0.0875127724266611
1783246123147035100,2.94603515625,-13.684715422183274,-2.6569927648872134,0.3392356446491554
1783246123157047000,2.956047119140625,-12.692315326917171,-2.3696334744803607,-0.15290013095336033
1783246123167059000,2.966058837890625,-10.190907676017284,-2.0366474282778797,-0.8641207752250134
1783246123177071000,2.976071044921875,-7.1225716597884885,-1.9630888555921613,-1.0564052421867847
1783246123187082000,2.98608203125,-3.875896845972538,-1.8075706693612037,-1.1023664906337856
1783246123197094000,2.996093994140625,-0.6652537150025367,-1.7367385990299284,-1.468488059849292
1783246123207106000,3.00610595703125,2.16961724422276,-1.7904517767779529,-1.8730368287451564
1783246123217118000,3.016117919921875,4.653299853339791,-1.5650668581165372,-1.6467045462310312
1783246123227129000,3.026129150390625,6.730438720351457,-1.3291693132691085,-1.1340732960179447
1783246123237141200,3.036141357421875,7.902546563470363,-1.0675449142299591,-0.48397232462484385
1783246123247153200,3.046153076171875,8.349504733550548,-0.6869887230791151,0.4095527877282351
1783246123257165000,3.0561650390625,8.458803897181152,-0.30636458125859495,1.0794563012979923
1783246123267177200,3.06617724609375,8.182164299839734,0.13305077222660183,1.377794812489301
1783246123277188000,3.07618798828125,7.872881493046879,0.3331729470767081,1.5490616258636116
1783246123287200000,3.086199951171875,7.976531252613663,0.4543460883744061,1.6189438481241463
1783246123297212200,3.096212158203125,8.352599776956438,0.6905328254267573,1.5170548146195708
1783246123307224000,3.10622412109375,8.477155546429753,0.7731604013614356,1.1049243584230541
1783246123317236700,3.11623681640625,8.481243108004332,0.8491336339734494,0.9681626028493047
1783246123327247600,3.12624755859375,8.760753292346001,0.8391264730915426,1.0054295265786348
1783246123337259500,3.136259521484375,9.426552366271615,0.773376820591092,1.0458280993971973
1783246123347271700,3.146271728515625,10.330323160970211,0.7812246114820242,1.1048505625344813
1783246123357283600,3.15628369140625,11.034871944528817,0.7205791502527892,1.0116856643639505
1783246123367294500,3.16629443359375,11.235329050421715,0.5235162168428301,0.699645813947916
1783246123377306600,3.176306640625,11.17806227184534,0.44981750503405926,0.3902272154135629
1783246123387318500,3.186318603515625,10.880421387529372,0.48206791577562685,0.2690664221407845
1783246123397330400,3.196330322265625,10.350685565519333,0.46009500728994607,0.2500372754894197
1783246123407342600,3.206342529296875,9.716134447294474,0.4949696290552616,0.483082718841359
1783246123417353700,3.216353759765625,9.090231914949417,0.5394055676311255,0.9287436156526208
1783246123427365600,3.22636572265625,8.60909324284792,0.5359064734689891,1.1899730240248143
1783246123437377800,3.236377685546875,8.100306685364245,0.8563543790072202,1.1871252333782614
1783246123447389700,3.2463896484375,7.617755808377265,1.2435460626497865,1.3594051693178713
1783246123457400600,3.256400634765625,7.1105006982445715,1.1513406571611762,1.5815705414108931
1783246123467412700,3.266412841796875,6.693023474192619,0.9930375163868069,1.7164926604673265
1783246123477424600,3.276424560546875,6.376994700270891,1.0657217904560268,1.6721464460015296
1783246123487436500,3.2864365234375,6.008484043961763,1.1523081870190799,1.396149238216877
1783246123497447700,3.29644775390625,5.840254552456736,1.1796566510632633,1.0306264386121182
1783246123507459600,3.30645947265625,6.06956833499968,1.0133242253512142,0.7424321586858481
1783246123517471500,3.316471435546875,6.414322852668166,0.5679902954719961,0.6195417651414871
1783246123527483600,3.326483642578125,6.615910423895716,0.6452263876266777,0.40134927873481063
1783246123537495600,3.33649560546875,6.4803972070783376,0.9948151935838162,0.21125684192460029
1783246123547506700,3.346506591796875,5.979105389264226,0.8556009302914143,0.5684891849048436
1783246123557518800,3.356518798828125,5.11543162715435,0.5174614468485117,0.5955432325797155
1783246123567530800,3.36653076171875,3.814681037509441,0.3062102674797177,0.019004194873198866
1783246123577542700,3.376542724609375,2.0969377924591304,0.03956277958154678,-0.7566753497023135
1783246123587554800,3.386554931640625,-0.5285094950854778,-0.36169688464105126,-1.6036299591362475
1783246123597565700,3.396565673828125,-3.898818871876597,-0.9110621207505464,-2.907560932382941
1783246123607577600,3.40657763671875,-7.480610021921992,-1.6659361931845544,-3.7462799937173723
1783246123617589800,3.41658984375,-11.21763674186468,-2.828143404535949,-4.197504296809434
1783246123627601700,3.4266015625,-14.729876801300048,-3.7221728496819733,-3.93836148545295
1783246123637612500,3.436612548828125,-18.33362376256585,-3.788729726912081,-2.710435601261258
1783246123647624700,3.446624755859375,-21.165928086173533,-2.9138080100789665,-1.1641427094586192
1783246123657636600,3.45663671875,-21.27061361852884,-1.2883014424383639,-0.009385302656516431
1783246123667648500,3.4666484375,-19.22574795861244,-0.6103244394630193,0.3338238852661103
1783246123677660700,3.47666064453125,-18.88866704431176,-1.964129158425331,-0.5151004168055952
1783246123687671600,3.486671630859375,-22.12115609638691,-3.6213150589212773,-2.8427488529935476
1783246123697683500,3.496683349609375,-25.14600777567625,-3.3605101595714686,-5.041900526997447
1783246123707695600,3.506695556640625,-25.12562666642666,-1.9611071802556514,-5.670530438479781
1783246123717707500,3.51670751953125,-21.925804204678535,-0.8494862468034029,-4.819311961056291
1783246123727718700,3.52671875,-17.609392957937715,-0.20388386547118423,-3.3926889663815496
1783246123737730800,3.536730712890625,-13.399140238714217,-0.05471709409356117,-2.2562039330467583
1783246123747742700,3.54674267578125,-9.48799380018413,-0.16706073998659848,-1.347305273940414
1783246123757754600,3.556754638671875,-5.899867601898312,-0.29862989535331724,-0.6414938500348478
1783246123767766800,3.566766845703125,-2.8105647854864597,-0.3254439602598548,-0.12928604939822108
1783246123777777700,3.576777587890625,-0.42516719403266906,-0.29659575917720793,0.2141530748227611
1783246123787789600,3.58678955078125,1.404172385674715,-0.20657675781697032,0.4881191786386072
1783246123797801700,3.5968017578125,3.149077778416872,-0.055957449543476104,0.6616833822350948
1783246123807813600,3.606813720703125,4.8276112951070065,-0.22245471042841672,0.7967104960359632
1783246123817824500,3.616824462890625,6.243378256985545,-0.5141574368670583,1.1150273808948694
1783246123827836700,3.626836669921875,7.414675952765345,-0.38169776240140196,1.5578300387308002
1783246123837848600,3.6368486328125,8.03509917691648,0.019774667789041994,1.7243799065858125
1783246123847860500,3.646860595703125,7.998416336685419,0.4785746668323874,1.692886451691389
1783246123857872600,3.65687255859375,7.700243537449836,0.7450237095490098,1.7442238402187824
1783246123867883800,3.6668837890625,7.561608973741531,0.8561135559886693,1.9662810757622122
1783246123877895700,3.676895751953125,7.5870444437712425,1.041469831122458,2.1777011819571257
1783246123887907800,3.686907958984375,7.767855768951773,1.4040391146838664,2.4737433989048
1783246123897919700,3.696919677734375,8.045324802854656,1.3759846943274139,3.090141897584498
1783246123907930600,3.7069306640625,8.106630043166875,1.034960595358908,3.568517242452502
1783246123917942500,3.716942626953125,8.669545665723085,1.302867143407464,2.834201097139716
1783246123927954700,3.72695458984375,9.287720234164595,1.3172785305976866,2.2316411541983485
1783246123937966600,3.736966552734375,9.87369466074705,0.840787684302032,1.5266668387040494
1783246123947978800,3.746978759765625,10.268062227368354,0.6650365651205181,0.9150394268836826
1783246123957989600,3.75698974609375,10.628684176254271,0.7571256507530808,0.9046586103837937
1783246123968001500,3.76700146484375,10.951833595836161,0.8428960547581315,1.0432489696241916
1783246123978013700,3.777013671875,11.060664557433128,0.7758125233054161,1.2390920058503747
1783246123988025600,3.787025634765625,10.749946749401092,0.48511780486553907,1.5356408571459352
1783246123998036700,3.79703662109375,10.235457596361636,0.46958325886428354,1.8235555894784627
1783246124008048600,3.807048583984375,9.361928795191645,0.6069942721270024,2.2604021153889593
1783246124018060800,3.817060791015625,6.044132280448078,0.719011170283705,2.9042905324101445
1783246124028072700,3.82707275390625,5.5987172481566665,0.8444890230379998,2.942324494989216
1783246124038084900,3.8370849609375,5.38775920651555,0.8750620020866393,2.053691940450668
1783246124048095700,3.847095703125,4.118614884489775,1.1729410790726542,1.7606662948451934
1783246124058107600,3.857107666015625,4.643133264112472,0.27268179962635036,0.8979013181433081
1783246124068119600,3.86711962890625,4.498911840182543,-0.5214566539645195,0.3668285484410822
1783246124078131700,3.877131591796875,4.549500456169247,0.7591422512724996,0.6335429640956223
1783246124088142600,3.887142578125,4.321082745683193,2.485794194443524,0.8683592895776033
1783246124098154500,3.897154541015625,3.1281939803421497,2.925494648480415,0.7728947361625731
1783246124108166700,3.907166748046875,2.7870968161374328,2.705588453491032,0.17981003918349742
1783246124118178600,3.917178466796875,4.054873356941342,2.3269261132627723,-0.1323559218302369
1783246124128190700,3.927190673828125,3.98725235761106,2.253191891749203,0.21911409476362168
1783246124138201600,3.93720166015625,2.601338097682595,2.101879632775485,0.7311337158843875
1783246124148213500,3.947213623046875,1.479164206033945,1.5636951313719152,0.6331996305506676
1783246124158225700,3.9572255859375,0.7766010433346032,0.8612462427020072,-0.2773777754228562
1783246124168237600,3.967237548828125,-0.2182961294442415,0.04349398155063391,-1.7242425439417361
1783246124178248700,3.977248779296875,-2.31519943511188,-0.3776426417917013,-2.553592596167326
1783246124188260600,3.987260498046875,-4.176160480007529,0.17395576019734144,-2.520961953936517
1783246124198272800,3.997272705078125,-5.274698644524812,-0.04848492170572281,-1.8307402402855455
1783246124208284700,4.00728466796875,-7.358359606781601,-3.357741571640968,-1.0849771836113185
1783246124218296600,4.017296630859375,-9.98701475045681,-6.773368346017599,-1.812470277971029
1783246124228307700,4.0273076171875,-12.509549360537529,-7.966887810477614,-3.2389024262487887
1783246124238319600,4.037319580078125,-13.055949901622533,-6.677593265348673,-3.5986440851688384
1783246124248331500,4.04733154296875,-12.08171323955655,-3.7076702770769594,-1.20791558101587
1783246124258343700,4.05734375,-11.275893700522184,-1.44261931296885,2.8072753885522483
1783246124268354600,4.0673544921875,-11.641688668131827,-3.400918742327392,5.335780012953281
1783246124278366500,4.077366455078125,-14.924122777593135,-7.721016276365518,4.848462067694962
1783246124288378600,4.087378662109375,-17.65989097303152,-7.878043405854702,1.7794795702561734
1783246124298390500,4.097390625,-17.768605030250548,-3.8440556005537507,-2.5227722182288765
1783246124308402400,4.10740234375,-16.90430173806548,-0.33441666352748867,-4.649186280541121
1783246124318413600,4.11741357421875,-14.97832899955511,0.8086722981169819,-4.651797924344241
1783246124328425500,4.127425537109375,-11.556187144196032,0.9650959087550639,-3.3251381096780297
1783246124338437400,4.137437255859375,-6.999016591790318,0.35573768397569655,-2.2819711192488668
1783246124348449500,4.147449462890625,-2.3776667049407956,-0.7506734058737754,-2.39677531003654
1783246124358460400,4.15746044921875,-0.044507834768295285,-1.9461174086555837,-3.2734877096787094
1783246124368472300,4.167472412109375,0.9155711226075887,-1.9336057176068424,-3.126366764914989
1783246124378484500,4.177484375,-0.12295651758313178,-1.0482681129604576,-1.1769950306385755
1783246124388496400,4.187496337890625,-3.1852742964357135,0.23382395344376564,1.3326527714706957
1783246124398508300,4.19750830078125,-6.137528357025981,1.3717074553996325,2.984087707224488
1783246124408519400,4.20751953125,-7.829564329367876,1.34762544580549,3.0717148450121283
1783246124418531300,4.21753125,-7.790195611053705,0.9215937438979744,2.2195361442543566
1783246124428543200,4.227543212890625,-5.737576852792501,0.27946634519994257,1.4582726630441845
1783246124438555400,4.237555419921875,-1.7271628153026104,-0.6597200462728738,0.9233768279224633
1783246124448567300,4.2475673828125,2.8175568363308905,-1.4727023165434598,1.0395959270093589
1783246124458578400,4.257578369140625,6.603645985606312,-1.5494848197117448,1.2433340273343025
1783246124468590600,4.267590576171875,9.196476951706408,-1.4252137123987079,1.4920722029238938
1783246124478602500,4.2776025390625,10.995915898668766,-0.9985285150185227,1.8435501836284993
1783246124488614400,4.287614501953125,12.106191847252845,-0.3557446982383728,2.0535000711403786
1783246124498625300,4.297625244140625,12.275509133994579,-0.010763970598578452,2.018064746752381
1783246124508637400,4.307637451171875,12.057911508208512,0.14408990650475023,1.7397677375927567
1783246124518649300,4.3176494140625,11.570730048811434,0.47010114525854585,1.4903274050831794
1783246124528661500,4.32766162109375,10.841785659664868,0.6498261365070939,1.4517702954128384
1783246124538672400,4.33767236328125,10.128574261701106,0.7328232764065266,1.3291093997754155
1783246124548684300,4.347684326171875,9.315528278544544,1.1435454732403159,1.3057951596833766
1783246124558696400,4.357696533203125,8.286078847822546,1.4422598320066928,1.2498153521776199
1783246124568708400,4.367708251953125,7.44812580242455,1.2898349356159566,0.8680434285614639
1783246124578720300,4.37772021484375,7.056220826524496,1.0355872028246522,0.540365060313046
1783246124588731400,4.3877314453125,7.143929505115747,0.8899281473070383,0.3479752332806587
1783246124598743600,4.39774365234375,7.491393866264819,0.6944818553134798,0.186047837594524
1783246124608755500,4.40775537109375,8.207467083400488,0.530284688064456,-0.15149024588912724
1783246124618767600,4.417767578125,8.779514691439271,0.7311471598878503,-0.07109203644171357
1783246124628779500,4.427779541015625,8.954363308823108,1.1833897001117468,0.6557184824813157
1783246124638790400,4.437790283203125,8.943498800459503,1.3049062480196356,1.0046256628498433
1783246124648802300,4.44780224609375,8.613550806778669,1.1264596061438321,0.7156776419468224
1783246124658814500,4.457814453125,7.959723325675726,0.9069541009098291,0.06681026746928692
1783246124668826400,4.467826416015625,7.501528306788206,0.7194736732289194,-0.4290576986651867
1783246124678837200,4.477837158203125,7.700187423348426,0.32503187232762576,-1.063507329276949
1783246124688849400,4.487849365234375,7.9749208948075765,-0.1747919187605381,-1.4365416004903613
1783246124698861300,4.497861328125,8.211255954289436,-0.6974775299981236,-1.0694435143928975
1783246124708873200,4.507873291015625,8.686846929135918,-1.3028916933268309,-0.47381607412844895
1783246124718885400,4.517885498046875,8.157261913773416,-2.4498446369230744,-0.35710257912073284
1783246124728896300,4.527896240234375,5.430191404053568,-3.6554996525958177,-0.4044713928107172
1783246124738908400,4.537908447265625,1.5317998176783323,-4.83572825832814,-0.8964698240354657
1783246124748920300,4.54792041015625,-3.2901480448395013,-6.229508137065172,-1.8429320517301557
1783246124758932500,4.557932373046875,-8.052719004759192,-7.333506320554018,-2.9077824661791323
1783246124768943400,4.567943359375,-11.537074447447061,-7.720178071975708,-3.9364398697406053
1783246124778955500,4.57795556640625,-14.770179585593938,-7.937900785446167,-4.830943362139165
1783246124788967400,4.587967529296875,-18.3649342621088,-7.9181731716692445,-4.380749863399565
1783246124798979300,4.597979248046875,-21.4341371243,-6.70281304680109,-2.316849686536938
1783246124808991500,4.607991455078125,-23.342409370946882,-4.311536334180832,0.5997410130631178
1783246124819002400,4.61800244140625,-22.697288927912712,-2.103901786252856,2.841760134217143
1783246124829014300,4.62801416015625,-19.408086054968834,-1.6401695915043353,3.93399744502455
1783246124839026400,4.6380263671875,-15.618078855466841,-2.4411668249487875,4.394976541672647
1783246124849038300,4.648038330078125,-12.519278142869473,-3.3925849214851853,4.354674049639701
1783246124859049200,4.65804931640625,-11.170800171887874,-3.999512704247236,3.767341778707504
1783246124869061400,4.668061279296875,-11.172532694768906,-3.7407314196795225,2.60129192045331
1783246124879073300,4.6780732421875,-10.998158124637603,-2.9679549030691383,0.8511028151545673
1783246124889085200,4.688085205078125,-9.903001419252156,-2.1246330241143703,-0.932500191707164
1783246124899097300,4.698097412109375,-8.047639509537815,-1.417132405012846,-2.281138029425591
1783246124909108500,4.7081083984375,-6.098146194708347,-0.9854179812937974,-2.6746543860450385
1783246124919120400,4.718120361328125,-4.629683415430784,-0.32743396503329275,-2.232061425437033
1783246124929132500,4.728132568359375,-3.5874534135907887,0.7679483658015728,-1.7349100684285164
1783246124939144400,4.73814453125,-2.4655144997417926,1.599425493183732,-1.4560989722669124
1783246124949155300,4.7481552734375,-1.3538736925452948,2.032866010043025,-1.284371701774001
1783246124959167500,4.75816748046875,-0.15535598140656948,2.4893068787395953,-1.1139411200281233
1783246124969179400,4.768179443359375,1.291637893384695,3.033109220024943,-0.9728500300131737
1783246124979191300,4.77819140625,2.8550995082616804,3.1695950812667606,-0.5806031088076532
1783246124989203500,4.788203369140625,4.0375872910976405,3.0539275516480204,0.24447481905668972
1783246124999214300,4.79821435546875,4.598057858589291,3.1994331701695917,1.2668188016876578
1783246125009226200,4.808226318359375,4.701846149843931,3.304382029636204,1.8843420666135846
1783246125019238400,4.81823828125,4.633484561279416,3.084348993396759,1.7821853220835326
1783246125029250300,4.828250244140625,4.700463171052933,2.789189112241566,0.9975663189228624
1783246125039261400,4.838261474609375,4.844958151227235,2.357028113798797,-0.19438461757879702
1783246125049273600,4.848273681640625,5.159563029825687,1.876930767443776,-1.132052530780062
1783246125059285500,4.858285400390625,5.780069840607046,1.6177759733885526,-1.231683483159542
1783246125069297400,4.86829736328125,6.654510495924949,1.461963188125193,-0.8145107950121164
1783246125079309600,4.8783095703125,7.375420631697773,1.458100667478144,-0.29699772757422177
1783246125089320400,4.888320556640625,7.493043387037515,1.568658598998189,0.14807103029647842
1783246125099332400,4.898332275390625,7.369448571550846,1.7203890833839772,0.5542188866857439
1783246125109344500,4.908344482421875,7.273968674436211,2.0439023678421973,0.7802240561373531
1783246125119356400,4.9183564453125,7.303290630510449,2.2951441968157886,0.6114151938417927
1783246125129368300,4.928368408203125,7.399632697412371,2.288690782892704,0.25825442941570653
1783246125139379500,4.93837939453125,7.447964474382996,2.3655460590362547,0.2007693867124617
1783246125149391400,4.948391357421875,7.308430331486463,2.3941508067518473,0.39697829710897053
1783246125159403300,4.9584033203125,6.990393140351772,2.1475667404562233,0.17764672366976736
1783246125169415400,4.96841552734375,6.474485352686047,2.531258307023346,0.3339705637278035
1783246125179426300,4.97842626953125,5.733970937255025,2.8727234277576206,0.12760339354090391
1783246125189438500,4.9884384765625,5.698353095906972,3.0800773074269294,0.09380787224918603
1783246125199450400,4.998450439453125,5.58093726131618,3.18003084282428,0.984013155997172
1783246125209462500,5.008462646484375,5.653391087630391,3.204382609270513,1.4679318872712552
1783246125219474400,5.018474365234375,6.055186173903942,3.347703869490325,1.5478170326299965
1783246125229485300,5.0284853515625,6.30614480202198,3.4393048793449994,1.498892404332757
1783246125239497500,5.03849755859375,6.621247693270444,3.444525536602735,1.1412920682903378
1783246125249509400,5.04850927734375,6.9006836433321235,3.2439886434718965,1.0706189879130572
1783246125259521500,5.058521484375,6.8613844831228255,2.622175718528032,0.9036471683189272
1783246125269532400,5.068532470703125,6.68455316748917,2.2268346306994555,0.5798022042209282
1783246125279544300,5.07854443359375,6.437850443249941,2.0561942786604166,0.3902021905701607
1783246125289556500,5.088556396484375,6.006197394329309,1.7892153668507933,0.25407694280166176
1783246125299568400,5.098568359375,5.204303504306077,1.4803230206802487,-0.04624244000855833
1783246125309580300,5.108580322265625,3.8381846626937386,1.309058983784914,-0.4201099106431007
1783246125319590700,5.118590576171875,2.424547114059329,1.1162938936993478,-0.5573949959712102
1783246125329602600,5.1286025390625,0.9736889650553464,0.4665010749399662,-0.547927604521811
1783246125339614700,5.13861474609375,-1.0201537791103124,-0.5937307397976518,-0.5059665681594983
1783246125349626600,5.148626708984375,-3.351519920647144,-1.8046181031659245,-0.8522704706944525
1783246125359637500,5.158637451171875,-5.647046102517843,-3.5104759723722934,-1.900297322244942
1783246125369649400,5.1686494140625,-7.560588983044028,-5.334000728321075,-3.572397883278131
1783246125379661600,5.17866162109375,-8.702474121856689,-6.707765700772404,-5.119166137507557
1783246125389673500,5.188673583984375,-10.169604191225767,-7.725611787462234,-5.95511427282393
1783246125399685600,5.198685546875,-11.94118599396944,-7.542016384521126,-5.803665820249915
1783246125409696500,5.208696533203125,-12.302528073823451,-6.662149027979374,-4.167684328085183
1783246125419708400,5.21870849609375,-11.646653597062825,-6.60568304439187,-1.5278782603204248
1783246125429720300,5.22872021484375,-11.448789430272578,-7.249336922004819,0.9309945363845675
1783246125439732500,5.238732421875,-13.020582820165156,-7.184214753752946,2.730833077123761
1783246125449743600,5.24874365234375,-15.797255857443808,-6.018388767382502,3.690315237650275
1783246125459755500,5.258755615234375,-18.001318392103908,-4.391277394893765,3.943756330233812
1783246125469767700,5.268767578125,-18.688658851230144,-2.910480034700036,3.198784058611095
1783246125479779600,5.278779541015625,-16.92265572540164,-2.401314122509956,1.9055285008966922
1783246125489791700,5.288791748046875,-14.20949917474389,-3.749954882837832,0.28061401739772407
1783246125499802600,5.298802734375,-12.422045264607668,-4.617525652386248,-1.1465290190957487
1783246125509814500,5.308814453125,-11.917900979971884,-3.4712098376497624,-1.7030828515350818
1783246125519826400,5.318826416015625,-10.506574046367406,-1.47553666318655,-1.7135598218858241
1783246125529838600,5.328838623046875,-7.400140646934509,-0.2094394537717104,-1.0205758039146662
1783246125539849500,5.338849365234375,-2.861778839895129,0.33107787449359893,-0.09549290272668004
1783246125549861400,5.348861328125,1.7291127803266046,0.4140025336787104,0.6999899512104689
1783246125559873500,5.35887353515625,5.173100556790828,0.06580050590485334,0.7979143188677728
1783246125569885400,5.368885498046875,7.256772624963522,-0.11203735642284154,0.17545608175769448
1783246125579897300,5.3788974609375,8.19787858632207,0.08263707441538572,-0.9396390306111425
1783246125589908500,5.388908447265625,7.588341497844457,0.27152766115516425,-2.3359622371554374
1783246125599920400,5.39892041015625,6.307329043370485,0.5615811590820551,-3.6429683800637718
1783246125609932500,5.4089326171875,5.3750668982028955,0.932806919568777,-4.274629037544131
1783246125619944400,5.4189443359375,4.589142730727792,1.2658569709181784,-3.7981636179506775
1783246125629956600,5.42895654296875,4.467977188214659,1.6350050483480094,-2.493583240884542
1783246125639967500,5.438967529296875,5.239035210469365,1.9940794755309819,-0.9458178653765469
1783246125649979600,5.448979736328125,6.368861662697792,2.175045552881807,0.5727059988822788
1783246125659991600,5.458991455078125,7.371676184472442,2.257126893110573,2.0183299735598266
1783246125670003500,5.46900341796875,8.045936212751268,2.256620258762687,3.2720193906918165
1783246125680014600,5.4790146484375,8.405198563721775,1.6170773235999047,3.8272079261273144
1783246125690026500,5.489026611328125,8.23051185890138,1.174022298438102,3.3889778369039294
1783246125700038400,5.499038330078125,7.916179952025413,1.2971231929279863,2.1235084039986134
1783246125710050600,5.509050537109375,8.171926983463763,1.1551936793275177,0.7131751576066017
1783246125720062500,5.5190625,8.813230498558282,0.7098655946671962,-0.6646290072329342
1783246125730073300,5.5290732421875,9.251001738098264,0.4593637704059481,-1.7099343248650432
1783246125740085500,5.53908544921875,9.345315514042973,0.42149025908559556,-2.2271794986143707
1783246125750097400,5.549097412109375,9.07765768005848,0.35049773749560115,-2.153949427230656
1783246125760109300,5.559109375,8.033116478666663,0.5541394647739827,-1.6311933811053634
1783246125770120700,5.56912060546875,6.769013657939434,1.1230559351801872,-0.66916416644454
1783246125780132600,5.579132568359375,5.2748699094384905,1.655606083958596,0.4025169342746958
1783246125790144500,5.58914453125,4.1007378670156,1.9245719318017362,0.9673790512561797
1783246125800156700,5.59915673828125,4.060971673816442,2.271944523014128,1.2156562582705168
1783246125810168600,5.60916845703125,5.208986693686247,2.5965163766145705,1.212938450679183
1783246125820179500,5.619179443359375,6.477085306051373,2.4568422407254573,1.0327092362355441
1783246125830191600,5.629191650390625,7.798449644657969,2.288255898606777,0.854778434927389
1783246125840203500,5.63920361328125,8.575794199836254,2.200041024059057,0.6832743056658656
1783246125850215400,5.64921533203125,8.579215406456589,1.9976351221859454,0.33373248065561056
1783246125860226600,5.6592265625,8.30129103000164,1.7140405911400913,0.07256996350716799
1783246125870238500,5.669238525390625,7.9698980982095,1.3725392300486563,-0.23051566914599386
1783246125880250400,5.67925048828125,7.80128399130106,1.0906018185600639,-0.8058310833416878
1783246125890262500,5.689262451171875,7.06596714451313,0.6304717399567366,-1.380536220151931
1783246125900274400,5.6992744140625,5.186925084003806,0.29511136583834885,-1.543719388052821
1783246125910285600,5.70928564453125,2.6603502586215733,0.13860650665760038,-1.3953890674993394
1783246125920297700,5.719297607421875,-0.5042021523028611,-0.06447305669337511,-1.2394300056330858
1783246125930309600,5.7293095703125,-3.8573090498805045,-0.5204404626592993,-1.401875360778719
1783246125940321500,5.739321533203125,-6.4008005232721565,-1.1327110677540302,-1.5030840108036994
1783246125950333700,5.749333740234375,-7.810336481806635,-2.4962425232216714,-1.3283258481822908
1783246125960344600,5.759344482421875,-8.843848924183845,-5.0713715361535545,-1.2774784351289272
1783246125970356500,5.7693564453125,-9.813455003839731,-7.907208710062504,-1.9922399851441381
1783246125980368600,5.77936865234375,-11.635022780501842,-9.44228477293253,-3.1228409288764
1783246125990380500,5.789380615234375,-14.598852712595463,-8.41576496592164,-3.080699530978501
1783246126000391400,5.799391357421875,-17.366776626229285,-6.579934270629287,-0.47158221412915735
1783246126010403600,5.809403564453125,-17.594850053322315,-6.009583529636264,3.1348020003050565
1783246126020415500,5.81941552734375,-17.632406753778458,-5.526246470707655,5.162058938294649
1783246126030427400,5.829427490234375,-17.617842806375027,-4.581052363252639,5.074187762618065
1783246126040438500,5.8394384765625,-16.741034252882002,-3.7552784159481525,3.67283101888597
1783246126050450700,5.84945068359375,-14.587866039156912,-3.1935107943832874,2.09614547303766
1783246126060462600,5.859462646484375,-11.029271055781841,-3.116911538827419,1.1377880787573753
1783246126070474800,5.869474853515625,-7.186994739860296,-3.1269869426399466,0.9278292772866785
1783246126080486700,5.879486572265625,-3.943242535492778,-2.741528658661246,0.8431960606180131
1783246126090497500,5.88949755859375,-0.9979238271236419,-1.9545704719632864,0.4047142981885001
1783246126100509400,5.899509521484375,1.7051812851190566,-0.9402180726081132,-0.46519046726543456
1783246126110521600,5.909521484375,3.815035842296481,-0.23538813402056694,-2.006563109529018
1783246126120533500,5.919533447265625,4.784885667580366,-0.7810022009029984,-3.8651179700657723
1783246126130545700,5.929545654296875,3.136861855444312,-1.620865463836491,-4.967700733798742
1783246126140556500,5.939556640625,-2.808182274264097,-1.073855558681488,-4.580744904738665
1783246126150568400,5.949568359375,-9.352100059616566,0.46200025638937947,-2.9849957619801164
1783246126160580400,5.959580322265625,-14.403933367085456,2.0645795374289153,-0.6230820680968463
1783246126170592500,5.969592529296875,-16.500690542280672,3.4886230370044706,1.653614764010906
1783246126180603400,5.979603271484375,-16.622675584483147,3.6324072385609147,2.577072840476036
1783246126190615300,5.989615234375,-13.083082238698005,2.1361868299163875,2.7559727790772914
1783246126200627500,5.99962744140625,-6.42115942068994,0.7136167638942599,2.459218614467978
1783246126210639400,6.009639404296875,0.6458423275679349,0.5422852147206664,1.6768869185268878
1783246126220651500,6.019651611328125,6.237794319373369,1.0116250202178954,1.2727630970448254
1783246126230662700,6.02966259765625,9.921379956507682,0.6166822840571403,0.8048887609902768
1783246126240674600,6.039674560546875,11.856741285610198,-0.19750030191391704,1.2796765296950936
1783246126250686500,6.0496865234375,13.089222056627273,-0.21422434996068476,0.8371115530725568
1783246126260698600,6.05969873046875,13.604317943388223,0.1981432759925723,-0.7872106270890682
1783246126270709500,6.06970947265625,11.277236931824683,0.5168675726085901,-0.6536739710416645
1783246126280721400,6.079721435546875,11.567185508072376,0.5380655511990189,-1.0457473623111844
1783246126290733600,6.089733642578125,13.206159167790412,1.044923478707671,-1.3727555031478405
1783246126300745500,6.099745361328125,12.9009545702219,1.9240721655860542,-1.1396426205828785
1783246126310757400,6.10975732421875,11.403699411702155,3.0024685825675723,-0.24736443955097345
1783246126320768800,6.119768798828125,10.181237345874308,3.3414445168346165,1.184619826428592
1783246126330780700,6.12978076171875,8.520712364083527,3.1961528333246707,2.5229998895049093
1783246126340792600,6.13979248046875,6.6170788831532,3.492205279405415,3.4820886667996644
1783246126350804700,6.1498046875,5.708367124921083,3.5326854660928246,3.720776426887512
1783246126360815900,6.15981591796875,5.806652142584324,3.227966021692753,2.9646871334448455
1783246126370827800,6.169827880859375,6.809373140856623,2.995179010081291,1.8672022773727774
1783246126380840000,6.17983984375,7.619936075025796,2.7072224844336508,0.9904659853983669
1783246126390851800,6.189851806640625,7.665531705030799,2.415548691828549,0.38733956768065686
1783246126400863700,6.19986376953125,7.466944484663009,2.5646637330189344,-0.09218215247718617
1783246126410875000,6.209875,6.919597018116712,3.0991826976522803,-0.382349686971493
1783246126420886800,6.21988671875,6.397558180350065,3.0587352441906925,-0.6122804689016192
1783246126430898700,6.229898681640625,5.938000640937686,2.952010022701323,-0.8723702787846326
1783246126440910800,6.239910888671875,5.973339080822467,3.390045466135442,-0.8513786364212632
1783246126450922800,6.2499228515625,6.017317923280596,3.8368966687098145,-0.43030788138937204
1783246126460933600,6.25993359375,5.770621044260263,3.808462016864121,-0.05606928502065129
1783246126470945800,6.26994580078125,5.585315914791822,3.8479163676351305,0.4650539083389565
1783246126480957700,6.279957763671875,5.211539300778508,3.2570041923895476,0.808724685891345
1783246126490969600,6.289969482421875,4.034040412271023,2.138809433504939,0.6676505470111965
1783246126500980700,6.299980712890625,1.9350579622417687,1.5108680888086556,0.4256948711685836
1783246126510992600,6.30999267578125,-0.4958884974658489,0.9436439554035663,0.4024386448740959
1783246126521004800,6.3200048828125,-2.522597738444805,-0.10116846414506435,0.6080480189636349
1783246126531016700,6.3300166015625,-3.3783576586902138,-2.0912299362063407,0.5146340048702434
1783246126541028900,6.34002880859375,-2.635659469479322,-5.098978505003452,-0.11326536384783685
1783246126551039700,6.350039794921875,-2.09947520198226,-7.841863254448771,-0.7127370584502816
1783246126561052000,6.360052001953125,-4.083145511701703,-8.970407850173116,-0.7513442908726632
1783246126571063800,6.370063720703125,-7.84421478601098,-8.327963348349929,-0.1901109953802079
1783246126581075700,6.38007568359375,-11.583694744324683,-7.399905084612965,0.44216914570536464
1783246126591086800,6.3900869140625,-14.402839142107963,-7.3214564017981285,1.4621576877839861
1783246126601098800,6.4000986328125,-14.66922213385105,-7.077235557502508,3.078661595410108
1783246126611110700,6.410110595703125,-12.616180181741713,-6.847956846272945,4.26633174932003
1783246126621122800,6.420122802734375,-10.245030895870924,-7.87593971157372,4.8030812494844195
1783246126631134700,6.430134765625,-7.946070647898316,-9.071583328580855,4.6551735382571815
1783246126641145600,6.4401455078125,-6.388885629072785,-9.621702597928047,3.4804625269025564
1783246126651157800,6.45015771484375,-5.702146642971038,-9.574055296090245,1.6687535886928437
1783246126661169700,6.460169677734375,-6.756153007322549,-9.20557445039749,-0.47985078771542755
1783246126671181600,6.470181640625,-8.763791637128591,-8.330922198155521,-3.0051372172549367
1783246126681193000,6.48019287109375,-10.360701932621001,-6.932308031129836,-5.019003051012755
1783246126691204900,6.490204833984375,-11.48979948605299,-5.213948700007796,-5.551810535553098
1783246126701216800,6.500216796875,-11.642048733615875,-3.4009663808614015,-4.582774364739656
1783246126711229000,6.51022900390625,-10.217987406122685,-1.8019693422228096,-3.2032568201109766
1783246126721240800,6.52024072265625,-7.480641001582145,-0.7775070522636175,-1.986944655214995
1783246126731251700,6.530251708984375,-4.26318059181273,0.18939853626191616,-0.9905405850045382
1783246126741264000,6.540263916015625,-1.080418570458889,1.3499106341332197,-0.4538453357780352
1783246126751275800,6.55027587890625,1.736365527933836,1.9773042818188666,0.053118061399087306
1783246126761287700,6.56028759765625,3.556480767700076,1.8924919091910122,0.49842455528210844
1783246126771299800,6.5702998046875,3.593352408501506,1.750313973787427,1.4885498740166425
1783246126781310700,6.580310791015625,3.311969416025281,1.8284131125122307,1.9601142236955462
1783246126791322600,6.590322509765625,3.315948841050267,1.7280258618727324,1.3501749841578303
1783246126801334800,6.600334716796875,2.6537831551909443,2.1592899114757773,1.1697010742381215
1783246126811346700,6.6103466796875,2.073269332101941,2.804330859532952,1.7364181349039076
1783246126821357800,6.62035791015625,2.0402596274256704,3.1165719316095113,2.5049703118175266
1783246126831370000,6.630369873046875,2.164663421207666,3.4393209536969658,3.0718951700150963
1783246126841382000,6.6403818359375,2.687527603882551,3.7179140231937167,3.5534491449192163
1783246126851393800,6.650393798828125,3.4744752691864966,3.7434094067171215,3.4896026956915853
1783246126861406000,6.660406005859375,4.696230648049712,3.9970077356889844,2.9266145924210547
1783246126871416800,6.670416748046875,6.224834300035238,4.186436374828219,2.6167832118347287
1783246126881428700,6.6804287109375,7.617331445485353,4.032946187293529,2.5073095684200526
1783246126891441000,6.69044091796875,9.16033245613575,3.434397525820136,1.6905309746064245
1783246126901452800,6.700452880859375,10.344529380977153,3.06534267963171,0.5973241977123543
1783246126911463700,6.710463623046875,10.701415065944195,3.149475253301859,0.11500429820334539
1783246126921475600,6.7204755859375,10.443222394919395,3.38638431327939,0.1895275512027554
1783246126931487700,6.73048779296875,9.694425304311514,3.726848440277576,0.48082909469567237
1783246126941499600,6.740499755859375,8.809791171759366,4.24525798163116,0.6924936041057109
1783246126951511800,6.75051171875,8.16814863396883,4.59039594565928,0.9852681975595653
1783246126961523000,6.76052294921875,7.820975949242711,4.537870224130153,1.3289939567022024
1783246126971534800,6.770534912109375,7.6546888239771125,4.561323580431938,1.4694010830409825
1783246126981546800,6.780546630859375,7.4040253794133655,4.706196161746979,1.3592707292832433
1783246126991559000,6.790558837890625,7.292685065343975,4.90813736871779,1.0547475381076334
1783246127001569800,6.80056982421875,7.1522945978790515,5.036715817835927,0.6477151357024907
1783246127011581700,6.810581787109375,6.951982453414797,5.178163100877404,0.31367143367324024
1783246127021593900,6.82059375,7.187780337280034,5.369841272509098,0.34921314104516055
1783246127031605800,6.830605712890625,7.581220852184296,5.588811940214038,0.740455963242054
1783246127041618000,6.840617919921875,8.080382672232389,5.555724494126439,1.3981599935173987
1783246127051628800,6.85062890625,9.233237533348799,5.163855758583545,1.8017131755046545
1783246127061640700,6.860640625,9.903587110185622,5.062160640215874,1.8994288688473402
1783246127071652600,6.870652587890625,7.964798729243874,5.497473965209722,1.8616266691975294
1783246127081664800,6.880664794921875,6.771121443873644,4.939049224331975,0.7595066276054829
1783246127091675600,6.890675537109375,4.804800328361988,4.080725006556511,-0.7318378455657512
1783246127101687600,6.9006875,3.2252702067375183,3.706369131350517,-1.9923715025693176
