time,seconds_elapsed,z,y,x
1783246165780571400,0.0635712890625,0.28887778520584106,0.26864269375801086,1.441729187965393
1783246165790582800,0.073582763671875,0.6878209114074707,-0.48841145634651184,1.2597240209579468
1783246165800594700,0.0835947265625,1.014968752861023,-1.1128984689712524,0.9828713536262512
1783246165810606600,0.093606689453125,1.2576342821121216,-1.5656769275665283,0.7121292948722839
1783246165820618800,0.10361865234375,1.3724985122680664,-1.8924559354782104,0.3256811499595642
1783246165830630700,0.113630615234375,1.3556041717529297,-2.076467752456665,-0.3706653416156769
1783246165840641500,0.1236416015625,1.1916530132293701,-1.9380067586898804,-1.264145851135254
1783246165850653700,0.13365380859375,0.9397867918014526,-1.5093895196914673,-2.1206912994384766
1783246165860665600,0.14366552734375,0.5261760354042053,-1.0969440937042236,-2.840782403945923
1783246165870677500,0.153677490234375,-0.0026951823383569717,-0.671567440032959,-3.411424160003662
1783246165880689700,0.163689697265625,-0.3071959614753723,-0.3382991850376129,-3.8959004878997803
1783246165890700500,0.173700439453125,-0.1831073760986328,-0.36214011907577515,-4.230506420135498
1783246165900712400,0.18371240234375,0.186959370970726,-0.6438101530075073,-4.275710582733154
1783246165910724600,0.193724609375,0.6472023129463196,-0.9070013165473938,-3.937703847885132
1783246165920736500,0.203736572265625,1.0332155227661133,-0.9791247844696045,-3.279066324234009
1783246165930747400,0.213747314453125,1.2521799802780151,-0.8504121899604797,-2.493976593017578
1783246165940759600,0.223759521484375,1.249584436416626,-0.8317722082138062,-1.7735353708267212
1783246165950771500,0.233771484375,0.9673265814781189,-1.007508635520935,-1.2713853120803833
1783246165960783400,0.243783447265625,0.7158533334732056,-1.2586621046066284,-1.054874062538147
1783246165970795500,0.25379541015625,0.6948047280311584,-1.539236068725586,-1.1394858360290527
1783246165980806700,0.263806640625,0.9432289004325867,-1.772674322128296,-1.3958148956298828
1783246165990818600,0.273818603515625,1.3390804529190063,-2.000342845916748,-1.643343210220337
1783246166000830700,0.283830810546875,1.7616490125656128,-2.292625665664673,-1.811890959739685
1783246166010842600,0.293842529296875,2.057542324066162,-2.426858901977539,-1.801806926727295
1783246166020854500,0.3038544921875,2.259165048599243,-2.3180782794952393,-1.6654895544052124
1783246166030865700,0.31386572265625,2.376559019088745,-1.9900379180908203,-1.550007939338684
1783246166040877600,0.323877685546875,2.4254508018493652,-1.4599714279174805,-1.5585838556289673
1783246166050889500,0.333889404296875,2.403376817703247,-0.9702286720275879,-1.6988804340362549
1783246166060901600,0.343901611328125,2.2832529544830322,-0.6098148226737976,-1.8540620803833008
1783246166070912500,0.35391259765625,2.176103115081787,-0.33109453320503235,-1.9054352045059204
1783246166080924400,0.36392431640625,2.208254337310791,-0.1332770586013794,-1.958832859992981
1783246166090936600,0.3739365234375,2.3519246578216553,0.10687610507011414,-2.1376423835754395
1783246166100948500,0.383948486328125,2.6085498332977295,0.48207661509513855,-2.5176539421081543
1783246166110960400,0.39396044921875,2.975647211074829,1.3317111730575562,-2.9857308864593506
1783246166120971800,0.4039716796875,3.42329740524292,2.5395755767822266,-3.460361957550049
1783246166130983700,0.413983642578125,3.938511371612549,3.2384464740753174,-3.8264317512512207
1783246166140995600,0.42399560546875,4.076852321624756,2.7011983394622803,-3.859863758087158
1783246166151007700,0.4340078125,3.756512403488159,0.9754278659820557,-3.705361843109131
1783246166161018600,0.4440185546875,3.444237232208252,-0.884903073310852,-3.626878261566162
1783246166171030500,0.454030517578125,3.4522931575775146,-2.0659756660461426,-3.828784227371216
1783246166181042700,0.464042724609375,3.786144495010376,-2.315727949142456,-4.229128837585449
1783246166191054600,0.4740546875,4.1854729652404785,-1.6946922540664673,-4.455495357513428
1783246166201066500,0.48406640625,4.420410633087158,-0.8697685599327087,-4.326455116271973
1783246166211077400,0.494077392578125,4.424222469329834,-0.3803935945034027,-3.8756773471832275
1783246166221089500,0.504089599609375,4.222370147705078,-0.13477635383605957,-3.3006880283355713
1783246166231101400,0.514101318359375,3.947272777557373,-0.15144285559654236,-2.7216029167175293
1783246166241113600,0.524113525390625,3.45534610748291,-0.6896981000900269,-2.2794792652130127
1783246166251125500,0.53412548828125,2.906419277191162,-1.2937864065170288,-2.1257128715515137
1783246166261136600,0.54413671875,2.4980270862579346,-1.2461872100830078,-2.090078830718994
1783246166271148800,0.554148681640625,2.1889946460723877,-0.5406554341316223,-1.9993265867233276
1783246166281160700,0.56416064453125,1.7996536493301392,0.1416354775428772,-1.8512433767318726
1783246166291172600,0.574172607421875,1.4964523315429688,0.49804243445396423,-1.5658318996429443
1783246166301183500,0.58418359375,1.2117087841033936,0.5606245994567871,-1.397518515586853
1783246166311195600,0.594195556640625,0.8730732798576355,0.7221333980560303,-1.4565203189849854
1783246166321207600,0.60420751953125,0.5921187996864319,1.05765700340271,-1.6710543632507324
1783246166331219700,0.6142197265625,0.40819838643074036,1.295206069946289,-1.93024742603302
1783246166341231600,0.624231689453125,0.22467678785324097,1.3797153234481812,-2.1668617725372314
1783246166351242500,0.634242431640625,0.14357727766036987,1.3865470886230469,-2.350727081298828
1783246166361256400,0.64425634765625,0.34996989369392395,1.3667504787445068,-2.410245656967163
1783246166371268600,0.6542685546875,0.783982515335083,1.207524061203003,-2.413376808166504
1783246166381280500,0.664280517578125,1.1867413520812988,0.8849188089370728,-2.625162124633789
1783246166391292400,0.67429248046875,1.4994845390319824,0.6031961441040039,-3.002471685409546
1783246166401303600,0.684303466796875,1.6835123300552368,0.10950544476509094,-3.5688321590423584
1783246166411315500,0.6943154296875,1.7500253915786743,-0.5801059007644653,-4.200257301330566
1783246166421327400,0.704327392578125,1.7933588027954102,-1.2848377227783203,-4.59748649597168
1783246166431339500,0.714339599609375,1.8033477067947388,-1.8781449794769287,-4.671037673950195
1783246166441350400,0.724350341796875,1.7900409698486328,-2.2910847663879395,-4.364346504211426
1783246166451362300,0.7343623046875,1.7233020067214966,-2.451317310333252,-3.769268751144409
1783246166461374500,0.74437451171875,1.6365461349487305,-2.014169931411743,-2.911930561065674
1783246166471386400,0.754386474609375,1.4637304544448853,-0.6340538859367371,-1.8885654211044312
1783246166481398300,0.764398193359375,1.1107213497161865,1.1121814250946045,-1.0679973363876343
1783246166491409700,0.77440966796875,0.4577578902244568,2.2977912425994873,-0.6596516966819763
1783246166501421600,0.784421630859375,-0.37813645601272583,2.612637519836426,-0.6202707290649414
1783246166511433500,0.79443359375,-1.190881371498108,2.0524742603302,-0.8127187490463257
1783246166521445600,0.804445556640625,-1.8488091230392456,1.0667387247085571,-0.9716351628303528
1783246166531457500,0.81445751953125,-2.3581736087799072,0.039032503962516785,-0.7938752770423889
1783246166541468400,0.824468505859375,-2.6447997093200684,-0.8407877683639526,-0.34386155009269714
1783246166551480600,0.83448046875,-2.6224887371063232,-1.1848441362380981,0.18809184432029724
1783246166561492500,0.844492431640625,-2.371065616607666,-0.6230833530426025,0.612389087677002
1783246166571504400,0.85450439453125,-2.0481302738189697,0.3372122049331665,0.7749564051628113
1783246166581516500,0.8645166015625,-1.742728590965271,1.170630931854248,0.6016570329666138
1783246166591527400,0.87452734375,-1.65706467628479,1.557843804359436,0.19053731858730316
1783246166601539300,0.884539306640625,-1.803420066833496,1.5498566627502441,-0.27171871066093445
1783246166611551500,0.894551513671875,-2.1393182277679443,1.305063009262085,-0.6010202765464783
1783246166621563400,0.9045634765625,-2.524242401123047,0.8645164966583252,-0.8460643887519836
1783246166631574300,0.91457421875,-2.8846261501312256,0.47574275732040405,-0.9775839447975159
1783246166641586400,0.92458642578125,-3.0315051078796387,0.3290039300918579,-0.9333488345146179
1783246166651598300,0.934598388671875,-2.859541416168213,0.44787541031837463,-0.7635548114776611
1783246166661610200,0.9446103515625,-2.2874817848205566,0.923401415348053,-0.48650139570236206
1783246166671622400,0.954622314453125,-1.5887736082077026,1.6266180276870728,-0.08230720460414886
1783246166681633500,0.964633544921875,-0.944901168346405,2.2007968425750732,0.5084413290023804
1783246166691645400,0.9746455078125,-0.33586353063583374,2.5263524055480957,0.9940795302391052
1783246166701657600,0.98465771484375,0.01580793969333172,2.3475148677825928,1.2772542238235474
1783246166711669500,0.99466943359375,0.016049262136220932,1.6380327939987183,1.391314148902893
1783246166721681400,1.004681396484375,-0.1281587779521942,0.8096660375595093,1.347315788269043
1783246166731692500,1.014692626953125,-0.36158862709999084,0.2596430778503418,1.1857805252075195
1783246166741704400,1.024704345703125,-0.4794958233833313,0.2487880140542984,1.1118791103363037
1783246166751716400,1.03471630859375,-0.3041478097438812,0.6565061211585999,1.1410895586013794
1783246166761728500,1.044728515625,0.19226406514644623,1.3577156066894531,1.2279030084609985
1783246166771739400,1.054739501953125,1.134644865989685,1.8351655006408691,1.2916476726531982
1783246166781751300,1.064751220703125,1.6951286792755127,1.9120837450027466,1.4885826110839844
1783246166791763500,1.074763427734375,1.8435335159301758,1.4408743381500244,1.7386186122894287
1783246166801775400,1.084775390625,1.6870675086975098,0.5869067311286926,1.880653738975525
1783246166811787300,1.094787353515625,1.5013225078582764,-0.06053658947348595,2.0886011123657227
1783246166821798400,1.10479833984375,1.4135273694992065,-0.5667917728424072,2.4697012901306152
1783246166831810600,1.114810546875,1.2904114723205566,-0.4288398027420044,3.154496431350708
1783246166841822500,1.124822509765625,1.1059025526046753,-0.26958250999450684,3.712005138397217
1783246166851834600,1.134834716796875,0.8532102108001709,-0.23490801453590393,3.858147621154785
1783246166861846500,1.144846435546875,0.6986011862754822,0.026635171845555305,3.9591102600097656
1783246166871857400,1.154857421875,0.7957783937454224,0.5932725667953491,4.1919941902160645
1783246166881869600,1.16486962890625,0.8502959609031677,1.0090935230255127,4.392769813537598
1783246166891881500,1.174881591796875,1.0532259941101074,1.1319500207901,4.392866611480713
1783246166901893400,1.184893310546875,1.285233497619629,1.2559536695480347,4.280306339263916
1783246166911904300,1.194904296875,1.4080634117126465,1.4229800701141357,4.249728679656982
1783246166921916400,1.20491650390625,1.4752438068389893,1.5449342727661133,4.317273139953613
1783246166931928300,1.21492822265625,1.5543863773345947,1.565792202949524,3.999668598175049
1783246166941940500,1.2249404296875,1.6096030473709106,1.5111817121505737,2.868220806121826
1783246166951952400,1.234952392578125,1.5383977890014648,1.2827229499816895,1.4054545164108276
1783246166961963500,1.244963623046875,1.3821130990982056,0.8059436082839966,0.1341828554868698
1783246166971975400,1.254975341796875,1.0890603065490723,-0.0012888700002804399,-0.9243773818016052
1783246166981987600,1.264987548828125,0.7669083476066589,-0.9477052092552185,-1.9386084079742432
1783246166991999500,1.27499951171875,0.4727027118206024,-1.866805076599121,-2.9227406978607178
1783246167002011600,1.28501171875,0.15243229269981384,-2.45294451713562,-3.703864574432373
1783246167012022500,1.2950224609375,-0.2797989547252655,-2.4037728309631348,-4.176478862762451
1783246167022034400,1.305034423828125,-0.7532280087471008,-1.7891877889633179,-4.3433122634887695
1783246167032046600,1.315046630859375,-1.0899478197097778,-0.9043436646461487,-4.346261978149414
1783246167042058500,1.32505859375,-1.2920461893081665,-0.12892624735832214,-4.353834629058838
1783246167052069400,1.3350693359375,-1.4030154943466187,0.28974655270576477,-4.218474864959717
1783246167062081300,1.345081298828125,-1.3365131616592407,0.3487235903739929,-3.957044839859009
1783246167072093400,1.355093505859375,-1.1511198282241821,0.1456643044948578,-3.7031421661376953
1783246167082105300,1.365105224609375,-0.8686060309410095,-0.26758453249931335,-3.6269021034240723
1783246167092117500,1.375117431640625,-0.5869863629341125,-0.6049695014953613,-3.7931249141693115
1783246167102128400,1.38512841796875,-0.5082688927650452,-0.6619060039520264,-4.037854194641113
1783246167112140500,1.395140625,-0.6788598895072937,-0.6457045078277588,-4.1316423416137695
1783246167122152400,1.40515234375,-0.855988085269928,-0.6424120664596558,-3.9406933784484863
1783246167132164400,1.415164306640625,-0.8706796169281006,-0.8147390484809875,-3.484720468521118
1783246167142176500,1.425176513671875,-0.7161587476730347,-1.1976903676986694,-2.825866222381592
1783246167152187400,1.4351875,-0.4565747380256653,-1.6662760972976685,-2.0595028400421143
1783246167162199600,1.445199462890625,-0.22899378836154938,-2.2978899478912354,-1.3137986660003662
1783246167172211500,1.45521142578125,-0.04531209170818329,-3.048985481262207,-0.7021663188934326
1783246167182223600,1.4652236328125,0.2093833088874817,-3.5970418453216553,-0.27648475766181946
1783246167192235500,1.475235595703125,0.47002875804901123,-3.6967177391052246,-0.09005081653594971
1783246167202246400,1.485246337890625,0.7010377049446106,-3.5789244174957275,-0.12328760325908661
1783246167212258300,1.49525830078125,0.8663181662559509,-3.3949832916259766,-0.30769971013069153
1783246167222270500,1.5052705078125,0.9231172800064087,-3.2350504398345947,-0.5655006170272827
1783246167232282400,1.515282470703125,0.8941881656646729,-3.187208890914917,-0.7732278108596802
1783246167242293200,1.525293212890625,0.8239108324050903,-3.290876865386963,-0.8612127900123596
1783246167252305400,1.535305419921875,0.7853593826293945,-3.5450475215911865,-0.7880107164382935
1783246167262317300,1.5453173828125,0.7611307501792908,-3.855649709701538,-0.6057181358337402
1783246167272329200,1.5553291015625,0.7358344197273254,-4.204107761383057,-0.3798258602619171
1783246167282341400,1.56534130859375,0.7089303731918335,-4.600644588470459,-0.1838105171918869
1783246167292352500,1.5753525390625,0.728266179561615,-4.921095371246338,-0.09467927366495132
1783246167302364400,1.585364501953125,0.7540615797042847,-5.00579833984375,-0.1345023214817047
1783246167312376600,1.59537646484375,0.7645747065544128,-4.823293209075928,-0.2660161256790161
1783246167322388500,1.605388427734375,0.7432829737663269,-4.313351154327393,-0.4419170916080475
1783246167332400400,1.615400390625,0.6436527967453003,-3.467372179031372,-0.6140884160995483
1783246167342411500,1.62541162109375,0.48468446731567383,-2.380176544189453,-0.7417834997177124
1783246167352423400,1.63542333984375,0.22809264063835144,-1.041176199913025,-0.8469825387001038
1783246167362433800,1.645433837890625,-0.11835238337516785,0.49618813395500183,-0.86100834608078
1783246167372445700,1.65544580078125,-0.400320440530777,1.8549739122390747,-0.7034022212028503
1783246167382457900,1.665457763671875,-0.5779021382331848,2.8520305156707764,-0.41865649819374084
1783246167392468700,1.67546875,-0.6486588716506958,3.415391206741333,-0.06487935781478882
1783246167402480600,1.685480712890625,-0.6683955192565918,3.65742826461792,0.24574747681617737
1783246167412492800,1.695492919921875,-0.738005518913269,3.9152395725250244,0.4806566834449768
1783246167422504700,1.705504638671875,-0.8676844239234924,4.196382999420166,0.722203254699707
1783246167432515600,1.715515625,-1.1007980108261108,4.446677207946777,1.056547999382019
1783246167442527700,1.72552783203125,-1.4711241722106934,4.663156509399414,1.7239174842834473
1783246167452539600,1.73553955078125,-1.9617338180541992,4.422449111938477,2.7257943153381348
1783246167462551600,1.745551513671875,-2.484374523162842,3.557241201400757,3.776733875274658
1783246167472563700,1.755563720703125,-2.9790093898773193,2.6119699478149414,4.555966854095459
1783246167482574600,1.76557470703125,-3.360842704772949,1.9500482082366943,4.8714776039123535
1783246167492586500,1.77558642578125,-3.5039308071136475,1.5438880920410156,4.760551929473877
1783246167502598700,1.7855986328125,-3.145284652709961,1.4572482109069824,4.3279900550842285
1783246167512610600,1.795610595703125,-2.37368106842041,1.6699193716049194,3.7333457469940186
1783246167522622500,1.80562255859375,-1.4419115781784058,1.9518340826034546,3.066650867462158
1783246167532633900,1.8156337890625,-0.4171161949634552,2.1055290699005127,2.264819860458374
1783246167542645800,1.825645751953125,0.5007835626602173,1.8984096050262451,1.4358441829681396
1783246167552657700,1.83565771484375,1.0691596269607544,1.2440365552902222,0.7310419082641602
1783246167562669800,1.845669921875,1.2931655645370483,0.2023668885231018,0.2618813216686249
1783246167572681700,1.855681640625,1.2923020124435425,-0.9623995423316956,-0.08239071816205978
1783246167582692600,1.865692626953125,1.167788028717041,-1.97060227394104,-0.38149166107177734
1783246167592704800,1.875704833984375,1.0119341611862183,-2.5840158462524414,-0.6311928033828735
1783246167602716700,1.885716552734375,0.8978204131126404,-2.8239212036132812,-0.9235871434211731
1783246167612728600,1.895728515625,0.781309187412262,-2.7070651054382324,-1.2402485609054565
1783246167622739700,1.90573974609375,0.6955431699752808,-2.047433614730835,-1.5887717008590698
1783246167632751600,1.915751708984375,0.646724283695221,-0.8860835433006287,-1.9609061479568481
1783246167642763500,1.925763427734375,0.6627184152603149,0.35421764850616455,-2.3163139820098877
1783246167652775700,1.935775634765625,0.6896378993988037,1.330075979232788,-2.4575841426849365
1783246167662787600,1.94578759765625,0.7309296727180481,1.6637661457061768,-2.335792064666748
1783246167672798700,1.955798828125,0.8491634726524353,1.5560003519058228,-1.939820647239685
1783246167682811000,1.965810791015625,0.7323569655418396,1.765410304069519,-1.4341251850128174
1783246167692822800,1.97582275390625,0.34426149725914,1.6833833456039429,-1.1802866458892822
1783246167702834700,1.985834716796875,-0.12413154542446136,0.7438063025474548,-1.2890170812606812
1783246167712846800,1.995846923828125,-0.634147047996521,0.015532559715211391,-1.2705998420715332
1783246167722857700,2.005857666015625,-0.929279625415802,-0.13692782819271088,-1.127004623413086
1783246167732869600,2.01586962890625,-0.8328903317451477,0.10055334120988846,-1.0929192304611206
1783246167742881800,2.0258818359375,-0.3760950565338135,0.6032117009162903,-1.0533627271652222
1783246167752893700,2.035893798828125,0.011855495162308216,1.116598129272461,-1.0614440441131592
1783246167762905600,2.045905517578125,0.13902117311954498,1.3987236022949219,-1.0226900577545166
1783246167772916700,2.055916748046875,0.16908302903175354,1.3501654863357544,-0.9681663513183594
1783246167782928600,2.0659287109375,0.05027623102068901,0.93656325340271,-0.9225890040397644
1783246167792940500,2.0759404296875,-0.20560796558856964,0.5611627697944641,-0.8516672849655151
1783246167802952700,2.08595263671875,-0.44191184639930725,0.38985762000083923,-0.7192189693450928
1783246167812964600,2.095964599609375,-0.5926368832588196,0.10517669469118118,-0.48044830560684204
1783246167822975700,2.105975830078125,-0.633026123046875,-0.24368277192115784,-0.10130897164344788
1783246167832988000,2.11598779296875,-0.4923378527164459,-0.3291514813899994,0.5405024290084839
1783246167842999800,2.125999755859375,-0.0010930134449154139,-0.10252073407173157,1.5509986877441406
1783246167853011700,2.13601171875,0.5531170964241028,0.08107161521911621,2.6064260005950928
1783246167863022800,2.14602294921875,0.8505551815032959,0.038253579288721085,3.118010997772217
1783246167873034800,2.15603466796875,0.9619446396827698,-0.04320655018091202,3.2259299755096436
1783246167883046700,2.166046630859375,1.1442885398864746,-0.25742751359939575,3.375544309616089
1783246167893058800,2.176058837890625,0.9825723767280579,-0.20857180655002594,3.3431291580200195
1783246167903070700,2.18607080078125,0.9756513833999634,-0.28618350625038147,3.3619916439056396
1783246167913081600,2.19608154296875,0.8003738522529602,-0.5220013856887817,3.367544174194336
1783246167923093800,2.20609375,0.4667578339576721,-0.8719689846038818,3.3855512142181396
1783246167933105700,2.216105712890625,0.06100745126605034,-1.1877009868621826,3.3802199363708496
1783246167943117600,2.22611767578125,-0.3767952024936676,-1.4275755882263184,3.2709577083587646
1783246167953129700,2.236129638671875,-0.8113929033279419,-1.5063412189483643,3.1480846405029297
1783246167963140600,2.246140625,-1.25311279296875,-1.5771957635879517,3.0224568843841553
1783246167973152500,2.256152587890625,-1.643844723701477,-1.6232151985168457,2.8757433891296387
1783246167983164700,2.26616455078125,-1.9161419868469238,-1.5815719366073608,2.7872118949890137
1783246167993176600,2.276176513671875,-2.0604751110076904,-1.4310674667358398,2.816303014755249
1783246168003187700,2.286187744140625,-2.241340160369873,-1.1449377536773682,3.0533297061920166
1783246168013200000,2.296199951171875,-2.237419843673706,-0.6234323978424072,3.580550193786621
1783246168023211800,2.306211669921875,-2.159808397293091,0.005883499514311552,4.243200778961182
1783246168033223700,2.3162236328125,-2.1930363178253174,0.4715363085269928,4.872152328491211
1783246168043235800,2.32623583984375,-2.305157423019409,0.9971827864646912,5.3162641525268555
1783246168053246700,2.336246826171875,-2.322906970977783,1.7583286762237549,5.50797176361084
1783246168063258600,2.346258544921875,-2.079559564590454,2.2665979862213135,5.2229323387146
1783246168073270800,2.356270751953125,-1.5620501041412354,2.3387205600738525,4.378233432769775
1783246168083282700,2.36628271484375,-0.8776102066040039,1.98881995677948,3.25344181060791
1783246168093294600,2.376294677734375,-0.27027714252471924,1.4546600580215454,2.4069535732269287
1783246168103305500,2.386305419921875,0.028809966519474983,0.7751047611236572,2.12807035446167
1783246168113317600,2.396317626953125,0.017712082713842392,-0.012144237756729126,2.1573078632354736
1783246168123329500,2.40632958984375,-0.13005821406841278,-0.7652225494384766,2.140974760055542
1783246168133341700,2.416341796875,-0.1629229187965393,-1.2186709642410278,1.939223289489746
1783246168143353600,2.426353515625,-0.01214539259672165,-1.3321272134780884,1.4654772281646729
1783246168153364700,2.43636474609375,0.2063763290643692,-1.329775094985962,0.7547783851623535
1783246168163377000,2.446376953125,0.38698044419288635,-1.2269717454910278,-0.0024669470731168985
1783246168173388800,2.456388916015625,0.47120022773742676,-1.0450140237808228,-0.684876561164856
1783246168183400700,2.466400634765625,0.39756327867507935,-0.9463451504707336,-1.3339933156967163
1783246168193412900,2.476412841796875,0.16160060465335846,-0.8289327621459961,-1.8576419353485107
1783246168203423700,2.486423828125,-0.09583012759685516,-0.6851950287818909,-2.221400737762451
1783246168213435600,2.496435546875,-0.32926255464553833,-0.6075901985168457,-2.4800217151641846
1783246168223447800,2.50644775390625,-0.5882266759872437,-0.579017698764801,-2.6358866691589355
1783246168233459700,2.516459716796875,-1.0996191501617432,-0.7207470536231995,-2.846518039703369
1783246168243471600,2.5264716796875,-1.720552682876587,-0.5999894738197327,-3.0005359649658203
1783246168253482500,2.536482421875,-2.178720712661743,-0.3260607123374939,-2.976989984512329
1783246168263494700,2.54649462890625,-2.4405622482299805,0.024740174412727356,-2.854074239730835
1783246168273506600,2.556506591796875,-2.464399576187134,0.20754556357860565,-2.666167736053467
1783246168283518700,2.566518798828125,-2.3355696201324463,0.24855664372444153,-2.451319456100464
1783246168293529900,2.57652978515625,-2.1824896335601807,0.2930685579776764,-2.2379281520843506
1783246168303541800,2.586541748046875,-2.1042685508728027,0.24759721755981445,-2.064545154571533
1783246168313553700,2.5965537109375,-2.10581111907959,-0.05325646325945854,-1.8482558727264404
1783246168323565800,2.60656591796875,-2.2059781551361084,-0.48147332668304443,-1.6137454509735107
1783246168333577700,2.61657763671875,-2.3553977012634277,-0.9665271639823914,-1.4168249368667603
1783246168343588600,2.626588623046875,-2.543419122695923,-1.5502854585647583,-1.2517107725143433
1783246168353600800,2.636600830078125,-2.8353638648986816,-2.2519125938415527,-1.109422206878662
1783246168363612700,2.64661279296875,-3.2515625953674316,-2.856353282928467,-1.004581332206726
1783246168373624800,2.656624755859375,-3.7383198738098145,-3.32197904586792,-0.9291080236434937
1783246168383636700,2.66663671875,-4.29033899307251,-3.5183701515197754,-0.9113426208496094
1783246168393647600,2.676647705078125,-4.856772422790527,-3.297196626663208,-0.9455544948577881
1783246168403659500,2.686659423828125,-5.356777667999268,-2.6574466228485107,-0.99323570728302
1783246168413671700,2.696671630859375,-5.859326362609863,-1.8109924793243408,-1.059975028038025
1783246168423683600,2.70668359375,-6.300512313842773,-1.0691580772399902,-1.1478798389434814
1783246168433695700,2.71669580078125,-6.700772762298584,-0.43981030583381653,-1.2098239660263062
1783246168443706600,2.72670654296875,-7.066805362701416,0.27709588408470154,-1.2213234901428223
1783246168453718800,2.73671875,-7.019469738006592,2.176476001739502,-0.18876871466636658
1783246168463730700,2.746730712890625,-6.95283842086792,3.5595688819885254,0.8353589177131653
1783246168473742800,2.756742919921875,-7.040471076965332,4.924835681915283,1.8571165800094604
1783246168483754800,2.766754638671875,-7.049369812011719,6.2064080238342285,2.7940585613250732
1783246168493765600,2.776765625,-6.876991271972656,7.05635929107666,3.125251293182373
1783246168503777800,2.78677783203125,-6.006158351898193,4.455069065093994,1.3558963537216187
1783246168513789700,2.796789794921875,-4.874756336212158,1.6798220872879028,-0.8775546550750732
1783246168523801900,2.8068017578125,-3.7086312770843506,2.148432970046997,-1.8396023511886597
1783246168533812700,2.816812744140625,-2.4140193462371826,3.9158973693847656,-2.374465227127075
1783246168543824600,2.82682470703125,-1.1921640634536743,4.796031475067139,-2.70088529586792
1783246168553836500,2.83683642578125,0.008472204208374023,5.390415191650391,-3.198901414871216
1783246168563848700,2.8468486328125,1.6472145318984985,5.802096843719482,-4.142009735107422
1783246168573860600,2.856860595703125,3.51236891746521,6.107155799865723,-4.9498372077941895
1783246168583871500,2.86687158203125,4.907717227935791,7.018762111663818,-5.312504291534424
1783246168593883600,2.876883544921875,5.126298904418945,7.89467191696167,-5.180100440979004
1783246168603895600,2.8868955078125,4.341932773590088,7.692497730255127,-4.415132999420166
1783246168613907500,2.896907470703125,3.4068150520324707,6.188967227935791,-3.0822436809539795
1783246168623919600,2.906919677734375,3.003657102584839,4.2546796798706055,-1.6736658811569214
1783246168633930800,2.9169306640625,2.917616128921509,1.6041138172149658,-0.6060832738876343
1783246168643942700,2.926942626953125,2.941499710083008,-1.441461443901062,-0.11572524160146713
1783246168653954800,2.936954833984375,3.1418914794921875,-3.82926607131958,0.050545237958431244
1783246168663966700,2.946966796875,3.4800827503204346,-5.03048038482666,0.19086399674415588
1783246168673979000,2.956978759765625,3.7637853622436523,-5.371909141540527,0.40629714727401733
1783246168683989800,2.96698974609375,3.9444661140441895,-5.237715721130371,0.4907960593700409
1783246168694001700,2.977001708984375,4.060123920440674,-4.677845478057861,0.34864136576652527
1783246168704013600,2.987013671875,3.8816583156585693,-3.766939878463745,0.08580680191516876
1783246168714025700,2.997025634765625,3.3548150062561035,-2.7957711219787598,-0.19370535016059875
1783246168724037600,3.00703759765625,2.6914124488830566,-2.3685903549194336,-0.4320029020309448
1783246168734048500,3.017048583984375,2.0657668113708496,-2.4611618518829346,-0.7449913620948792
1783246168744060700,3.027060791015625,1.4199496507644653,-2.674835443496704,-1.3632352352142334
1783246168754072600,3.037072509765625,0.8136884570121765,-2.5683064460754395,-2.308171272277832
1783246168764084500,3.04708447265625,0.44740816950798035,-2.254075527191162,-3.327307939529419
1783246168774096600,3.0570966796875,0.35488662123680115,-1.9873799085617065,-4.065593719482422
1783246168784107800,3.067107666015625,0.41175922751426697,-1.9763981103897095,-4.278660774230957
1783246168794119700,3.07711962890625,0.522753119468689,-2.2735161781311035,-3.8951117992401123
1783246168804131800,3.0871318359375,0.6612686514854431,-2.803157329559326,-3.0166118144989014
1783246168814143700,3.097143798828125,0.7960665225982666,-3.3183252811431885,-1.980148196220398
1783246168824154600,3.107154541015625,0.7633636593818665,-3.383409261703491,-0.9483226537704468
1783246168834166800,3.117166748046875,0.6621755361557007,-3.2179346084594727,-0.1266741156578064
1783246168844178700,3.1271787109375,0.6638288497924805,-2.980036973953247,0.44958388805389404
1783246168854190600,3.137190673828125,0.7589501142501831,-2.918980836868286,0.7644308805465698
1783246168864202800,3.14720263671875,0.8618823289871216,-2.8262624740600586,0.89336758852005
1783246168874213600,3.157213623046875,0.9413778185844421,-2.5845885276794434,0.9491626024246216
1783246168884225500,3.1672255859375,0.9804650545120239,-2.3340213298797607,0.9290461540222168
1783246168894237700,3.17723779296875,0.9248061776161194,-2.1430952548980713,0.8179123401641846
1783246168904249600,3.18724951171875,0.8102535009384155,-1.9250974655151367,0.7223368287086487
1783246168914261500,3.197261474609375,0.6787998676300049,-1.606919288635254,0.6819527745246887
1783246168924273000,3.20727294921875,0.5462087988853455,-1.1932209730148315,0.6983134150505066
1783246168934284800,3.217284912109375,0.43160736560821533,-0.8209799528121948,0.7717481851577759
1783246168944296700,3.227296630859375,0.33203044533729553,-0.6688271760940552,0.912218451499939
1783246168954308900,3.237308837890625,0.24182555079460144,-0.7413540482521057,1.1031814813613892
1783246168964320800,3.24732080078125,0.1594369262456894,-0.9388982653617859,1.3342543840408325
1783246168974331600,3.25733154296875,0.12208276987075806,-1.0846790075302124,1.5553115606307983
1783246168984343800,3.26734375,0.0870499461889267,-0.8405821919441223,1.6692107915878296
1783246168994355700,3.277355712890625,0.044847361743450165,-0.42465320229530334,1.6508698463439941
1783246169004367600,3.28736767578125,0.030163222923874855,0.013558517210185528,1.448088526725769
1783246169014379800,3.2973798828125,0.07020674645900726,0.5922207832336426,0.9908707737922668
1783246169024390700,3.307390625,0.13626991212368011,1.3043251037597656,0.38300076127052307
1783246169034402600,3.317402587890625,0.09676377475261688,1.9694499969482422,-0.21575699746608734
1783246169044414700,3.327414794921875,-0.03418198972940445,2.4378488063812256,-0.7057256698608398
1783246169054426600,3.337426513671875,-0.18731723725795746,2.4806551933288574,-1.0151729583740234
1783246169064437500,3.3474375,-0.271276593208313,1.904584527015686,-1.130491018295288
1783246169074449700,3.35744970703125,-0.006790110841393471,1.1639536619186401,-1.058473825454712
1783246169084461600,3.367461669921875,0.7359446883201599,1.0233824253082275,-0.8227909207344055
1783246169094473700,3.3774736328125,1.5437909364700317,1.1575002670288086,-0.4970610737800598
1783246169104485600,3.387485595703125,2.0684823989868164,1.4667284488677979,-0.1081031933426857
1783246169114496800,3.397496826171875,2.2096810340881348,2.2192113399505615,0.4482259750366211
1783246169124508700,3.4075087890625,2.0119588375091553,3.629258632659912,1.170447587966919
1783246169134520800,3.417520751953125,1.546799659729004,4.4752678871154785,1.615225911140442
1783246169144532700,3.42753271484375,1.2077730894088745,4.539217472076416,1.8367176055908203
1783246169154544600,3.437544677734375,1.2950185537338257,4.187256813049316,2.032396078109741
1783246169164555800,3.4475556640625,1.4971301555633545,3.708057165145874,2.2772905826568604
1783246169174567700,3.457567626953125,1.545554757118225,3.0617520809173584,2.5034890174865723
1783246169184579600,3.46757958984375,1.5148330926895142,2.4758474826812744,2.7048864364624023
1783246169194591700,3.477591796875,1.4504714012145996,2.0226175785064697,2.8566734790802
1783246169204603600,3.487603759765625,1.2517529726028442,1.5797616243362427,2.899810314178467
1783246169214614500,3.497614501953125,1.1110825538635254,1.083301067352295,2.733586311340332
1783246169224626700,3.507626708984375,1.247797966003418,0.45991525053977966,2.296086311340332
1783246169234638600,3.517638671875,1.5171639919281006,-0.5047963857650757,1.7068288326263428
1783246169244650500,3.527650390625,1.562037706375122,-1.4739593267440796,1.1469184160232544
1783246169254662700,3.53766259765625,1.2726598978042603,-2.092836618423462,0.6773401498794556
1783246169264673800,3.547673828125,0.9221974611282349,-2.227405548095703,0.3505200147628784
1783246169274685700,3.557685791015625,0.7644467949867249,-1.7201899290084839,0.2510489523410797
1783246169284697900,3.56769775390625,0.7085550427436829,-1.1517040729522705,0.1998683214187622
1783246169294709800,3.577709716796875,0.6429875493049622,-0.9574368596076965,0.09425709396600723
1783246169304721700,3.5877216796875,0.537651002407074,-0.8309838771820068,-0.09697731584310532
1783246169314732800,3.59773291015625,0.5499055981636047,-0.755078911781311,-0.42731595039367676
1783246169324744700,3.60774462890625,0.808634340763092,-0.8109690546989441,-0.882554829120636
1783246169334756600,3.617756591796875,1.3674159049987793,-0.8973041772842407,-1.3345973491668701
1783246169344768800,3.627768798828125,1.9464235305786133,-1.0097644329071045,-1.6141469478607178
1783246169354779600,3.637779541015625,2.319478988647461,-1.1532584428787231,-1.5433590412139893
1783246169364791000,3.647791015625,2.3746347427368164,-1.1722956895828247,-1.1394853591918945
1783246169374803200,3.65780322265625,2.2206172943115234,-0.9447956681251526,-0.4562636911869049
1783246169384815000,3.667815185546875,1.97359299659729,-0.725609302520752,0.3575756847858429
1783246169394827000,3.677826904296875,1.7953836917877197,-0.611233651638031,1.1093026399612427
1783246169404838400,3.68783837890625,1.7477689981460571,-0.40363645553588867,1.66411554813385
1783246169414850300,3.697850341796875,1.7727007865905762,-0.17820622026920319,1.9708188772201538
1783246169424862200,3.7078623046875,1.826880693435669,-0.07552672177553177,2.0854039192199707
1783246169434874400,3.717874267578125,1.8509031534194946,-0.0045335073955357075,2.043816566467285
1783246169444886300,3.72788623046875,1.852885365486145,0.05071723088622093,1.8905311822891235
1783246169454897200,3.737897216796875,1.8968286514282227,0.13202251493930817,1.688068151473999
1783246169464909300,3.747909423828125,2.042569637298584,0.2403109073638916,1.5260902643203735
1783246169474921200,3.757921142578125,2.2737863063812256,0.534907341003418,1.4487026929855347
1783246169484933000,3.76793310546875,2.469012498855591,0.8124215006828308,1.4033410549163818
1783246169494945300,3.7779453125,2.533799886703491,0.872770369052887,1.2933269739151
1783246169504956200,3.7879560546875,2.470491647720337,0.9841155409812927,1.2078951597213745
1783246169514968000,3.797968017578125,2.303013801574707,1.2682230472564697,1.2305974960327148
1783246169524980200,3.807980224609375,2.1351356506347656,1.5699442625045776,1.361063838005066
1783246169534992100,3.8179921875,2.113281011581421,1.5752044916152954,1.5455271005630493
1783246169545003300,3.828003173828125,2.1825766563415527,1.132390022277832,1.6799813508987427
1783246169555015400,3.838015380859375,2.1947247982025146,0.5228316783905029,1.7312159538269043
1783246169565027300,3.84802734375,2.1005921363830566,0.016796443611383438,1.6903315782546997
1783246169575039200,3.858039306640625,1.9784963130950928,-0.3964477479457855,1.5248719453811646
1783246169585051400,3.868051513671875,1.9127719402313232,-0.6539834141731262,1.2943207025527954
1783246169595062300,3.878062255859375,1.892859697341919,-0.6030914187431335,1.0672657489776611
1783246169605074200,3.88807421875,1.888773798942566,-0.3136082589626312,0.883675754070282
1783246169615086300,3.89808642578125,1.8564962148666382,0.08257167786359787,0.7984838485717773
1783246169625098200,3.90809814453125,1.7497687339782715,0.3858996033668518,0.8095964193344116
1783246169635110100,3.918110107421875,1.5302271842956543,0.5389681458473206,0.8521856665611267
1783246169645121300,3.928121337890625,1.2246382236480713,0.5618801116943359,0.8669443726539612
1783246169655133200,3.93813330078125,0.834253191947937,0.3982064723968506,0.8187059164047241
1783246169665145000,3.94814501953125,0.47359728813171387,0.1233067438006401,0.7279144525527954
1783246169675157200,3.9581572265625,0.3001564145088196,0.09618634730577469,0.6547231674194336
1783246169685169200,3.968169189453125,0.3238127529621124,0.2614426612854004,0.6013518571853638
1783246169695180300,3.97818017578125,0.39705732464790344,0.4008849263191223,0.5877271890640259
1783246169705192400,3.9881923828125,0.39749062061309814,0.4402621388435364,0.6234855055809021
1783246169715204400,3.998204345703125,0.33721569180488586,0.4026603102684021,0.7246342301368713
1783246169725216300,4.00821630859375,0.3401874899864197,0.4253730773925781,0.759713888168335
1783246169735228400,4.018228515625,0.2896840572357178,0.32421284914016724,0.5805993676185608
1783246169745239300,4.0282392578125,0.27013087272644043,0.11154372245073318,0.23696713149547577
1783246169755251200,4.038251220703125,0.584457516670227,-0.09638774394989014,0.023675676435232162
1783246169765263400,4.048263427734375,0.9384092092514038,-0.47690603137016296,0.10923931747674942
1783246169775275300,4.058275146484375,1.1485979557037354,-1.030415415763855,0.6853700876235962
1783246169785287200,4.068287109375,1.4143444299697876,-1.6392593383789062,1.5814857482910156
1783246169795298300,4.07829833984375,1.6099967956542969,-2.0568971633911133,2.3603665828704834
1783246169805310200,4.088310302734375,1.5546177625656128,-2.390909433364868,2.7113711833953857
1783246169815322000,4.098322021484375,1.1964285373687744,-2.523627519607544,2.4845807552337646
1783246169825334300,4.108334228515625,0.6244660019874573,-2.6555330753326416,1.6993173360824585
1783246169835345200,4.11834521484375,0.05682004243135452,-2.524353265762329,0.783259928226471
1783246169845357000,4.128357177734375,-0.5083301663398743,-1.8294355869293213,-0.16343815624713898
1783246169855369200,4.138369140625,-0.923363447189331,-0.7879418134689331,-1.204224944114685
1783246169865381000,4.148381103515625,-1.3111101388931274,0.8150798082351685,-2.18456768989563
1783246169875393300,4.158393310546875,-1.228296160697937,2.487927198410034,-2.8997039794921875
1783246169885404400,4.168404296875,-0.9056934714317322,3.3589353561401367,-3.3399274349212646
1783246169895416300,4.178416259765625,-0.673019528388977,3.176135540008545,-3.5403730869293213
1783246169905428200,4.18842822265625,-0.6272099614143372,2.1609649658203125,-3.419111967086792
1783246169915440400,4.1984404296875,-0.7040748000144958,0.8482505083084106,-3.0199546813964844
1783246169925452300,4.208452392578125,-0.7950193285942078,-0.19051572680473328,-2.5173723697662354
1783246169935463200,4.218463134765625,-0.4827210009098053,-0.5362089276313782,-2.0297598838806152
1783246169945475300,4.228475341796875,0.0961412712931633,-0.1363331377506256,-1.494512915611267
1783246169955487200,4.2384873046875,0.4077143371105194,0.2626699209213257,-0.9811326861381531
1783246169965499100,4.2484990234375,0.3899950087070465,0.448063462972641,-0.6111069917678833
1783246169975511300,4.25851123046875,0.05277484655380249,0.5027466416358948,-0.29919442534446716
1783246169985522200,4.268522216796875,-0.7005111575126648,0.170762836933136,0.15487374365329742
1783246169995534000,4.2785341796875,-1.8083086013793945,0.10820342600345612,0.6266626715660095
1783246170005546200,4.288546142578125,-2.802954912185669,0.37834838032722473,1.1310256719589233
1783246170015558100,4.29855810546875,-3.1655054092407227,0.6172924637794495,1.648948311805725
1783246170025570000,4.308570068359375,-2.8241724967956543,0.5244815349578857,2.091144323348999
1783246170035581400,4.31858154296875,-2.140099287033081,0.4320946931838989,2.3536479473114014
1783246170045593300,4.32859326171875,-1.4345667362213135,0.7591601610183716,2.320873498916626
1783246170055605200,4.338605224609375,-0.726166844367981,1.3108757734298706,2.114058494567871
1783246170065617400,4.348617431640625,-0.11028182506561279,1.879866361618042,1.887424349784851
1783246170075628300,4.358628173828125,0.2891167998313904,2.410174608230591,1.7153258323669434
1783246170085640200,4.36864013671875,0.44795891642570496,2.910287618637085,1.588977575302124
1783246170095652400,4.37865234375,0.45988085865974426,3.1338155269622803,1.5195046663284302
1783246170105664300,4.388664306640625,0.43472301959991455,2.9757823944091797,1.5512826442718506
1783246170115676200,4.39867626953125,0.5395420789718628,2.3776495456695557,1.8129080533981323
1783246170125687000,4.40868701171875,0.5771682858467102,1.8706926107406616,2.0875024795532227
1783246170135699200,4.41869921875,0.5097595453262329,1.479706048965454,2.2448678016662598
1783246170145711000,4.428711181640625,0.42600420117378235,1.4211175441741943,2.36021089553833
1783246170155723300,4.43872314453125,0.36489030718803406,1.4382638931274414,2.287454605102539
1783246170165735200,4.448735107421875,0.5607652068138123,1.5691633224487305,2.1462550163269043
1783246170175746300,4.458746337890625,1.0297483205795288,1.9347562789916992,1.8957098722457886
1783246170185758200,4.46875830078125,1.7208043336868286,2.240744113922119,1.673940658569336
1783246170195770400,4.478770263671875,2.0031466484069824,2.370378017425537,1.5763564109802246
1783246170205782300,4.4887822265625,1.8026373386383057,2.292419672012329,1.591207504272461
1783246170215794400,4.49879443359375,1.380432367324829,1.9523545503616333,1.7167448997497559
1783246170225805300,4.508805419921875,1.017147183418274,1.6337529420852661,1.8743083477020264
1783246170235817200,4.518817138671875,0.8541908860206604,1.4776650667190552,1.9315645694732666
1783246170245829400,4.528829345703125,0.894710898399353,1.5709518194198608,1.7624114751815796
1783246170255841300,4.53884130859375,0.8774356245994568,1.4246517419815063,1.4305871725082397
1783246170265853200,4.548853271484375,0.7123081684112549,0.8593280911445618,1.2881901264190674
1783246170275864000,4.558864013671875,0.4807739555835724,0.15516215562820435,1.4265843629837036
1783246170285876200,4.568876220703125,0.2411443442106247,-0.38634663820266724,1.8143863677978516
1783246170295888100,4.57888818359375,-0.13603508472442627,-0.6168586015701294,2.1685822010040283
1783246170305900300,4.588900390625,-0.5860286355018616,-0.561294436454773,2.304826498031616
1783246170315911200,4.5989111328125,-1.1039584875106812,-0.7120289206504822,2.1779658794403076
1783246170325923300,4.60892333984375,-1.4719066619873047,-0.6684210300445557,1.9388774633407593
1783246170335935200,4.618935302734375,-1.6108450889587402,-0.5619070529937744,1.6496776342391968
1783246170345947400,4.628947509765625,-1.4950166940689087,-0.8366706967353821,1.3066757917404175
1783246170355959300,4.638959228515625,-1.1993399858474731,-1.3094475269317627,0.9682137966156006
1783246170365970700,4.648970703125,-0.9522934556007385,-1.8274458646774292,0.6519098877906799
1783246170375982800,4.65898291015625,-0.8978698253631592,-2.3130810260772705,0.4432317316532135
1783246170385994800,4.668994873046875,-0.933377742767334,-2.392228841781616,0.5304329991340637
1783246170396006700,4.679006591796875,-0.9007056951522827,-2.4676058292388916,0.4216587543487549
1783246170406018800,4.689018798828125,-0.9178412556648254,-2.6895558834075928,-0.038536518812179565
1783246170416029700,4.69902978515625,-0.9633758068084717,-2.889256000518799,-0.45532798767089844
1783246170426041600,4.70904150390625,-0.7125425338745117,-2.2518889904022217,-0.5200135111808777
1783246170436053800,4.7190537109375,-0.11898418515920639,-1.76341712474823,-0.727851390838623
1783246170446065700,4.729065673828125,0.6406692266464233,-0.41418537497520447,-1.2687405347824097
1783246170456077600,4.73907763671875,0.992586612701416,0.23336662352085114,-2.588867425918579
1783246170466088700,4.749088623046875,0.7959076166152954,0.9582425355911255,-3.35669207572937
1783246170476100600,4.7591005859375,0.44682997465133667,1.4410991668701172,-3.314030647277832
1783246170486112500,4.769112548828125,0.11110308766365051,1.3417129516601562,-3.0009565353393555
1783246170496124700,4.779124755859375,-0.3575553297996521,1.2214524745941162,-2.5649640560150146
1783246170506135800,4.7891357421875,-0.8683727979660034,1.0340967178344727,-2.216829299926758
1783246170516147700,4.799147705078125,-1.201486349105835,0.9211364984512329,-2.0431532859802246
1783246170526160000,4.809159912109375,-1.2876577377319336,0.6834083795547485,-2.015679359436035
1783246170536171800,4.819171875,-1.2051355838775635,0.4071904420852661,-1.9226418733596802
1783246170546183700,4.82918359375,-1.014335036277771,0.1671549379825592,-1.551155924797058
1783246170556194800,4.83919482421875,-0.7960570454597473,-0.031053535640239716,-0.9149330258369446
1783246170566206700,4.849206787109375,-0.6183205842971802,-0.08965026587247849,-0.15658192336559296
1783246170576218600,4.859218505859375,-0.47739845514297485,-0.10212989151477814,0.5314955711364746
1783246170586230800,4.869230712890625,-0.37593919038772583,-0.21782107651233673,1.0118452310562134
1783246170596242700,4.87924267578125,-0.4685494303703308,-0.40770140290260315,1.2404438257217407
1783246170606253600,4.889253662109375,-0.6445097923278809,-0.4333271384239197,1.2598809003829956
1783246170616265700,4.899265625,-0.7026660442352295,-0.30153265595436096,1.0191603899002075
1783246170626277600,4.909277587890625,-0.6545233130455017,-0.09308303147554398,0.682106614112854
1783246170636289500,4.91928955078125,-0.5588154792785645,0.27955707907676697,0.4208475649356842
1783246170646301700,4.9293017578125,-0.41448867321014404,0.6542249917984009,0.2837110161781311
1783246170656312800,4.939312744140625,-0.2971339821815491,0.735270619392395,0.2813517451286316
1783246170666324700,4.94932470703125,-0.2980501353740692,0.50118088722229,0.43772801756858826
1783246170676336600,4.959336669921875,-0.5161076188087463,0.3218704164028168,0.7430870532989502
1783246170686348800,4.969348876953125,-0.9259982109069824,0.6538808345794678,1.1176518201828003
1783246170696359700,4.979359619140625,-1.0673894882202148,0.16149088740348816,1.2176640033721924
1783246170706371800,4.989371826171875,-0.8808691501617432,-0.4303410053253174,1.2292344570159912
1783246170716383700,4.9993837890625,-0.6637542843818665,-0.6581687331199646,1.1669567823410034
1783246170726395600,5.009395751953125,-0.48814067244529724,-0.5368015170097351,0.973463773727417
1783246170736407800,5.01940771484375,-0.2831881046295166,-0.29690781235694885,0.7051730751991272
1783246170746418700,5.029418701171875,-0.09750797599554062,-0.00826108269393444,0.5345739126205444
1783246170756430600,5.0394306640625,-0.032790765166282654,0.25656312704086304,0.4883364140987396
1783246170766442800,5.04944287109375,-0.09192146360874176,0.4078349173069,0.5596116185188293
1783246170776454700,5.05945458984375,-0.25540977716445923,0.35710272192955017,0.729865550994873
1783246170786466600,5.069466552734375,-0.5237117409706116,0.08131801337003708,0.8828532099723816
1783246170796477700,5.079477783203125,-0.7826171517372131,-0.25618118047714233,0.9452860355377197
1783246170806489600,5.089489501953125,-0.9290832877159119,-0.41307705640792847,0.947724461555481
1783246170816501500,5.09950146484375,-0.9080448150634766,-0.3049635887145996,0.9946416020393372
1783246170826513700,5.109513671875,-0.7653933763504028,-0.15253889560699463,1.09272301197052
1783246170836525600,5.119525634765625,-0.719380795955658,-0.0480012521147728,1.22603440284729
1783246170846536700,5.12953662109375,-0.8695377707481384,0.10624051839113235,1.3823803663253784
1783246170856548900,5.139548828125,-1.1017348766326904,0.2903413772583008,1.4632008075714111
1783246170866560800,5.149560791015625,-1.3707929849624634,0.4843257665634155,1.5362529754638672
1783246170876572700,5.15957275390625,-1.698083519935608,0.6016895771026611,1.7006639242172241
1783246170886583800,5.169583740234375,-1.9701956510543823,0.5486524701118469,1.8762413263320923
1783246170896595700,5.179595703125,-1.949649691581726,0.24643854796886444,1.9162591695785522
1783246170906607600,5.189607666015625,-1.7161085605621338,-0.4197554588317871,1.7009104490280151
1783246170916619800,5.199619873046875,-1.4390369653701782,-1.1507630348205566,1.3897441625595093
1783246170926631700,5.209631591796875,-1.152073621749878,-1.5513240098953247,1.3870890140533447
1783246170936642600,5.219642578125,-0.9151732921600342,-1.6052221059799194,1.7469732761383057
1783246170946654700,5.22965478515625,-0.686479389667511,-1.4041903018951416,2.165418863296509
1783246170956666600,5.23966650390625,-0.38260403275489807,-1.2663440704345703,2.14803409576416
1783246170966678500,5.249678466796875,-0.10622115433216095,-1.4682133197784424,1.4176300764083862
1783246170976690700,5.259690673828125,-0.0051210555247962475,-1.8299047946929932,-0.028127219527959824
1783246170986701800,5.269701904296875,-0.054509375244379044,-1.9032347202301025,-1.7420766353607178
1783246170996713700,5.279713623046875,-0.2011069655418396,-1.5402311086654663,-3.011976957321167
1783246171006726000,5.289725830078125,-0.3218376338481903,-1.1086639165878296,-3.456244468688965
1783246171016737800,5.29973779296875,-0.41299012303352356,-0.8003004193305969,-3.104597806930542
1783246171026749700,5.309749755859375,-0.4863567650318146,-0.6518211960792542,-2.272709369659424
1783246171036760800,5.3197607421875,-0.5632947087287903,-0.6303556561470032,-1.3573558330535889
1783246171046772700,5.329772705078125,-0.6341882944107056,-0.7341355681419373,-0.5949741005897522
1783246171056784600,5.33978466796875,-0.7044454216957092,-0.8343415260314941,-0.0499025397002697
1783246171066796800,5.349796875,-0.7627097964286804,-0.9326968789100647,0.26458480954170227
1783246171076807700,5.3598076171875,-0.8508785367012024,-0.9826958775520325,0.34442147612571716
1783246171086819600,5.369819580078125,-0.9872995018959045,-0.9730533361434937,0.19457153975963593
1783246171096831700,5.379831787109375,-1.1245768070220947,-0.8538559079170227,-0.14026939868927002
1783246171106843600,5.38984375,-1.2524346113204956,-0.5873405933380127,-0.597922682762146
1783246171116855600,5.39985546875,-1.3163013458251953,-0.20145605504512787,-0.9999025464057922
1783246171126866700,5.40986669921875,-1.2724623680114746,0.16687697172164917,-1.1885243654251099
1783246171136878800,5.41987890625,-1.1608929634094238,0.3725891709327698,-1.162609577178955
1783246171146890800,5.429890869140625,-1.039406180381775,0.3682838976383209,-0.923810601234436
1783246171156903000,5.43990283203125,-0.9301272034645081,0.15654784440994263,-0.4802147448062897
1783246171166914800,5.449914794921875,-0.8351988196372986,-0.17510439455509186,0.10487614572048187
1783246171176925700,5.45992578125,-0.7536662817001343,-0.5629414916038513,0.7323178052902222
1783246171186937600,5.4699375,-0.7837280035018921,-1.0475307703018188,1.2391115427017212
1783246171196949800,5.47994970703125,-0.936786413192749,-1.519476294517517,1.4498289823532104
1783246171206961700,5.489961669921875,-1.0990227460861206,-1.8166435956954956,1.3346304893493652
1783246171216973800,5.499973876953125,-1.10386323928833,-1.8011845350265503,0.9766656160354614
1783246171226984700,5.509984619140625,-0.9525994658470154,-1.4285041093826294,0.4668191373348236
1783246171236996600,5.51999658203125,-0.684950590133667,-0.7538938522338867,-0.0642671287059784
1783246171247008800,5.5300087890625,-0.4996263086795807,-0.07655560970306396,-0.46438923478126526
1783246171257020700,5.540020751953125,-0.46899929642677307,0.2785535752773285,-0.5676148533821106
1783246171267031600,5.550031494140625,-0.5511010885238647,0.03890131786465645,-0.37551388144493103
1783246171277043500,5.56004345703125,-1.1129578351974487,-0.7534102201461792,0.07426902651786804
1783246171287055600,5.5700556640625,-1.7633154392242432,-1.4460455179214478,0.28821486234664917
1783246171297067500,5.580067626953125,-2.03959584236145,-1.8951021432876587,0.39303576946258545
1783246171307079700,5.59007958984375,-1.9304075241088867,-1.7550721168518066,0.3610123097896576
1783246171317090800,5.6000908203125,-1.3864805698394775,-1.7500333786010742,0.4164503216743469
1783246171327102700,5.610102783203125,-1.1287404298782349,-1.275006890296936,0.2074536830186844
1783246171337114600,5.620114501953125,-0.9591260552406311,-0.882282018661499,0.12249847501516342
1783246171347126800,5.630126708984375,-0.8400100469589233,-0.7018560767173767,0.11636441946029663
1783246171357138700,5.640138671875,-0.8696035146713257,-0.6357307434082031,0.20908211171627045
1783246171367150000,5.650150146484375,-0.9656914472579956,-0.4897357225418091,0.24397458136081696
1783246171377162000,5.660161865234375,-1.0132009983062744,-0.2661575675010681,0.25024744868278503
1783246171387174100,5.670174072265625,-0.9537968039512634,-0.025494612753391266,0.279087096452713
1783246171397186000,5.68018603515625,-0.7820624113082886,0.14816389977931976,0.21478553116321564
1783246171407197000,5.690197021484375,-0.6196843981742859,0.23933322727680206,0.005695962347090244
1783246171417209000,5.700208984375,-0.5962172746658325,0.232474684715271,-0.22854550182819366
1783246171427221000,5.710220947265625,-0.6876901984214783,0.09903007000684738,-0.3615959882736206
1783246171437233000,5.72023291015625,-0.8816091418266296,-0.052027951925992966,-0.30781102180480957
1783246171447245000,5.7302451171875,-1.0740786790847778,-0.012787338346242905,-0.053091660141944885
1783246171457256200,5.740256103515625,-1.1672085523605347,0.13642355799674988,0.2838967442512512
1783246171467268000,5.75026806640625,-1.2110620737075806,0.16586586833000183,0.5227428674697876
1783246171477280300,5.7602802734375,-1.2203381061553955,0.042116232216358185,0.7212961912155151
1783246171487292200,5.770292236328125,-1.0753867626190186,-0.28134626150131226,0.862736701965332
1783246171497304000,5.780303955078125,-0.7492876052856445,-0.8780540227890015,0.7839882969856262
1783246171507315200,5.790315185546875,-0.37377792596817017,-1.5826444625854492,0.5841979384422302
1783246171517327000,5.8003271484375,0.05400649830698967,-1.9474393129348755,0.5751199722290039
1783246171527339000,5.810339111328125,0.5630010366439819,-1.8433022499084473,0.8769565224647522
1783246171537351200,5.82035107421875,1.0503894090652466,-1.6672810316085815,1.2972532510757446
1783246171547363000,5.830363037109375,1.520628571510315,-1.6699095964431763,1.4206478595733643
1783246171557374000,5.8403740234375,1.955844521522522,-2.0180535316467285,0.9577760696411133
1783246171567386000,5.85038623046875,2.1273233890533447,-2.5768167972564697,-0.04371180012822151
1783246171577398000,5.86039794921875,1.9715059995651245,-3.1223642826080322,-1.3576067686080933
1783246171587410000,5.870409912109375,1.621490478515625,-3.2517406940460205,-2.7382304668426514
1783246171597421000,5.880421142578125,1.1561193466186523,-2.9121649265289307,-3.99893856048584
1783246171607433000,5.890432861328125,0.6645581722259521,-2.2136857509613037,-5.008269309997559
1783246171617445000,5.900445068359375,0.27319324016571045,-1.2696211338043213,-5.628129959106445
1783246171627457000,5.91045703125,0.05394316464662552,-0.27586713433265686,-5.776086807250977
1783246171637469000,5.920468994140625,0.0709899514913559,0.5242920517921448,-5.416135787963867
1783246171647480000,5.93047998046875,0.26855602860450745,0.9309045672416687,-4.639291763305664
1783246171657492200,5.9404921875,0.44099193811416626,0.781242311000824,-3.693528175354004
1783246171667504000,5.950504150390625,0.28993505239486694,0.17053630948066711,-2.7973098754882812
1783246171677516000,5.96051611328125,0.006858792155981064,-0.6570514440536499,-2.0799202919006348
1783246171687528200,5.970528076171875,-0.19329027831554413,-1.3554247617721558,-1.7314013242721558
1783246171697539000,5.9805390625,-0.2354658544063568,-1.6882894039154053,-1.8204238414764404
1783246171707551000,5.990551025390625,-0.12489486485719681,-1.594091773033142,-2.1978163719177246
1783246171717563100,6.000563232421875,0.09768996387720108,-1.1179111003875732,-2.6589720249176025
1783246171727575000,6.010574951171875,0.2950211465358734,-0.4851911962032318,-3.047539710998535
1783246171737586000,6.0205859375,0.42539116740226746,0.04934309050440788,-3.2204177379608154
1783246171747598000,6.03059814453125,0.4531514346599579,0.3382166922092438,-3.191340923309326
1783246171757610000,6.04060986328125,0.3297482430934906,0.3778359591960907,-3.010133981704712
1783246171767622000,6.050621826171875,0.049992483109235764,0.17610551416873932,-2.675840139389038
1783246171777634000,6.060634033203125,-0.313159316778183,-0.23101532459259033,-2.2907872200012207
1783246171787645200,6.070645263671875,-0.6818414926528931,-0.6426758170127869,-1.9618651866912842
1783246171797657000,6.080656982421875,-0.9492027759552002,-0.8059828877449036,-1.6707340478897095
1783246171807669200,6.090669189453125,-1.0476469993591309,-0.6081228256225586,-1.4120619297027588
1783246171817681200,6.10068115234375,-0.9558162093162537,-0.12675964832305908,-1.1281999349594116
1783246171827693000,6.110693115234375,-0.7502808570861816,0.41541653871536255,-0.7797031402587891
1783246171837704200,6.1207041015625,-0.551362931728363,0.7614400386810303,-0.4050835371017456
1783246171847716000,6.130716064453125,-0.43133825063705444,0.9125621318817139,-0.05256729945540428
1783246171857728000,6.14072802734375,-0.363267719745636,0.8717339634895325,0.30336469411849976
1783246171867740200,6.150740234375,-0.34569939970970154,0.6913676261901855,0.6365013718605042
1783246171877752000,6.160751953125,-0.39040663838386536,0.37772661447525024,0.9007279872894287
1783246171887763000,6.170762939453125,-0.5215281844139099,-0.006818395107984543,1.0766979455947876
1783246171897775000,6.180775146484375,-0.7655225992202759,-0.2690064609050751,1.169854760169983
1783246171907787000,6.190787109375,-1.046087622642517,-0.23660695552825928,1.1388822793960571
1783246171917799000,6.200798828125,-1.2860785722732544,0.12067271769046783,1.021392583847046
1783246171927810000,6.21081005859375,-1.4488792419433594,0.6757234334945679,0.8933318853378296
1783246171937822200,6.220822265625,-1.560753345489502,1.1925981044769287,0.8231903910636902
1783246171947834000,6.230834228515625,-1.7080458402633667,1.5195586681365967,0.8212116956710815
1783246171957846300,6.24084619140625,-1.8435919284820557,1.7337450981140137,0.8537471890449524
1783246171967858200,6.250858154296875,-1.85282301902771,1.8420689105987549,0.8848819732666016
1783246171977869000,6.260869140625,-1.7437230348587036,1.8000192642211914,0.974249541759491
1783246171987881200,6.270881103515625,-1.6238914728164673,1.7580771446228027,1.2616935968399048
1783246171997893000,6.28089306640625,-1.5541448593139648,1.80514657497406,1.6668621301651
1783246172007905000,6.290905029296875,-1.452746033668518,1.949947476387024,1.9406909942626953
1783246172017917200,6.300917236328125,-1.386284589767456,2.167633056640625,1.940799355506897
1783246172027928000,6.310927978515625,-1.4327056407928467,2.1373274326324463,1.457004189491272
1783246172037940000,6.32093994140625,-1.7064465284347534,1.5366544723510742,0.46347948908805847
1783246172047952100,6.3309521484375,-2.049715042114258,0.4943656623363495,-0.817707896232605
1783246172057964000,6.340964111328125,-2.1047379970550537,-0.480644553899765,-2.1561756134033203
1783246172067975200,6.35097509765625,-1.670975685119629,-0.8436517715454102,-2.7716481685638428
1783246172077987000,6.360987060546875,-0.9670056104660034,-1.0282411575317383,-1.6822327375411987
1783246172087999200,6.370999267578125,-0.23671725392341614,-1.3527483940124512,1.3081003427505493
1783246172098011100,6.38101123046875,0.30999991297721863,-1.7723596096038818,4.8426103591918945
1783246172108023000,6.39102294921875,0.6882849335670471,-2.0619115829467773,6.724242210388184
1783246172118034200,6.4010341796875,1.1095609664916992,-2.069831371307373,6.268496990203857
1783246172128046000,6.411046142578125,1.3738826513290405,-1.8724251985549927,4.095544815063477
1783246172138058000,6.42105810546875,1.4308674335479736,-1.5089778900146484,1.1525490283966064
1783246172148070100,6.431070068359375,1.3078291416168213,-1.7277765274047852,-1.200186848640442
1783246172158082000,6.44108203125,1.0003386735916138,-1.9981411695480347,-2.538177013397217
1783246172168093000,6.451093017578125,0.5609212517738342,-2.1955385208129883,-3.1307246685028076
1783246172178105000,6.46110498046875,0.10671001672744751,-2.0296545028686523,-3.180938720703125
1783246172188117000,6.471116943359375,-0.36362579464912415,-1.3905235528945923,-2.959001302719116
1783246172198129200,6.481129150390625,-0.937355637550354,-0.5473395586013794,-2.717064380645752
1783246172208140000,6.49114013671875,-1.5794576406478882,0.14161038398742676,-2.460864782333374
1783246172218152000,6.50115185546875,-2.1258466243743896,0.5505053400993347,-2.076990842819214
1783246172228163800,6.511163818359375,-2.497709274291992,0.6696136593818665,-1.6199569702148438
1783246172238176000,6.521176025390625,-2.71858286857605,0.5457544922828674,-1.2023260593414307
1783246172248188000,6.53118798828125,-2.8167951107025146,0.40945306420326233,-0.8740652203559875
1783246172258199000,6.541198974609375,-2.7372970581054688,0.35382601618766785,-0.7220266461372375
1783246172268211200,6.551211181640625,-2.412152051925659,0.3102034330368042,-0.8228523135185242
1783246172278223000,6.56122314453125,-1.9375027418136597,0.17716598510742188,-1.167741298675537
1783246172288235000,6.571235107421875,-1.4722267389297485,-0.024614278227090836,-1.6406174898147583
1783246172298247200,6.5812470703125,-1.107698678970337,-0.22545108199119568,-2.136108875274658
1783246172308258000,6.591258056640625,-0.8860690593719482,-0.42803773283958435,-2.5101656913757324
1783246172318270000,6.60127001953125,-0.8073344826698303,-0.6831541061401367,-2.6651220321655273
1783246172328282000,6.6112822265625,-0.9216352105140686,-1.005252718925476,-2.6244566440582275
1783246172338294000,6.6212939453125,-1.1853675842285156,-1.2948572635650635,-2.510010004043579
1783246172348305000,6.631304931640625,-1.526336908340454,-1.3405944108963013,-2.424910545349121
1783246172358317000,6.641317138671875,-1.896417498588562,-1.0185881853103638,-2.4133315086364746
1783246172368328700,6.65132861328125,-2.212496757507324,-0.4246625006198883,-2.4370853900909424
1783246172378340900,6.6613408203125,-2.444019079208374,0.2817264795303345,-2.451343059539795
1783246172388352800,6.671352783203125,-2.5712244510650635,0.9051538109779358,-2.393070936203003
1783246172398364000,6.681364013671875,-2.6098756790161133,1.3245744705200195,-2.231071710586548
1783246172408375800,6.691375732421875,-2.583216905593872,1.4870333671569824,-1.9851353168487549
1783246172418388000,6.701387939453125,-2.5266733169555664,1.4177460670471191,-1.690284252166748
1783246172428399900,6.71139990234375,-2.4492011070251465,1.1541261672973633,-1.3642457723617554
1783246172438412000,6.721412109375,-2.3796987533569336,0.7845427393913269,-0.9984886646270752
1783246172448423000,6.7314228515625,-2.3080523014068604,0.4485609829425812,-0.640077531337738
1783246172458434800,6.741434814453125,-2.261597156524658,0.20037952065467834,-0.34915396571159363
1783246172468447000,6.751447021484375,-2.2199203968048096,0.033481091260910034,-0.1325652152299881
1783246172478459000,6.761458984375,-2.1463427543640137,0.008646367117762566,0.007903965190052986
1783246172488469800,6.7714697265625,-2.0549163818359375,0.13003110885620117,0.0844365581870079
1783246172498481700,6.781481689453125,-2.0233609676361084,0.24472393095493317,0.13073885440826416
1783246172508493800,6.791493896484375,-2.1150994300842285,0.3264840543270111,0.18925462663173676
1783246172518505700,6.801505615234375,-2.207319498062134,0.45491573214530945,0.27635931968688965
1783246172528518000,6.811517822265625,-2.290738344192505,0.4857247769832611,0.30017516016960144
1783246172538529000,6.821529052734375,-2.4168577194213867,0.5691287517547607,0.3331480622291565
1783246172548541000,6.831541015625,-2.416100263595581,0.7663483023643494,0.3837209641933441
1783246172558552800,6.841552734375,-2.2599990367889404,0.9981897473335266,0.44647476077079773
1783246172568565000,6.85156494140625,-2.016353130340576,1.3325955867767334,0.6896530389785767
1783246172578577000,6.861576904296875,-1.684026837348938,1.5650991201400757,1.2776198387145996
1783246172588587800,6.871587890625,-1.3746330738067627,1.484235405921936,2.229679584503174
1783246172598600000,6.881599853515625,-1.360625982284546,0.876836895942688,3.063422679901123
1783246172608611800,6.89161181640625,-1.6054959297180176,0.08627064526081085,3.2584638595581055
1783246172618624000,6.9016240234375,-1.998822808265686,-0.7142470479011536,2.421082019805908
1783246172628636000,6.911635986328125,-2.5786609649658203,-1.3896297216415405,0.5670841932296753
1783246172638646800,6.921646728515625,-3.118527412414551,-1.5386805534362793,-1.6735641956329346
1783246172648658700,6.93165869140625,-3.4755663871765137,-0.9829906821250916,-3.3320651054382324
1783246172658670800,6.9416708984375,-3.6327030658721924,-0.2900661528110504,-3.675677537918091
1783246172668682800,6.951682861328125,-3.5551838874816895,0.14214494824409485,-2.5462591648101807
1783246172678694000,6.96169384765625,-3.0561635494232178,0.31840673089027405,-0.7807026505470276
1783246172688706000,6.9717060546875,-2.277479648590088,0.013438032940030098,0.6214441657066345
1783246172698718000,6.981718017578125,-1.6082768440246582,-0.6898216605186462,1.3459867238998413
1783246172708729900,6.991729736328125,-1.3040915727615356,-1.5216894149780273,1.5537545680999756
1783246172718742000,7.001741943359375,-1.3885650634765625,-2.1270956993103027,1.4116480350494385
1783246172728753000,7.0117529296875,-1.7034369707107544,-2.3804638385772705,0.9408206343650818
1783246172738764800,7.021764892578125,-2.1506102085113525,-2.2254228591918945,0.1189403086900711
1783246172748777000,7.03177685546875,-2.6532070636749268,-1.6759549379348755,-0.9567610621452332
1783246172758788900,7.041788818359375,-3.1148123741149902,-0.9556397199630737,-1.9767231941223145
1783246172768799700,7.0517998046875,-3.4987659454345703,-0.3445800840854645,-2.755873441696167
1783246172778812000,7.06181201171875,-3.7991223335266113,0.044794730842113495,-3.1941027641296387
1783246172788823800,7.07182373046875,-4.003089427947998,0.21308626234531403,-3.241541624069214
1783246172798835700,7.081835693359375,-4.055908203125,0.14426875114440918,-2.9791641235351562
1783246172808848000,7.091847900390625,-3.9546430110931396,-0.12240581214427948,-2.4950032234191895
1783246172818858800,7.101858642578125,-3.7333767414093018,-0.47846704721450806,-1.8378366231918335
1783246172828870700,7.11187060546875,-3.443474292755127,-0.7019739151000977,-1.1508673429489136
1783246172838882800,7.1218828125,-3.129472255706787,-0.7659969329833984,-0.6060330867767334
1783246172848894700,7.131894775390625,-2.904703140258789,-0.6893234252929688,-0.24616174399852753
1783246172858906600,7.14190673828125,-2.778057336807251,-0.4542008936405182,-0.07697965204715729
1783246172868918000,7.15191796875,-2.737520456314087,-0.21091555058956146,-0.1189659833908081
1783246172878930000,7.161929931640625,-2.793625831604004,-0.05101269856095314,-0.34189143776893616
1783246172888941800,7.17194189453125,-2.982367992401123,0.02407645806670189,-0.6655171513557434
1783246172898954000,7.1819541015625,-3.2415640354156494,0.07014152407646179,-1.0096030235290527
1783246172908964900,7.19196484375,-3.490999937057495,0.075710728764534,-1.3826650381088257
1783246172918976800,7.201976806640625,-3.6223442554473877,0.07400305569171906,-1.7435622215270996
1783246172928989000,7.211989013671875,-3.6021206378936768,0.033158157020807266,-1.9818644523620605
1783246172939000800,7.222000732421875,-3.531402111053467,-0.02263037860393524,-1.9887157678604126
1783246172949012700,7.2320126953125,-3.463557243347168,-0.027570541948080063,-1.8186763525009155
1783246172959023900,7.24202392578125,-3.469663143157959,0.07121819257736206,-1.5147960186004639
1783246172969035800,7.252035888671875,-3.5160622596740723,0.2895020544528961,-1.1336963176727295
1783246172979047700,7.262047607421875,-3.5127267837524414,0.6329536437988281,-0.7938294410705566
1783246172989059800,7.272059814453125,-3.4082560539245605,0.8555697202682495,-0.5181779265403748
1783246172999071700,7.28207177734375,-3.2670981884002686,0.7206640243530273,-0.2472270131111145
1783246173009083000,7.292082763671875,-3.196570634841919,0.24639421701431274,0.0697711780667305
1783246173019095000,7.302094970703125,-3.2610836029052734,-0.35619252920150757,0.34689152240753174
1783246173029107000,7.31210693359375,-3.449303388595581,-0.8524914979934692,0.45994243025779724
1783246173039118800,7.322118896484375,-3.6674351692199707,-0.9613687992095947,0.4267772436141968
1783246173049130000,7.3321298828125,-3.821805953979492,-0.6591788530349731,0.3347756862640381
1783246173059142000,7.342141845703125,-3.8377766609191895,-0.15500280261039734,0.2857905328273773
1783246173069153800,7.35215380859375,-3.770756721496582,0.28547045588493347,0.2995353639125824
1783246173079166000,7.362166015625,-3.812211036682129,0.3959384560585022,0.333469420671463
1783246173089177900,7.372177734375,-3.9561116695404053,0.25242042541503906,0.44066697359085083
1783246173099188700,7.382188720703125,-4.049228668212891,-0.10539557039737701,0.6639415621757507
1783246173109201000,7.392200927734375,-4.0067973136901855,-0.5858479738235474,1.1383415460586548
1783246173119212800,7.402212890625,-3.96160888671875,-1.1321051120758057,1.912109375
1783246173129224700,7.412224609375,-4.0497727394104,-1.6132144927978516,2.7889962196350098
1783246173139236900,7.42223681640625,-4.179994106292725,-1.7280608415603638,3.510091543197632
1783246173149248000,7.432248046875,-4.327108383178711,-1.6912719011306763,3.769989252090454
1783246173159260000,7.442260009765625,-4.572303295135498,-1.6931647062301636,3.4843711853027344
1783246173169272000,7.45227197265625,-4.9029059410095215,-1.6818989515304565,2.741389513015747
1783246173179284000,7.462283935546875,-5.122043132781982,-1.6708340644836426,1.8568525314331055
1783246173189294800,7.472294921875,-5.138468265533447,-1.7789485454559326,1.106572151184082
1783246173199307000,7.48230712890625,-5.059054851531982,-1.987869143486023,0.4761542081832886
1783246173209319000,7.49231884765625,-4.909804821014404,-1.899448275566101,0.11120793968439102
1783246173219330800,7.502330810546875,-4.680647373199463,-1.5493181943893433,0.15631625056266785
1783246173229343000,7.512343017578125,-4.3726277351379395,-1.2930961847305298,0.5868258476257324
1783246173239353900,7.522353759765625,-3.8970589637756348,-1.2345771789550781,1.3484101295471191
1783246173249365800,7.53236572265625,-3.215130567550659,-1.473448634147644,2.122969388961792
1783246173259378000,7.5423779296875,-2.5727710723876953,-2.0734143257141113,2.4356908798217773
1783246173269389800,7.552389892578125,-2.219590425491333,-2.695244550704956,2.1371374130249023
1783246173279401700,7.562401611328125,-2.039310932159424,-3.064817428588867,1.4224923849105835
1783246173289412900,7.572412841796875,-1.8722922801971436,-2.9783780574798584,0.5748705863952637
1783246173299424800,7.5824248046875,-1.7840737104415894,-2.5401220321655273,-0.22864244878292084
1783246173309436700,7.592436767578125,-1.8513823747634888,-1.9559541940689087,-0.8517523407936096
1783246173319448800,7.60244873046875,-2.057523727416992,-1.4078956842422485,-1.320015549659729
1783246173329460000,7.6124599609375,-2.3654046058654785,-1.0463955402374268,-1.7262877225875854
1783246173339472000,7.622471923828125,-2.699415445327759,-0.783991813659668,-2.031975269317627
1783246173349484000,7.632484130859375,-2.9647133350372314,-0.6048029065132141,-2.1858770847320557
1783246173359496000,7.642495849609375,-3.1020936965942383,-0.53718101978302,-2.186384916305542
1783246173369507800,7.6525078125,-3.1227009296417236,-0.46204817295074463,-2.0115561485290527
1783246173379518700,7.662518798828125,-3.0215697288513184,-0.3722543716430664,-1.6619584560394287
1783246173389530600,7.672530517578125,-2.8644216060638428,-0.37655964493751526,-1.2480829954147339
1783246173399542800,7.682542724609375,-2.6730241775512695,-0.5119784474372864,-0.8519480228424072
1783246173409554700,7.6925546875,-2.426274061203003,-0.6211071014404297,-0.48174285888671875
1783246173419566600,7.702566650390625,-2.1817033290863037,-0.6947308778762817,-0.15189886093139648
1783246173429577500,7.712577392578125,-1.987801194190979,-0.6758384108543396,0.15866141021251678
1783246173439589600,7.722589599609375,-1.8955386877059937,-0.6247869729995728,0.3462442457675934
1783246173449601500,7.7326015625,-1.877819299697876,-0.6142570972442627,0.40358665585517883
1783246173459613700,7.74261376953125,-1.906875729560852,-0.6756019592285156,0.3964085876941681
1783246173469624800,7.752624755859375,-1.9839752912521362,-0.804836630821228,0.2965286076068878
1783246173479636700,7.76263671875,-2.0695960521698,-0.8669849038124084,0.10889372229576111
1783246173489648600,7.772648681640625,-2.1446049213409424,-0.8140566945075989,-0.1372864991426468
1783246173499660800,7.782660888671875,-2.150493860244751,-0.6811953186988831,-0.3579975366592407
1783246173509672700,7.792672607421875,-2.117741107940674,-0.5947384834289551,-0.49111858010292053
1783246173519683600,7.80268359375,-2.1034624576568604,-0.6308364272117615,-0.5345375537872314
1783246173529695700,7.81269580078125,-2.074130058288574,-0.7261936068534851,-0.4854046106338501
1783246173539707600,7.822707763671875,-1.9766587018966675,-0.8045857548713684,-0.36851224303245544
1783246173549719600,7.832719482421875,-1.8505221605300903,-0.8443629741668701,-0.23098526895046234
1783246173559730700,7.842730712890625,-1.7682543992996216,-0.8409671783447266,-0.06934947520494461
1783246173569742600,7.85274267578125,-1.7528347969055176,-0.8098891377449036,0.12906160950660706
1783246173579754500,7.86275439453125,-1.78190016746521,-0.7805626392364502,0.35066208243370056
1783246173589766700,7.8727666015625,-1.8223165273666382,-0.7586362957954407,0.5314785242080688
1783246173599778600,7.882778564453125,-1.8354637622833252,-0.7209804058074951,0.5982347726821899
1783246173609789700,7.892789794921875,-1.8146958351135254,-0.6903951168060303,0.5557842254638672
1783246173619801900,7.9028017578125,-1.7295805215835571,-0.6485894918441772,0.5361040830612183
1783246173629813800,7.912813720703125,-1.5991122722625732,-0.6566151976585388,0.6525646448135376
1783246173639825700,7.92282568359375,-1.4933034181594849,-0.7342800498008728,0.9132672548294067
1783246173649837800,7.932837890625,-1.4316951036453247,-0.8524977564811707,1.1829745769500732
1783246173659848700,7.9428486328125,-1.4449347257614136,-1.0221500396728516,1.3993771076202393
1783246173669860600,7.952860595703125,-1.5348718166351318,-1.1152669191360474,1.5600876808166504
1783246173679872800,7.962872802734375,-1.6365307569503784,-0.9956532120704651,1.6148390769958496
1783246173689884700,7.972884765625,-1.7732478380203247,-0.8267065286636353,1.3750059604644775
1783246173699895600,7.9828955078125,-1.9315142631530762,-0.8058388233184814,0.8798835873603821
1783246173709907700,7.99290771484375,-2.000136613845825,-0.7912356853485107,0.41954952478408813
1783246173719919600,8.002919677734376,-1.9658228158950806,-0.7053070068359375,0.17327527701854706
1783246173729931500,8.012931640625,-1.8373159170150757,-0.5773703455924988,0.14442232251167297
1783246173739943700,8.022943603515625,-1.6248747110366821,-0.7936673760414124,0.21966442465782166
1783246173749954800,8.032954833984375,-1.2925630807876587,-1.378135323524475,0.49911871552467346
1783246173759966700,8.042966796875,-0.9599828124046326,-2.0823473930358887,0.936052143573761
1783246173769979000,8.052978759765624,-0.7739559412002563,-2.735187292098999,1.158499836921692
1783246173779990800,8.06299072265625,-0.7099040150642395,-2.9571847915649414,0.9950454235076904
1783246173790002700,8.073002685546875,-0.757753312587738,-2.7262096405029297,0.41578951478004456
1783246173800013800,8.083013916015625,-0.8766935467720032,-2.1858232021331787,-0.39201733469963074
1783246173810025700,8.093025634765626,-0.9426107406616211,-1.5126514434814453,-1.0586289167404175
1783246173820037600,8.10303759765625,-0.9155966639518738,-1.0899829864501953,-1.2546802759170532
1783246173830049800,8.1130498046875,-0.8429032564163208,-0.9968134164810181,-1.0244486331939697
1783246173840060700,8.123060791015625,-0.7483171820640564,-1.2305896282196045,-0.5985446572303772
1783246173850072600,8.133072509765626,-0.6854268908500671,-1.581092357635498,-0.129124715924263
1783246173860084700,8.143084716796874,-0.7097967863082886,-1.8886909484863281,0.22135095298290253
1783246173870096600,8.1530966796875,-0.8599855303764343,-1.9493924379348755,0.3426659107208252
1783246173880108500,8.163108642578125,-1.0924797058105469,-1.6502234935760498,0.17665351927280426
1783246173890119700,8.17311962890625,-1.3339226245880127,-1.1633683443069458,-0.17563794553279877
1783246173900131600,8.183131591796876,-1.580142617225647,-0.7146252393722534,-0.5707217454910278
1783246173910143500,8.1931435546875,-1.7891740798950195,-0.38063690066337585,-0.8754265308380127
1783246173920155600,8.20315576171875,-1.9389013051986694,-0.22957593202590942,-1.0043787956237793
1783246173930166800,8.213166748046875,-1.9964196681976318,-0.25579291582107544,-0.945229709148407
1783246173940178700,8.2231787109375,-1.9331583976745605,-0.34070923924446106,-0.7320953011512756
1783246173950190800,8.23319091796875,-1.7837013006210327,-0.4731237292289734,-0.3879941403865814
1783246173960202800,8.24320263671875,-1.6043059825897217,-0.6483277678489685,0.061583854258060455
1783246173970214700,8.253214599609375,-1.4576945304870605,-0.750966489315033,0.5213608145713806
1783246173980225800,8.263225830078126,-1.3601802587509155,-0.7956850528717041,0.8865695595741272
1783246173990237700,8.27323779296875,-1.3125126361846924,-0.8786424994468689,1.141006588935852
1783246174000249600,8.28324951171875,-1.3669270277023315,-1.0037572383880615,1.2207754850387573
1783246174010261800,8.29326171875,-1.4089230298995972,-1.069265365600586,1.1926569938659668
1783246174020273700,8.303273681640626,-1.4594496488571167,-1.0976111888885498,1.1551127433776855
1783246174030284500,8.313284423828126,-1.4247454404830933,-1.3181172609329224,0.9220984578132629
1783246174040296700,8.323296630859375,-1.3465240001678467,-1.2120261192321777,0.5852199196815491
1783246174050308600,8.33330859375,-1.275949239730835,-0.6528290510177612,0.2941659688949585
1783246174060320500,8.343320556640625,-1.1857835054397583,-0.06413745135068893,0.16159281134605408
1783246174070331600,8.35333154296875,-1.093605399131775,0.26262229681015015,0.03776540979743004
1783246174080343800,8.36334375,-1.0340018272399902,0.32021674513816833,-0.015816044062376022
1783246174090355700,8.373355712890625,-0.9973703026771545,0.05362662672996521,0.09051811695098877
1783246174100368000,8.383367919921875,-0.9236451983451843,-0.4970274567604065,0.3203837275505066
1783246174110379800,8.3933798828125,-0.8150026202201843,-1.070115327835083,0.5131345391273499
1783246174120390700,8.403390625,-0.7549585103988647,-1.5164520740509033,0.5722334980964661
