time,seconds_elapsed,z,y,x
1783246165780571400,0.0635712890625,-6.670307199993729,-8.313862926805019,2.1933402112461624
1783246165790582800,0.073582763671875,-4.000912049651146,-8.961030950018763,4.266335256451368
1783246165800594700,0.0835947265625,-2.1620593761891125,-9.717004800388217,5.199753585916757
1783246165810606600,0.093606689453125,-1.2539660421162844,-10.454220758795737,5.161954308876395
1783246165820618800,0.10361865234375,-0.12208207283616065,-10.244892948704956,4.193376695485413
1783246165830630700,0.113630615234375,1.7198118680179117,-9.04688435613215,2.132178178796917
1783246165840641500,0.1236416015625,3.3327743036448956,-7.395458042076229,-0.2966832913301885
1783246165850653700,0.13365380859375,3.443627126458287,-5.356697128775716,-2.321845887389034
1783246165860665600,0.14366552734375,3.1931133194983006,-2.7645412854582068,-4.416965086118877
1783246165870677500,0.153677490234375,3.0015479605913162,-0.5851730470716953,-6.435645042160153
1783246165880689700,0.163689697265625,2.897165795096755,1.3208353462964295,-6.206373345193266
1783246165890700500,0.173700439453125,2.940594017934799,3.0317730029851195,-3.303370806767046
1783246165900712400,0.18371240234375,2.4877719242572782,4.48278312768042,0.17653116364330051
1783246165910724600,0.193724609375,0.8312894958555698,5.829439143931865,2.1084981741324067
1783246165920736500,0.203736572265625,-1.56701550796628,7.319987498289346,2.5291505210891363
1783246165930747400,0.213747314453125,-3.211365015503764,8.132215150800347,2.1034324151754378
1783246165940759600,0.223759521484375,-3.029058483329415,8.262699725800752,1.1698963045492767
1783246165950771500,0.233771484375,-0.5289899720788002,7.411946820062399,0.0358498965382576
1783246165960783400,0.243783447265625,3.03837459320724,5.382395049133897,0.1738461623430252
1783246165970795500,0.25379541015625,6.537530130141973,4.453635943651199,2.4632985772579907
1783246165980806700,0.263806640625,9.490551083451509,4.949917239826918,5.392256517934799
1783246165990818600,0.273818603515625,11.003425835907459,5.720345732006431,7.9889552653789515
1783246166000830700,0.283830810546875,11.206145041513443,6.254490602630376,9.65918389506042
1783246166010842600,0.293842529296875,10.344636933004855,6.7754702867329115,9.827056828212738
1783246166020854500,0.3038544921875,8.468143972456454,7.049989823180437,8.988481851524114
1783246166030865700,0.31386572265625,7.448128140512108,8.02491271394491,8.22488057501614
1783246166040877600,0.323877685546875,7.3121934834122655,9.075787210011482,7.356765615588426
1783246166050889500,0.333889404296875,8.108582346278428,9.322970995765925,6.728992613196373
1783246166060901600,0.343901611328125,9.288543240985273,8.807544854137301,6.375808705356717
1783246166070912500,0.35391259765625,10.066872131025791,8.292274195331334,6.343017611867189
1783246166080924400,0.36392431640625,10.657947680139541,8.432059098118543,7.47373195284605
1783246166090936600,0.3739365234375,11.981513328182697,8.968615121537447,8.780939171284437
1783246166100948500,0.383948486328125,13.664058418601751,9.25664003624618,9.777941207388043
1783246166110960400,0.39396044921875,14.588413151645659,9.382177802494168,10.824499009299277
1783246166120971800,0.4039716796875,12.86091014460325,9.326479880669712,11.776036348301172
1783246166130983700,0.413983642578125,10.936706169331073,9.282100056195258,12.393776616978645
1783246166140995600,0.42399560546875,11.000727682864666,10.188002602225541,10.583428153467178
1783246166151007700,0.4340078125,12.5187041423738,9.567549567458032,5.601406048849225
1783246166161018600,0.4440185546875,14.296395367908477,6.695265115639567,2.164718366265297
1783246166171030500,0.454030517578125,14.011207137930393,5.917193999752402,2.0701164210289718
1783246166181042700,0.464042724609375,11.644956145495176,6.968522084805369,3.4298324098616835
1783246166191054600,0.4740546875,6.8804960108280175,7.784939590221643,3.9122184516757725
1783246166201066500,0.48406640625,0.5558101744651794,8.3072385402292,2.346565464234352
1783246166211077400,0.494077392578125,-3.847184546229243,7.7052195722967385,0.2119973215609789
1783246166221089500,0.504089599609375,-5.972483340775966,6.056766721093655,-1.765774577769637
1783246166231101400,0.514101318359375,-7.008779860913753,4.4558696940526366,-3.352470937761664
1783246166241113600,0.524113525390625,-6.427264751827717,2.484948975791037,-5.256545732718706
1783246166251125500,0.53412548828125,-4.7165176492750644,-1.1693138284862041,-7.810646862930059
1783246166261136600,0.54413671875,-5.021125449994206,-2.989291705608368,-8.97832461464703
1783246166271148800,0.554148681640625,-8.509009066808224,-1.6120535040885209,-9.475772031992673
1783246166281160700,0.56416064453125,-11.504912884032725,1.4402455695748329,-11.189537605583666
1783246166291172600,0.574172607421875,-12.901370749807358,3.9645863522946834,-12.161042212337255
1783246166301183500,0.58418359375,-13.177399521774053,5.92014466625154,-11.594348240286111
1783246166311195600,0.594195556640625,-12.227236978256702,8.293785184416175,-11.65335806313753
1783246166321207600,0.60420751953125,-11.88637070019841,11.515326726019381,-11.797640277343987
1783246166331219700,0.6142197265625,-12.068477325886487,15.194229173773527,-10.881538993382453
1783246166341231600,0.624231689453125,-11.781245607382058,18.106286833053826,-9.950843366879225
1783246166351242500,0.634242431640625,-11.319704785197972,20.81673470927477,-9.393306514751911
1783246166361256400,0.64425634765625,-11.144822850066422,22.62550496368408,-7.4873653414011
1783246166371268600,0.6542685546875,-11.579679078942537,22.070880199611185,-3.3651293438047167
1783246166381280500,0.664280517578125,-10.660454110002517,20.877796203958987,-0.46461482280194755
1783246166391292400,0.67429248046875,-9.26898513855636,21.021200466287134,-0.32693361429572104
1783246166401303600,0.684303466796875,-8.478231651228667,21.221483384656906,-0.8009265062958002
1783246166411315500,0.6943154296875,-7.279856563431024,21.465869648647306,-1.6838675711944697
1783246166421327400,0.704327392578125,-8.296007536640763,21.313091993296144,-2.215320718516409
1783246166431339500,0.714339599609375,-11.675689137411117,20.3359514264822,-2.4662077427029607
1783246166441350400,0.724350341796875,-15.700606332027911,19.334356801891325,-3.6061186588332057
1783246166451362300,0.7343623046875,-18.949965854883192,16.945287243926526,-5.43766802354455
1783246166461374500,0.74437451171875,-20.6056661929965,13.37998311830163,-7.985883018326759
1783246166471386400,0.754386474609375,-22.5320282230854,9.549218960997461,-10.365565154743194
1783246166481398300,0.764398193359375,-23.406409841692447,5.17089690926671,-11.476489922624825
1783246166491409700,0.77440966796875,-19.42039842405319,-2.3428736239790915,-11.931049215358495
1783246166501421600,0.784421630859375,-12.005517304104567,-9.89100352294445,-12.838600113117694
1783246166511433500,0.79443359375,-4.191327654001117,-14.69137902060151,-13.056604566138981
1783246166521445600,0.804445556640625,1.6042729332149028,-16.174237404978275,-12.029748074519633
1783246166531457500,0.81445751953125,2.8359365426301952,-15.40957522124052,-10.199638094961642
1783246166541468400,0.824468505859375,1.213889467793703,-14.225690431088209,-7.912009972864389
1783246166551480600,0.83448046875,-0.12732932583987713,-13.966168557286261,-5.3191749151110645
1783246166561492500,0.844492431640625,-1.2295143224269152,-12.983292661690712,-3.1654478984594343
1783246166571504400,0.85450439453125,-1.5726285255424677,-11.291452504181862,-1.3830731912836431
1783246166581516500,0.8645166015625,0.6351983300872147,-11.645588598179817,0.0024739888980984687
1783246166591527400,0.87452734375,3.551692948901653,-12.56318508913517,0.1950724902451038
1783246166601539300,0.884539306640625,5.866019108310342,-13.429619548130034,-0.8612059106916189
1783246166611551500,0.894551513671875,6.47636342151761,-14.141300667786597,-1.6511188555419445
1783246166621563400,0.9045634765625,5.8890708980739115,-14.109119230628012,-1.8324404683321713
1783246166631574300,0.91457421875,5.172649305891991,-12.6985650349617,-1.2137211254894733
1783246166641586400,0.92458642578125,3.0385224772453308,-11.083183847755192,-0.03295709770619869
1783246166651598300,0.934598388671875,0.4698772733747959,-8.511542969200015,2.1033096655786037
1783246166661610200,0.9446103515625,-1.820924802583456,-5.483381142449379,4.925049340552091
1783246166671622400,0.954622314453125,-4.5821699691057205,-2.971303044453263,7.720119619786739
1783246166681633500,0.964633544921875,-6.658308719164133,-2.620101834863424,9.02308613191545
1783246166691645400,0.9746455078125,-6.8229562605291605,-4.058483364132046,9.196144358751177
1783246166701657600,0.98465771484375,-4.818459435880184,-4.005053971761465,8.482918347740172
1783246166711669500,0.99466943359375,-1.3228025547161697,-5.127606633594632,6.384911464744806
1783246166721681400,1.004681396484375,1.5700339790046214,-7.735286793780326,4.77920820646584
1783246166731692500,1.014692626953125,2.6667712315797805,-8.35203746689856,3.9219682767957447
1783246166741704400,1.024704345703125,1.7492872610881924,-8.15815214061141,3.5326597471296783
1783246166751716400,1.03471630859375,-0.48390550646632907,-7.184004325872659,4.598548272454738
1783246166761728500,1.044728515625,-2.4827812763631343,-5.134999666455387,6.362154274013638
1783246166771739400,1.054739501953125,-4.008453551071882,-2.531125912815332,8.675878960397839
1783246166781751300,1.064751220703125,-3.309628405857086,0.07238134559988975,10.721438447797297
1783246166791763500,1.074763427734375,-2.6241502334713935,-5.052067116224766,8.123516296038032
1783246166801775400,1.084775390625,-1.2560504471749065,-7.909366764879226,5.59360151257813
1783246166811787300,1.094787353515625,0.23237726176679133,-6.966746891826391,2.3466893828749655
1783246166821798400,1.10479833984375,-1.1965332593232392,-4.411140033227205,2.037401899906993
1783246166831810600,1.114810546875,-3.26527079321444,-2.821191393440962,1.112806051583588
1783246166841822500,1.124822509765625,-6.716045453339815,-2.323911149355769,0.26604689165651796
1783246166851834600,1.134834716796875,-5.971733399191498,-0.2698971373438835,-0.7257245503172278
1783246166861846500,1.144846435546875,-4.598754608681798,2.8415046981513497,-2.019484842683375
1783246166871857400,1.154857421875,-6.096644557973742,6.890503025579452,-1.4721093190863728
1783246166881869600,1.16486962890625,-8.218616838446259,11.848976496827602,-0.6293988500282168
1783246166891881500,1.174881591796875,-6.176940914481878,14.281571892786026,-0.24379502009898424
1783246166901893400,1.184893310546875,-3.3810984818309544,15.376050552779436,0.9913324660345911
1783246166911904300,1.194904296875,-2.9889392389088867,17.806206154370308,1.0937354404106736
1783246166921916400,1.20491650390625,-3.127425334057212,19.282683897799252,0.7798977467924356
1783246166931928300,1.21492822265625,-2.8224089525371787,19.465633404052255,1.3210057344272732
1783246166941940500,1.2249404296875,1.4183610700249671,20.20234608911276,1.149015429084003
1783246166951952400,1.234952392578125,6.4884899126410485,19.925415984392163,0.24314561627954243
1783246166961963500,1.244963623046875,7.397102302151918,17.00885166134238,-0.39413770338818427
1783246166971975400,1.254975341796875,5.790959483411908,14.547097975438833,-0.6923316915422678
1783246166981987600,1.264987548828125,4.5560710667312145,14.585124631494283,-1.8120957455702125
1783246166991999500,1.27499951171875,4.150741961112618,14.69947231068611,-2.259827968762815
1783246167002011600,1.28501171875,2.7131694101393222,13.863624713134765,-2.716078867845237
1783246167012022500,1.2950224609375,-0.6431663863569498,13.340467100471257,-4.271836776477098
1783246167022034400,1.305034423828125,-4.780804535746574,13.255606212526558,-5.7633367324709885
1783246167032046600,1.315046630859375,-7.526808293995261,12.730505649101733,-5.670632729810476
1783246167042058500,1.32505859375,-7.862077774959802,11.728225964856147,-3.869436710047722
1783246167052069400,1.3350693359375,-7.0318655529469245,10.075077649313211,-1.8740955440178513
1783246167062081300,1.345081298828125,-6.243000071322918,7.796829934501647,-0.10672755957692862
1783246167072093400,1.355093505859375,-5.220353890874981,5.693164879614114,1.9668509846046567
1783246167082105300,1.365105224609375,-3.2803415210962292,2.8010259727686644,3.7788165279239414
1783246167092117500,1.375117431640625,-0.8286345974326134,-0.3409253147691488,4.907880763608217
1783246167102128400,1.38512841796875,-0.10751228021383284,-3.1737843496501443,4.660729126557707
1783246167112140500,1.395140625,-1.3363710613414646,-6.036858490052819,3.129824796414375
1783246167122152400,1.40515234375,-3.133077952991426,-8.0489950158,1.6738430207863448
1783246167132164400,1.415164306640625,-4.578153134679794,-8.403590544003247,1.6437234845936297
1783246167142176500,1.425176513671875,-5.3136242952466,-7.947612616643309,2.226608712989092
1783246167152187400,1.4351875,-5.56001196218729,-7.462473476728796,2.742306657296419
1783246167162199600,1.445199462890625,-5.512757459059357,-7.569476053854823,3.2914252251684664
1783246167172211500,1.45521142578125,-4.277886578035354,-8.529259827676414,3.2810967233777046
1783246167182223600,1.4652236328125,-2.680795665279031,-9.012428544300795,3.0513854659497737
1783246167192235500,1.475235595703125,-1.9402613761037586,-8.5558812926203,3.033040538702905
1783246167202246400,1.485246337890625,-0.9781965056076646,-8.216139634677766,2.8932272866040467
1783246167212258300,1.49525830078125,0.43178295891061425,-8.219376716902852,2.563818222105503
1783246167222270500,1.5052705078125,1.4694780937999485,-8.036224966076016,1.8643799134284256
1783246167232282400,1.515282470703125,2.0400167585805056,-7.653001309281587,0.9636991936996578
1783246167242293200,1.525293212890625,2.1011238459721207,-7.530325946727395,0.319346812428534
1783246167252305400,1.535305419921875,1.823819062720239,-7.6906082786202425,0.015189385825395583
1783246167262317300,1.5453173828125,1.3898534990735352,-7.794247516793012,-0.06327507908046245
1783246167272329200,1.5553291015625,0.9237947610735893,-8.142452467176318,-0.2023930423915386
1783246167282341400,1.56534130859375,0.8286473838489502,-8.70403830243349,-0.4397857942327857
1783246167292352500,1.5753525390625,1.0902741209756581,-9.50897813602388,-0.8651701381474732
1783246167302364400,1.585364501953125,1.3574030357152223,-10.045843371522427,-1.22013362288028
1783246167312376600,1.59537646484375,1.243071138614416,-10.493021321833133,-1.5755387139007448
1783246167322388500,1.605388427734375,0.5561491971611976,-10.816370647901296,-2.248484736971557
1783246167332400400,1.615400390625,-0.7910837421953678,-10.981288822901249,-2.921582443472743
1783246167342411500,1.62541162109375,-2.424354806357622,-11.221118154239655,-3.6292671869695186
1783246167352423400,1.63542333984375,-4.02775914004445,-11.527860044378041,-4.24136038967073
1783246167362433800,1.645433837890625,-5.6233682898104185,-11.715150210183857,-4.740952125568688
1783246167372445700,1.65544580078125,-7.124886950993537,-11.432867053997516,-4.941842069920897
1783246167382457900,1.665457763671875,-7.93468591505289,-10.238812752008437,-4.287051589004695
1783246167392468700,1.67546875,-7.960158209961652,-8.940435321235656,-3.187962512606382
1783246167402480600,1.685480712890625,-7.526316711086034,-8.121463455161452,-2.311844571726024
1783246167412492800,1.695492919921875,-7.445079858857393,-7.474187295398115,-2.214923535892367
1783246167422504700,1.705504638671875,-8.376900105476379,-6.485310698083043,-3.2330022622942924
1783246167432515600,1.715515625,-9.102305214580893,-4.898747024559975,-4.944042794835567
1783246167442527700,1.72552783203125,-9.939619377553463,-2.4990508586406706,-7.685132477557659
1783246167452539600,1.73553955078125,-10.968439862722159,1.813749796387553,-10.148519317620993
1783246167462551600,1.745551513671875,-9.903845468860863,6.343246159926056,-11.212689348590374
1783246167472563700,1.755563720703125,-7.122601470404863,10.277199473547935,-10.772024141174555
1783246167482574600,1.76557470703125,-4.4944232965916395,13.9245096822083,-9.240551071232558
1783246167492586500,1.77558642578125,-1.8837366480663418,17.85953793158531,-7.316431267112493
1783246167502598700,1.7855986328125,0.2482701196864247,22.1953623193264,-4.403676273217797
1783246167512610600,1.795610595703125,1.3536200100451707,25.23548872463703,-0.37814182348549363
1783246167522622500,1.80562255859375,2.015794755993783,25.89323951666355,2.138674993470311
1783246167532633900,1.8156337890625,3.2269621053472157,26.504282333528995,2.6042560309559106
1783246167542645800,1.825645751953125,4.287818481723964,25.293573833858964,2.8770582420915365
1783246167552657700,1.83565771484375,4.605411436222493,21.361710185992717,2.1737387080669404
1783246167562669800,1.845669921875,4.041783573743701,17.479958768773077,0.0348258141875267
1783246167572681700,1.855681640625,3.3728061620429157,15.218277573359012,-2.5201906773030758
1783246167582692600,1.865692626953125,2.72051246637851,14.639593888306617,-4.609513903105259
1783246167592704800,1.875704833984375,1.4284943415045737,14.059261851525306,-5.8267450825423
1783246167602716700,1.885716552734375,0.03286182063817978,12.58505906729102,-5.755313000491261
1783246167612728600,1.895728515625,-0.9953168594956397,10.651208142751456,-5.274110030981898
1783246167622739700,1.90573974609375,-2.203953813588619,8.523141637057066,-5.223147905507683
1783246167632751600,1.915751708984375,-3.6693794171273706,6.474743711361288,-4.983168352043628
1783246167642763500,1.925763427734375,-4.848938453035056,4.712556344428658,-4.106850796937942
1783246167652775700,1.935775634765625,-5.649274299961328,2.5303701260119675,-2.681695828989148
1783246167662787600,1.94578759765625,-6.261939749592543,-0.6947545347750187,-1.3978805920541286
1783246167672798700,1.955798828125,-6.011725802361965,-4.531406581073999,-0.02395195347368717
1783246167682811000,1.965810791015625,-5.845977606278658,-8.020919844916463,0.4932523037433624
1783246167692822800,1.97582275390625,-4.186404810646176,-9.659869539237022,-1.7261790649622677
1783246167702834700,1.985834716796875,0.36137072142660615,-9.029328825697302,-2.687293210604787
1783246167712846800,1.995846923828125,3.3208389511793848,-8.809046490871905,-2.6532459795743226
1783246167722857700,2.005857666015625,2.2472566564813254,-11.141553034615516,-2.810326885077357
1783246167732869600,2.01586962890625,0.7265463880941271,-13.510304611694812,0.6474690519869327
1783246167742881800,2.0258818359375,0.07152443650960921,-13.136052781385182,4.891767248675227
1783246167752893700,2.035893798828125,-0.16383739402592182,-9.837522108125686,5.929732578808069
1783246167762905600,2.045905517578125,0.2766790525689721,-7.971186968976259,4.925583009037375
1783246167772916700,2.055916748046875,0.7341624160557985,-8.400741584312915,4.034561221274734
1783246167782928600,2.0659287109375,1.2515633648887277,-8.491750473493337,3.502999352881312
1783246167792940500,2.0759404296875,1.4137354560509323,-8.424599429762363,3.032466245946288
1783246167802952700,2.08595263671875,0.4492170549228787,-8.586362940123676,3.3237346726208923
1783246167812964600,2.095964599609375,-0.5606587835401297,-7.828669426354765,4.0196038906395435
1783246167822975700,2.105975830078125,-1.025775710645318,-6.869031198483705,4.730205398365855
1783246167832988000,2.11598779296875,-2.3218445722147822,-6.523889727324247,5.6620472722947595
1783246167842999800,2.125999755859375,-5.5257016963064665,-5.965927343261241,7.330899352926015
1783246167853011700,2.13601171875,-8.383475392213464,-5.038557061788439,9.074249332919717
1783246167863022800,2.14602294921875,-5.0816965308129785,-4.8772144071877,8.38723211439848
1783246167873034800,2.15603466796875,-1.2229837516143918,-4.507162951177358,6.349763578996062
1783246167883046700,2.166046630859375,0.18100041801184416,-4.241943157994747,5.211270420709252
1783246167893058800,2.176058837890625,0.41966450496315955,-4.717118537777662,5.380021890261769
1783246167903070700,2.18607080078125,0.2560685184776783,-7.618687536269426,5.11145980091393
1783246167913081600,2.19608154296875,1.2408105002060532,-7.457476983615756,4.202855302448571
1783246167923093800,2.20609375,1.873836893081665,-7.903315794277191,2.558888949009776
1783246167933105700,2.216105712890625,2.302482576879859,-8.503960551247,1.2973062944099307
1783246167943117600,2.22611767578125,2.2447265534818173,-8.718679406726359,0.713530839176476
1783246167953129700,2.236129638671875,1.8520359801620243,-8.1886612606436,0.043217794957756996
1783246167963140600,2.246140625,0.6810860749065876,-7.171859714570641,-0.6523726061195134
1783246167973152500,2.256152587890625,-0.4517968422830105,-6.339608680206537,-1.2804232564091682
1783246167983164700,2.26616455078125,-2.3016776902377605,-4.88336883816421,-1.7751280970484018
1783246167993176600,2.276176513671875,-5.124826647487282,-2.201497068086266,-2.6768103950351474
1783246168003187700,2.286187744140625,-8.27061181409955,0.9165233087658882,-4.843976154452562
1783246168013200000,2.296199951171875,-11.87659866324663,4.365110687980056,-7.184276128551364
1783246168023211800,2.306211669921875,-15.236638574957846,8.614120131099224,-8.24854728180766
1783246168033223700,2.3162236328125,-16.575923185658453,12.978658572149277,-10.175013356792926
1783246168043235800,2.32623583984375,-15.74046371064186,16.896547470676897,-12.194214998620748
1783246168053246700,2.336246826171875,-14.388209728252887,19.304202486646176,-12.78030925219059
1783246168063258600,2.346258544921875,-11.182661290073394,20.053543182611463,-11.473936731010674
1783246168073270800,2.356270751953125,-5.418712563183903,19.762469986248014,-9.330309668090939
1783246168083282700,2.36628271484375,-0.4607002797067165,18.23533640681505,-6.846776112055778
1783246168093294600,2.376294677734375,1.2487030070215464,15.562209084206819,-5.302351790603995
1783246168103305500,2.386305419921875,-0.8784107279926539,11.66962180019617,-5.958118715336918
1783246168113317600,2.396317626953125,-3.1701439473211765,8.59165344774723,-7.730074612089991
1783246168123329500,2.40632958984375,-3.519821892866492,7.4857193277597425,-9.111695558738708
1783246168133341700,2.416341796875,-2.584814248383045,7.140538109111786,-8.811227926564216
1783246168143353600,2.426353515625,-1.2004010406672954,6.72118398527205,-6.8281251875996585
1783246168153364700,2.43636474609375,1.0670096383094787,6.118145611163974,-4.893648240116239
1783246168163377000,2.446376953125,3.2248890984654426,4.981557994237542,-4.007540527880192
1783246168173388800,2.456388916015625,4.096274457865953,3.5364661536753177,-3.7264194012105465
1783246168183400700,2.466400634765625,4.745837851783633,2.352482871584594,-3.8788586183875795
1783246168193412900,2.476412841796875,5.3143321512550115,0.8707048297904432,-4.32532052938342
1783246168203423700,2.486423828125,4.994143335044384,-0.9523984858758747,-4.087895336577296
1783246168213435600,2.496435546875,4.685528636771441,-2.4697820940583943,-3.3379759639412163
1783246168223447800,2.50644775390625,4.387219059413671,-4.10125136949569,-2.6414427290558815
1783246168233459700,2.516459716796875,3.8423119717568155,-5.180615754726529,-2.027022544711828
1783246168243471600,2.5264716796875,4.209164923986792,-4.614388231143355,-2.7531863632291556
1783246168253482500,2.536482421875,3.8359471129000187,-5.7371589196413755,-2.0407482877254486
1783246168263494700,2.54649462890625,3.0539538551330563,-7.902931763395666,0.2352151155412197
1783246168273506600,2.556506591796875,2.6196459077894687,-8.119989875477552,1.8689847768753767
1783246168283518700,2.566518798828125,2.1859517084300517,-6.8633736111134285,3.155281893754005
1783246168293529900,2.57652978515625,1.9908932467103004,-5.27901007798314,4.437421306431293
1783246168303541800,2.586541748046875,2.093659209179878,-4.00360903365016,5.279966940316558
1783246168313553700,2.5965537109375,2.7737404909580943,-3.3665172910317778,5.649634365445375
1783246168323565800,2.60656591796875,3.0597113957464694,-2.9137703084170816,5.333187073850631
1783246168333577700,2.61657763671875,2.651844880604744,-2.436923196029663,4.722855035603046
1783246168343588600,2.626588623046875,2.3921809679836032,-2.3001677240662275,4.698627772319316
1783246168353600800,2.636600830078125,2.1588485974490643,-2.2226649437993764,4.954048056021333
1783246168363612700,2.64661279296875,1.9071166468709706,-1.8705781835466622,4.667660971647501
1783246168373624800,2.656624755859375,1.6680138762414454,-1.5077328595228492,3.4035791937083
1783246168383636700,2.66663671875,1.4545786308318376,-1.1744419851548968,2.752403103896975
1783246168393647600,2.676647705078125,1.3720108222603797,-0.5177447938345372,2.167964800840616
1783246168403659500,2.686659423828125,1.913083738581836,-0.4609202060677111,1.7752964393526314
1783246168413671700,2.696671630859375,2.3095798416644335,-0.9407500605929643,1.757298425847292
1783246168423683600,2.70668359375,2.5074083526194095,-0.8519966221891343,2.224208081588149
1783246168433695700,2.71669580078125,2.853880780121684,-0.4431529325783252,3.466156353652477
1783246168443706600,2.72670654296875,2.9398399846971035,0.6561760900557041,4.543504430624842
1783246168453718800,2.73671875,2.284039157694578,1.7107796896480023,5.477973145925998
1783246168463730700,2.746730712890625,-12.185226221001148,2.688363177923858,10.998141758024692
1783246168473742800,2.756742919921875,-3.647441141563654,3.07556304487288,7.130335864049195
1783246168483754800,2.766754638671875,-3.8728012180447577,2.5705674041047692,4.388420251896977
1783246168493765600,2.776765625,-2.518412561714649,3.50167891793251,3.076720398214459
1783246168503777800,2.78677783203125,2.3965596214592457,3.752185126107931,2.15764448235631
1783246168513789700,2.796789794921875,6.489934850752353,-1.744670414942503,8.478457276678085
1783246168523801900,2.8068017578125,2.827438763397932,-1.3635235644221304,12.451316951799392
1783246168533812700,2.816812744140625,-4.848907181113958,2.0752637207895517,11.478448070955276
1783246168543824600,2.82682470703125,-5.645266233363747,2.0108669442027804,8.14502144088149
1783246168553836500,2.83683642578125,-6.150817462188005,3.556325869399309,2.428110944020748
1783246168563848700,2.8468486328125,-6.993233916735648,5.908051492875814,-3.197195912636816
1783246168573860600,2.856860595703125,-3.757105046853423,9.032832449904083,-3.8517137140914794
1783246168583871500,2.86687158203125,-1.6651269226282834,12.832722160995006,-0.7955743316128849
1783246168593883600,2.876883544921875,-0.3422363973677158,14.882469747734069,0.5266806722231209
1783246168603895600,2.8868955078125,-0.34642975740432735,12.772994545263051,-4.896707627686858
1783246168613907500,2.896907470703125,-4.511342867210507,12.004010406672954,-11.521564743626117
1783246168623919600,2.906919677734375,-5.400191987109184,12.11563772099018,-11.445843439948558
1783246168633930800,2.9169306640625,-2.078353503498435,9.021471682456136,-6.738202340090274
1783246168643942700,2.926942626953125,0.5306821629494428,7.077822417479753,-4.270592037113011
1783246168653954800,2.936954833984375,0.7969242849171161,7.5108935165047646,-4.666883265273273
1783246168663966700,2.946966796875,-1.4122972399413585,7.299903910681605,-7.140432310649752
1783246168673979000,2.956978759765625,-5.530677146631479,6.97187665593028,-10.002060343897343
1783246168683989800,2.96698974609375,-8.553972244128584,7.150888822734355,-13.521338046884535
1783246168694001700,2.977001708984375,-9.270789557629824,7.191095745438337,-15.431739122253655
1783246168704013600,2.987013671875,-8.74449130885303,5.907949786067008,-16.273900725257395
1783246168714025700,2.997025634765625,-8.073846548461914,3.8443700733304023,-17.142843952202796
1783246168724037600,3.00703759765625,-6.288648308297992,1.4446163320049643,-16.533699662435055
1783246168734048500,3.017048583984375,-3.00795607406795,-1.9266298872448502,-15.44142698805332
1783246168744060700,3.027060791015625,-0.6240162802070379,-4.885009006586671,-13.488140710681677
1783246168754072600,3.037072509765625,0.6621253538489341,-7.512007030704617,-10.14906526106596
1783246168764084500,3.04708447265625,1.1202186659276485,-9.059370328217744,-5.681568549844623
1783246168774096600,3.0570966796875,1.0234621730059386,-8.786953901529312,-1.8577128567546606
1783246168784107800,3.067107666015625,0.01936930185854435,-6.9650693140029905,1.0154793575584888
1783246168794119700,3.07711962890625,-1.314728261592984,-4.585243969723582,3.175592275854945
1783246168804131800,3.0871318359375,-2.523936878094077,-2.947605942523479,4.842504328334331
1783246168814143700,3.097143798828125,-3.465136947476864,-2.5330145030409095,5.972609012982249
1783246168824154600,3.107154541015625,-3.3401644138962028,-2.8034403404340145,6.512260664328933
1783246168834166800,3.117166748046875,-2.970055090218782,-3.4527214102789756,6.274864113095402
1783246168844178700,3.1271787109375,-1.9017898988902568,-3.0231387378916144,7.386358205297589
1783246168854190600,3.137190673828125,-0.8032096487969159,-2.744441915759444,8.27656107789278
1783246168864202800,3.14720263671875,0.7445885330021381,-3.174356012058258,8.325774313873053
1783246168874213600,3.157213623046875,1.3849948069959879,-3.350834276470542,8.433960547825693
1783246168884225500,3.1672255859375,1.5380623852044344,-3.407796226881444,8.14151664763093
1783246168894237700,3.17723779296875,2.263117950218916,-3.5504894183307885,7.064416992461681
1783246168904249600,3.18724951171875,2.756525152263045,-3.743431326287985,5.930261571118235
1783246168914261500,3.197261474609375,2.3310966769456862,-3.561609362760186,5.722307387468218
1783246168924273000,3.20727294921875,1.5049147333621977,-3.162842684397101,6.029517479640245
1783246168934284800,3.217284912109375,0.7347013452380895,-2.9442788439273833,6.339291284820437
1783246168944296700,3.227296630859375,0.6966530618727207,-3.022593086707592,6.441480908706784
1783246168954308900,3.237308837890625,1.3679858045279978,-3.3220784298464654,6.315477863034606
1783246168964320800,3.24732080078125,2.0761632999777793,-3.6884997126609087,6.1761938955068585
1783246168974331600,3.25733154296875,2.4201386499673125,-3.856324715018272,6.179153914356231
1783246168984343800,3.26734375,2.5605168424725533,-3.8001732042074203,6.583841799461841
1783246168994355700,3.277355712890625,2.584168351694941,-3.6150559985265134,6.636535863295197
1783246169004367600,3.28736767578125,2.5295968035519123,-4.045811806346475,6.0619905932217835
1783246169014379800,3.2973798828125,2.1435282787203787,-4.760128242942691,5.911707092773914
1783246169024390700,3.307390625,1.8043875092804431,-5.11056489790082,6.63806088090539
1783246169034402600,3.317402587890625,1.7595014888495206,-5.0073067680001255,7.521576823082566
1783246169044414700,3.327414794921875,2.336281970629096,-4.6157232791394,7.949118345031142
1783246169054426600,3.337426513671875,2.9150772993624208,-3.8935032298117873,8.551020993107556
1783246169064437500,3.3474375,3.161149909004569,-3.3743127672135826,9.499635138139128
1783246169074449700,3.35744970703125,1.8840093275278806,-2.984538081340492,11.332072099339962
1783246169084461600,3.367461669921875,-2.0340262859940528,-2.4744243669062853,13.402815712356567
1783246169094473700,3.3774736328125,-5.5189130590796465,-2.4761416922181843,12.549273468160628
1783246169104485600,3.387485595703125,-7.8710081003904335,-2.734168066765368,8.270191542860864
1783246169114496800,3.397496826171875,-12.068560327994822,-2.149767465370893,3.128263538447022
1783246169124508700,3.4075087890625,-17.37012242952585,-0.7429480723187327,-2.536304776757955
1783246169134520800,3.417520751953125,-18.736540546345708,2.1932703608803448,-7.832207537353038
1783246169144532700,3.42753271484375,-14.252415940928458,5.8197214675158255,-10.683469074887036
1783246169154544600,3.437544677734375,-13.014372859609127,8.094689430004358,-11.560427265983819
1783246169164555800,3.4475556640625,-12.676467769443988,8.824908076870441,-12.907010216999053
1783246169174567700,3.457567626953125,-12.624743427425622,10.195191052424907,-14.597433493447303
1783246169184579600,3.46757958984375,-12.864938669466971,12.112069799375533,-14.786201330590247
1783246169194591700,3.477591796875,-13.022773608207702,13.204676820278166,-13.971670077311991
1783246169204603600,3.487603759765625,-12.825531372708081,12.795184165239334,-13.980567669516802
1783246169214614500,3.497614501953125,-12.016841831195354,11.427473085999488,-13.853715898060798
1783246169224626700,3.507626708984375,-10.354185682594775,9.813610486662387,-11.605102274012564
1783246169234638600,3.517638671875,-7.81364721378982,8.647239725890755,-8.54153887901306
1783246169244650500,3.527650390625,-6.290856631997228,8.345930966717004,-8.146496774131059
1783246169254662700,3.53766259765625,-6.142255970069765,7.782394581913947,-10.403795224416255
1783246169264673800,3.547673828125,-6.912858649772406,6.288985577428341,-12.16498773509264
1783246169274685700,3.557685791015625,-7.95238582239449,5.732271732121705,-10.614152962076663
1783246169284697900,3.56769775390625,-8.797063792133331,4.630172075730562,-8.54187381005585
1783246169294709800,3.577709716796875,-7.131683187004923,2.786746395264566,-7.905825731271505
1783246169304721700,3.5877216796875,-4.209033406561613,1.5733623927749691,-6.542438944971561
1783246169314732800,3.59773291015625,-0.9596697920531034,-0.5776444051325321,-3.8741386041283605
1783246169324744700,3.60774462890625,1.7160674207925795,-2.4860855786055325,0.39737668530941006
1783246169334756600,3.617756591796875,3.541978195095062,-3.872471547698974,5.326711740356683
1783246169344768800,3.627768798828125,4.368489809024334,-4.759689559264481,9.329269803649186
1783246169354779600,3.637779541015625,3.961293155968189,-4.837995034216344,10.17691071484685
1783246169364791000,3.647791015625,2.3913754968196153,-4.30355644134283,9.074637455454468
1783246169374803200,3.65780322265625,0.4774363104522228,-3.3989670237377285,7.280512981513142
1783246169384815000,3.667815185546875,-1.4606921452760695,-2.2940737911053,6.227725929823517
1783246169394827000,3.677826904296875,-1.5028016867309808,-2.1612001290112732,5.643025760960579
1783246169404838400,3.68783837890625,0.08102934695780277,-2.5329981364279983,6.0788406057357784
1783246169414850300,3.697850341796875,1.8779934282392263,-2.8177210869818925,6.885823927852511
1783246169424862200,3.7078623046875,3.878020413997769,-2.553970781829953,6.3900821453809735
1783246169434874400,3.717874267578125,5.649338597369193,-1.8133954299919306,5.744045756545662
1783246169444886300,3.72788623046875,6.610356881421804,-0.9906804318666458,5.3271261663764715
1783246169454897200,3.737897216796875,7.224820320385694,-0.5718916868247091,5.694034648185968
1783246169464909300,3.747909423828125,7.762839402094483,-0.44014454454258084,6.85218060144782
1783246169474921200,3.757921142578125,8.184002036660909,-0.3421256304696202,7.340295542302727
1783246169484933000,3.76793310546875,8.023913181513548,0.27995032932460306,6.2746817422658205
1783246169494945300,3.7779453125,8.415641047281026,0.4940874393932521,5.965711070162057
1783246169504956200,3.7879560546875,8.873172633823751,-0.3008559008397162,5.772899510586261
1783246169514968000,3.797968017578125,8.507100018316507,-1.4692502763934432,4.928029817667603
1783246169524980200,3.807980224609375,8.265324229085445,-1.974574126202613,4.266217475290596
1783246169534992100,3.8179921875,8.92463101838231,-1.6147859977923333,4.018708403104544
1783246169545003300,3.828003173828125,10.471920081615448,-0.9944624346233903,3.9588244277670976
1783246169555015400,3.838015380859375,12.008407180327175,-0.5497029436312616,4.3150595398709175
1783246169565027300,3.84802734375,13.059528344631195,-0.40648704348206516,4.983552967447042
1783246169575039200,3.858039306640625,13.846241032135486,-0.752225896012783,5.421668490380048
1783246169585051400,3.868051513671875,13.896051649487017,-1.100033517641574,5.249097754800319
1783246169595062300,3.878062255859375,13.01994452226162,-1.0678908050581812,4.2671176390007135
1783246169605074200,3.88807421875,11.375975538474322,-1.0101960103280843,3.5819197448611257
1783246169615086300,3.89808642578125,9.824195009040832,-1.0879378600478171,3.087067604705691
1783246169625098200,3.90809814453125,8.320413079100847,-1.025995783136785,1.9993372499287128
1783246169635110100,3.918110107421875,7.217109307616949,-1.1787393900878727,1.0358341633230448
1783246169645121300,3.928121337890625,6.641224897894263,-1.8161065886467693,0.6720315385743976
1783246169655133200,3.93813330078125,6.317295141589641,-2.4175753753505647,0.1805985592126846
1783246169665145000,3.94814501953125,5.600169200530648,-2.634030406972766,-0.9545131399422884
1783246169675157200,3.9581572265625,3.156407098391652,-2.353620643442869,-1.7628861628517507
1783246169685169200,3.968169189453125,-0.44205929212272166,-1.265643620428443,-1.7798866897523402
1783246169695180300,3.97818017578125,-3.2057869231104847,0.9428017324257641,-3.1816616588965054
1783246169705192400,3.9881923828125,-5.698698548343778,3.168904176393151,-5.10800819915533
1783246169715204400,3.998204345703125,-8.158379519626498,4.721015545216202,-6.918046866065263
1783246169725216300,4.00821630859375,-10.891238549619912,5.9644677921026945,-8.354068680465222
1783246169735228400,4.018228515625,-13.157657879471778,6.307495632109045,-7.741773817712068
1783246169745239300,4.0282392578125,-14.683138431000708,6.951625310540199,-6.847424931353331
1783246169755251200,4.038251220703125,-16.83722200600505,8.55633137447536,-6.5217696664303535
1783246169765263400,4.048263427734375,-20.07818896356821,10.330484489011765,-6.233474118086695
1783246169775275300,4.058275146484375,-23.816727841639516,10.65693996440172,-5.506645113658904
1783246169785287200,4.068287109375,-27.3836931784749,10.02992567142248,-5.245898081976175
1783246169795298300,4.07829833984375,-27.70680752674341,10.943486623251438,-6.849283710962534
1783246169805310200,4.088310302734375,-25.053978311276435,11.282629730778932,-8.779375575229524
1783246169815322000,4.098322021484375,-21.134960116457936,8.666501475721597,-10.722224045217036
1783246169825334300,4.108334228515625,-16.53633702520132,4.603835565207898,-13.050208727622032
1783246169835345200,4.11834521484375,-12.396873413950203,0.2775781568331644,-14.684951617902517
1783246169845357000,4.128357177734375,-10.736257246744632,-3.1997853446081277,-14.942059416300058
1783246169855369200,4.138369140625,-8.688026494309305,-2.9987381638675927,-13.99681270187497
1783246169865381000,4.148381103515625,-5.6608641999900335,-1.036447034524381,-12.046977441740035
1783246169875393300,4.158393310546875,-4.136871256670355,0.6827250012200325,-7.90370742394328
1783246169885404400,4.168404296875,-1.7205577179491518,-0.757434862832725,-1.9239467856407164
1783246169895416300,4.178416259765625,2.2467905002743005,-3.175230749066174,0.5125637379348278
1783246169905428200,4.18842822265625,4.982021520096064,-5.314822565120458,2.7951842610031363
1783246169915440400,4.1984404296875,5.864371925625204,-6.974952410113811,4.219949060590565
1783246169925452300,4.208452392578125,5.112141353437305,-8.06678610855639,3.648587388989329
1783246169935463200,4.218463134765625,4.065653694152831,-8.610719967266917,3.4176974431708453
1783246169945475300,4.228475341796875,2.5504034447371957,-10.03313469659686,6.131670863169432
1783246169955487200,4.2384873046875,1.1277823791801929,-11.029733997118472,6.390432273992896
1783246169965499100,4.2484990234375,1.2853618818551302,-9.099728642091154,3.213435392037034
1783246169975511300,4.25851123046875,2.1753262695193287,-6.993542544293403,1.2066741295874117
1783246169985522200,4.268522216796875,2.883327239358425,-5.0395957571864125,-0.8995265812575817
1783246169995534000,4.2785341796875,3.3125539379149673,-3.198617762133479,-2.024564337904751
1783246170005546200,4.288546142578125,2.7491093230485912,-1.881508596753329,-0.48892158106267447
1783246170015558100,4.29855810546875,2.742536374399066,-2.1757063548780975,2.8229131026670333
1783246170025570000,4.308570068359375,3.847598387727141,-2.9402105715751645,6.761303814214467
1783246170035581400,4.31858154296875,5.01666028727889,-2.1061390437856313,8.65470757755339
1783246170045593300,4.32859326171875,5.7151236134439705,0.4441058493889868,8.050477363312243
1783246170055605200,4.338605224609375,6.427699636113643,2.7919875107884407,6.695292588168383
1783246170065617400,4.348617431640625,7.058873386859894,3.857005098497867,6.381607162502408
1783246170075628300,4.358628173828125,7.354235220327973,2.9517379277616738,6.378370664799213
1783246170085640200,4.36864013671875,7.31403122023344,1.268636664764583,4.92160066140294
1783246170095652400,4.37865234375,7.519689401900767,0.23477305259583517,2.9188509726822374
1783246170105664300,4.388664306640625,8.090220760157704,0.4598896574435755,1.2919330769389867
1783246170115676200,4.39867626953125,8.472903734204172,1.211893910062313,0.5346054738730192
1783246170125687000,4.40868701171875,8.384647943124175,1.9064394782617686,0.8642243817299604
1783246170135699200,4.41869921875,8.127203460118174,1.9834087361738084,1.2991858245462178
1783246170145711000,4.428711181640625,8.063750101861357,2.285874556428194,1.4846297779634594
1783246170155723300,4.43872314453125,7.80749278281331,2.817872770412266,1.6656638059839606
1783246170165735200,4.448735107421875,8.232774543136358,3.4130291590988633,1.6238137922480702
1783246170175746300,4.458746337890625,7.836599050310253,4.224913697260618,1.681492220365256
1783246170185758200,4.46875830078125,7.381994164869189,4.88857166750431,2.3253370905056596
1783246170195770400,4.478770263671875,7.0372864089518785,5.588337892961502,1.790370382104814
1783246170205782300,4.4887822265625,6.19655688457787,4.4905993543893095,-0.9349225965484976
1783246170215794400,4.49879443359375,5.678398687636852,3.0064667122930286,-3.626812195032835
1783246170225805300,4.508805419921875,4.991303143182397,1.880633129093051,-4.570709540675581
1783246170235817200,4.518817138671875,4.384607415610551,0.9643284315139055,-3.754398710504174
1783246170245829400,4.528829345703125,4.031199635887146,1.9007643552348017,-3.1463094827473164
1783246170255841300,4.53884130859375,4.111290240690112,2.081538855536282,-2.8623893730089067
1783246170265853200,4.548853271484375,3.5905326749056576,0.8886030361831188,-4.0523844627350565
1783246170275864000,4.558864013671875,0.913906988787651,0.24507658434212207,-5.413891426637768
1783246170285876200,4.568876220703125,-2.5768033758848903,0.46562107723504303,-5.77651945464909
1783246170295888100,4.57888818359375,-5.197664504683018,0.04458090000450611,-6.823557149031758
1783246170305900300,4.588900390625,-6.817469938072562,-1.5115446728959678,-8.466846333861351
1783246170315911200,4.5989111328125,-7.8250062276721,-1.7283865118786692,-8.841800759482384
1783246170325923300,4.60892333984375,-7.988903827452659,-0.4873264208257198,-7.680986463794111
1783246170335935200,4.618935302734375,-9.256741743054986,-0.7065881804317236,-5.267251251128315
1783246170345947400,4.628947509765625,-9.807485866302251,-2.257121047891676,-1.6154605360530316
1783246170355959300,4.638959228515625,-10.055948585951327,-3.8743063619107008,1.613299412496388
1783246170365970700,4.648970703125,-11.096680458188056,-4.589353450869024,2.9389073800221084
1783246170375982800,4.65898291015625,-11.885917111212015,-4.439502788880467,2.1737249718025327
1783246170385994800,4.668994873046875,-13.492504751110076,-4.368583624787628,0.9957236136656253
1783246170396006700,4.679006591796875,-14.924305148422718,-4.475372851423919,0.4320912942074239
1783246170406018800,4.689018798828125,-11.870192303335665,-3.3222686917215585,-0.5503088005699217
1783246170416029700,4.69902978515625,-8.57499691197872,-2.603226103386283,-1.3067616666279733
1783246170426041600,4.70904150390625,-8.242471176764369,-3.349600643022358,-0.609402794573456
1783246170436053800,4.7190537109375,-7.879704617065191,-3.7202290221378207,1.4401722120776772
1783246170446065700,4.729065673828125,-6.508633121481537,0.39110008925795553,3.0107790225341913
1783246170456077600,4.73907763671875,-2.307674300304055,4.352321641294658,0.6601711510412395
1783246170466088700,4.749088623046875,2.2376216899126766,6.038653556776047,-2.079081379381567
1783246170476100600,4.7591005859375,-0.17647125014960766,2.8196584847852586,-2.0738747506491837
1783246170486112500,4.769112548828125,-1.1952099017649889,-0.16978402747064827,-1.334866501997411
1783246170496124700,4.779124755859375,-0.37738779024779795,-0.9366168332457542,-2.0829342554174364
1783246170506135800,4.7891357421875,0.4268091160207987,-1.8257073606848715,-2.836300992028415
1783246170516147700,4.799147705078125,1.801211801853776,-2.1657278355687857,-2.2007520949378607
1783246170526160000,4.809159912109375,3.1419337518811226,-1.831563831628114,-0.01949190532490611
1783246170536171800,4.819171875,3.8723411993175745,-0.9116801065184176,1.7251690111368894
1783246170546183700,4.82918359375,2.904888498303294,0.08272694465592503,2.8784979195058344
1783246170556194800,4.83919482421875,0.9629191492378711,0.5158667250029743,3.6741052766054865
1783246170566206700,4.849206787109375,-0.3328554055601358,0.7014321128427982,3.460373678597808
1783246170576218600,4.859218505859375,-0.5352595538675785,0.927355376164615,2.881125053139031
1783246170586230800,4.869230712890625,0.6900789441794156,0.9209022545024752,2.6598890708506104
1783246170596242700,4.87924267578125,3.248592045614123,0.6223058230273425,2.025676829191297
1783246170606253600,4.889253662109375,6.002337211769819,0.16567790732607243,1.3191763270430266
1783246170616265700,4.899265625,8.037371798023582,0.4806001813106239,1.9513190689519047
1783246170626277600,4.909277587890625,9.106111621126532,1.0156725420430301,2.308647821511328
1783246170636289500,4.91928955078125,9.035957303926349,1.7705086205542087,2.453127896377444
1783246170646301700,4.9293017578125,8.091537687975167,2.318776416815817,2.4279509311534464
1783246170656312800,4.939312744140625,7.166183422499895,2.7042925684615966,2.3005871185220776
1783246170666324700,4.94932470703125,6.693401075333356,2.831969977086782,1.7145198990896344
1783246170676336600,4.959336669921875,6.51666679033339,2.539507372191548,0.8467701927777379
1783246170686348800,4.969348876953125,6.203638367271423,3.0362954488456246,-1.1521237703628837
1783246170696359700,4.979359619140625,7.02349929113984,3.402320718079805,-1.1074368527006357
1783246170706371800,4.989371826171875,8.369850771486758,1.9171791912019251,2.308178742694855
1783246170716383700,4.9993837890625,8.252710246706009,1.728468929465115,3.6310143228977916
1783246170726395600,5.009395751953125,8.311027995640039,2.5237904553607104,3.497953175407648
1783246170736407800,5.01940771484375,7.933366064625978,3.031936084592342,3.2709710506826637
1783246170746418700,5.029418701171875,7.169252162420749,3.082364541581273,3.2753158018887043
1783246170756430600,5.0394306640625,5.941898817420006,2.730382118485868,2.46861480384469
1783246170766442800,5.04944287109375,4.785294248381256,2.5441753640025855,0.7827779784038662
1783246170776454700,5.05945458984375,3.7541514577448365,2.3132439171299337,-0.780937245908007
1783246170786466600,5.069466552734375,3.1111656886517998,1.9329978148415683,-2.010095959830284
1783246170796477700,5.079477783203125,2.7871453314542767,1.5698568688720465,-2.6629969737380743
1783246170806489600,5.089489501953125,1.861460226589441,1.416397368736565,-2.3804312012180686
1783246170816501500,5.09950146484375,0.09732873985171317,1.3529025094255804,-2.0003686388030646
1783246170826513700,5.109513671875,-2.0489912154138086,1.3852569650635123,-1.835077100446075
1783246170836525600,5.119525634765625,-3.6923178096443414,1.2590557664707303,-2.459592708477378
1783246170846536700,5.12953662109375,-5.649890386033058,0.22122283054590225,-4.132283344358205
1783246170856548900,5.139548828125,-7.8345409487366675,-1.6011191453590987,-5.574898565673828
1783246170866560800,5.149560791015625,-9.764382637634872,-3.5993636316150424,-6.014823768377304
1783246170876572700,5.15957275390625,-11.523119571852684,-4.9485114646822215,-6.086591950514912
1783246170886583800,5.169583740234375,-12.350339626312255,-4.971129539203644,-5.431254064849019
1783246170896595700,5.179595703125,-12.147592363655566,-4.496612915590405,-2.9970737377867103
1783246170906607600,5.189607666015625,-11.282508150225878,-4.754349075019359,0.5001511233463883
1783246170916619800,5.199619873046875,-10.561346085518599,-5.798693877056241,2.6557357505634425
1783246170926631700,5.209631591796875,-11.8393190261662,-5.852564583453535,3.1075241172790524
1783246170936642600,5.219642578125,-14.209068966633081,-4.5935862661331885,2.573515732516348
1783246170946654700,5.22965478515625,-14.754786786150932,-3.8349955112636085,2.281810375729203
1783246170956666600,5.23966650390625,-11.82089138907194,-3.572473286601901,3.0000682434275743
1783246170966678500,5.249678466796875,-5.453256637820601,-3.3186113382577895,3.460260865873098
1783246170976690700,5.259690673828125,1.043840359646082,-3.7266391814410684,2.1913637966066597
1783246170986701800,5.269701904296875,4.305611620306968,-4.591106139755249,-0.2716975378293544
1783246170996713700,5.279713623046875,2.460568275511265,-4.489767579740286,-2.8150483606413004
1783246171006726000,5.289725830078125,-2.5495775153070688,-3.159519677454233,-4.181751431882382
1783246171016737800,5.29973779296875,-7.119973459988832,-1.1052110664099455,-4.179887099315226
1783246171026749700,5.309749755859375,-9.962960505652427,0.45970659249424933,-3.8382150578320022
1783246171036760800,5.3197607421875,-10.266323859268427,1.0144266336351633,-3.3221263606414198
1783246171046772700,5.329772705078125,-8.441099898186325,0.984046108418703,-2.617916307517886
1783246171056784600,5.33978466796875,-5.452521309283376,0.7404051098376512,-1.6605086151778696
1783246171066796800,5.349796875,-2.320669975477457,0.21827157952487466,-0.6727297499716282
1783246171076807700,5.3598076171875,0.8607833013653755,-0.12997078025937078,0.00917290201485157
1783246171086819600,5.369819580078125,3.856083891999721,-0.14909516744613646,0.2257666114553809
1783246171096831700,5.379831787109375,6.398940574619173,0.0835024590730667,0.38473274618312714
1783246171106843600,5.38984375,7.939858933776617,0.5824129347085952,0.6147044081129134
1783246171116855600,5.39985546875,8.17452752135098,1.2485872716873883,0.9587915479138494
1783246171126866700,5.40986669921875,7.239864160260558,2.195800025488436,1.9543150358974932
1783246171136878800,5.41987890625,6.082239016002417,3.154422646576166,3.001912994511425
1783246171146890800,5.429890869140625,5.415185558101535,3.9413200429975985,3.56286053186506
1783246171156903000,5.43990283203125,4.923085931524634,4.442272545854747,3.8188358191013334
1783246171166914800,5.449914794921875,4.44593194514513,4.690233453461528,3.8205774020716547
1783246171176925700,5.45992578125,4.0868431971758605,4.895059860479831,3.546067802496254
1783246171186937600,5.4699375,4.486211348563432,5.139663566613197,2.9895757832467553
1783246171196949800,5.47994970703125,6.28755057618916,4.761776594671606,2.0519515265241264
1783246171206961700,5.489961669921875,8.549276779788732,3.9691929693073034,1.4576841956317423
1783246171216973800,5.499973876953125,9.969871892476082,3.7975796805828805,1.6710554358944296
1783246171226984700,5.509984619140625,10.417453162890672,4.298210404139757,2.576245742002129
1783246171236996600,5.51999658203125,9.95741806909442,4.944549575313926,3.3429274488687515
1783246171247008800,5.5300087890625,8.741852192521094,5.30288370552361,3.357971288743615
1783246171257020700,5.540020751953125,7.41211165523529,4.745023612791299,2.620178407230973
1783246171267031600,5.550031494140625,6.449892178699374,4.018572794026136,1.6118037671111523
1783246171277043500,5.56004345703125,6.889433935043216,3.626903380447626,0.24774916455224155
1783246171287055600,5.5700556640625,7.221684944969415,1.9782792643308638,-1.4299667521446942
1783246171297067500,5.580067626953125,7.968945327529311,1.9949749630659817,-1.4749420582942663
1783246171307079700,5.59007958984375,7.565045377930998,3.894205240601301,0.470042985330522
1783246171317090800,5.6000908203125,6.602203970104456,6.16248393458426,2.4322125341206786
1783246171327102700,5.610102783203125,5.963599777096509,7.6212383897960185,4.216948417469859
1783246171337114600,5.620114501953125,5.220091440546512,5.187815310841798,3.7178079324707385
1783246171347126800,5.630126708984375,5.482615418773889,4.657268756970763,2.949275337040424
1783246171357138700,5.640138671875,5.4500142948985095,4.756106732341647,1.599562709697336
1783246171367150000,5.650150146484375,5.164864058843254,4.571656758397817,0.4000999727934599
1783246171377162000,5.660161865234375,4.641453348201513,4.3491433035194875,-0.13150208147987721
1783246171387174100,5.670174072265625,3.7230057933747767,4.428607300856709,-0.14711904506757856
1783246171397186000,5.68018603515625,2.8425556685090063,4.3031829318553205,-0.07999956551864743
1783246171407197000,5.690197021484375,2.372918049108982,3.507670851823687,-0.5973140051119029
1783246171417209000,5.700208984375,1.4295207619428634,1.876576547178626,-2.0668764161944386
1783246171427221000,5.710220947265625,-0.6286141293913126,-0.17090952436923978,-3.971118092150986
1783246171437233000,5.72023291015625,-3.6040105806380507,-2.0652175430715083,-5.730278512477875
1783246171447245000,5.7302451171875,-7.384927880233525,-3.928468744730949,-6.753952866929769
1783246171457256200,5.740256103515625,-11.333147619616984,-5.159425082659721,-7.025695924401282
1783246171467268000,5.75026806640625,-14.09847391797304,-5.230469626697897,-7.017323232853412
1783246171477280300,5.7602802734375,-15.81519366519451,-5.3594648399233815,-5.529096014919877
1783246171487292200,5.770292236328125,-16.75736111830473,-6.189780522310733,-2.9380805738091467
1783246171497304000,5.780303955078125,-16.41272935023308,-6.234873463490605,-0.03493395073711872
1783246171507315200,5.790315185546875,-15.385967551159858,-5.948659397596121,2.1213621857501566
1783246171517327000,5.8003271484375,-15.255614493584632,-6.3468766253829,3.4905960906431077
1783246171527339000,5.810339111328125,-16.311501849377155,-5.926067626559734,4.712389755690097
1783246171537351200,5.82035107421875,-15.71191215441823,-4.66738157018423,5.790744379356503
1783246171547363000,5.830363037109375,-11.22373681230545,-4.09223365804255,6.576158259221911
1783246171557374000,5.8403740234375,-4.232194501918554,-3.5697324634611602,7.083467729890346
1783246171567386000,5.85038623046875,3.2723838400900362,-2.3327368453681467,5.598964500916004
1783246171577398000,5.86039794921875,8.887919536578655,-1.2023726330012083,1.9560460974738
1783246171587410000,5.870409912109375,11.714489700448512,0.1625783338755369,-1.8198101193398235
1783246171597421000,5.880421142578125,11.412004298710823,2.389654079854488,-4.542943289610744
1783246171607433000,5.890432861328125,9.411758117243647,4.535201881703734,-6.0103182736516
1783246171617445000,5.900445068359375,6.1777066381573675,5.994854162538052,-5.800368532270193
1783246171627457000,5.91045703125,2.700097162598371,6.890925050383806,-4.284768154242634
1783246171637469000,5.920468994140625,-0.4558165993183851,7.023076097291708,-1.5138447665318846
1783246171647480000,5.93047998046875,-2.458124389490485,5.931567393019795,1.8242060162112115
1783246171657492200,5.9404921875,-2.5427158128440377,4.259883596093952,3.987468338449299
1783246171667504000,5.950504150390625,-0.7029770041972399,2.8028379906266925,3.311277342107892
1783246171677516000,5.96051611328125,1.7420307140886782,1.2532377278417348,1.4643781403124332
1783246171687528200,5.970528076171875,4.1302568069666625,-0.09130115012526512,1.0590393900826574
1783246171697539000,5.9805390625,5.955998069921136,-0.749471336607635,1.7588932938233017
1783246171707551000,5.990551025390625,7.04733550927937,-0.9319777752682566,3.014229455249011
1783246171717563100,6.000563232421875,6.859276697188616,-1.023061044859141,4.212094839958846
1783246171727575000,6.010574951171875,5.5628422171771525,-0.8666653451412916,4.823051439845561
1783246171737586000,6.0205859375,4.218713673576713,-0.5891634318821132,4.540015419465303
1783246171747598000,6.03059814453125,2.81155262748003,-0.5721957843378186,3.8393212655082345
1783246171757610000,6.04060986328125,1.656625051742792,-0.5858460509624331,2.731297479765117
1783246171767622000,6.050621826171875,0.6318915436267852,-0.7602228861160576,1.3501397667139767
1783246171777634000,6.060634033203125,-0.24855390506386754,-1.1657301247805356,0.34699235972315073
1783246171787645200,6.070645263671875,-0.5894149224251508,-1.608316801778227,-0.20346943945139645
1783246171797657000,6.080656982421875,-1.057954225194454,-1.787884410507977,-0.3157654468104243
1783246171807669200,6.090669189453125,-2.2156185324192044,-1.4086702816158532,0.46577246840447184
1783246171817681200,6.10068115234375,-3.4064170474827287,-0.7067964163549244,1.8456611844331026
1783246171827693000,6.110693115234375,-4.040044621121883,-0.2884331484497525,3.3039591280490157
1783246171837704200,6.1207041015625,-3.690352062529325,-0.31563542722258714,4.171910713608563
1783246171847716000,6.130716064453125,-2.2409400206804273,-0.5404893077472225,4.210795740059018
1783246171857728000,6.14072802734375,-0.5960346328258515,-0.759384316400066,3.7613054211527106
1783246171867740200,6.150740234375,0.9119827427268028,-0.8564303668528794,3.46822994505614
1783246171877752000,6.160751953125,2.538036130595207,-1.1874926053859294,3.2934929713532326
1783246171887763000,6.170762939453125,4.2533524407595396,-1.5996631013318896,2.9142782579392192
1783246171897775000,6.180775146484375,5.487890728828311,-2.143098655131459,2.0891458234086633
1783246171907787000,6.190787109375,5.999401158317923,-2.7535832535922524,1.3123083409696816
1783246171917799000,6.200798828125,6.0354199816823,-3.000444091002643,1.0078449171572923
1783246171927810000,6.21081005859375,5.659842455726862,-2.7019991968274115,1.183239770247042
1783246171937822200,6.220822265625,5.308693853107094,-2.2602149222537875,1.7083493937611578
1783246171947834000,6.230834228515625,5.436178077247739,-2.121725904496014,1.8432810112982987
1783246171957846300,6.24084619140625,5.786750341284275,-2.1497572362378237,1.6847580902934074
1783246171967858200,6.250858154296875,5.722690833827853,-1.8918033424049614,1.742299886418879
1783246171977869000,6.260869140625,5.366228927230835,-0.9283601692929864,1.8408108217924832
1783246171987881200,6.270881103515625,4.376701172530651,0.24330226814597844,1.5597952013239265
1783246171997893000,6.28089306640625,2.2072440873056647,0.6308193843506277,0.6323810807093978
1783246172007905000,6.290905029296875,0.02930500493943691,0.2720700974687934,-0.5558402773424983
1783246172017917200,6.300917236328125,-1.2054232527434825,-0.7271928693041205,-1.8472490381464362
1783246172027928000,6.310927978515625,-2.0364842005401846,-3.168430713662505,-3.7169694358199834
1783246172037940000,6.32093994140625,-3.1672014641284942,-7.126995905971527,-5.981773147168755
1783246172047952100,6.3309521484375,-6.305963600236177,-10.38483801048994,-7.957187669718265
1783246172057964000,6.340964111328125,-13.290087158799171,-9.829957225829363,-8.239506481739879
1783246172067975200,6.35097509765625,-24.96464933800697,-4.493268281337619,-6.720833856660128
1783246172077987000,6.360987060546875,-41.4402405103445,4.380417562705278,-4.943940503504872
1783246172087999200,6.370999267578125,-56.48416923253536,12.442238157808779,-4.305854781413078
1783246172098011100,6.38101123046875,-62.526082083368294,15.604344929146766,-4.305184334805608
1783246172108023000,6.39102294921875,-53.59243189222812,15.002336482608317,-3.704987906125188
1783246172118034200,6.4010341796875,-32.97139277353286,13.499141412645578,-2.3215264461763203
1783246172128046000,6.411046142578125,-12.076652449035643,10.225177025365829,-0.9903124753370881
1783246172138058000,6.42105810546875,3.4490403836786747,4.443673352563381,-1.296634094236791
1783246172148070100,6.431070068359375,12.302950098627806,-1.2665835316270588,-2.1924682507172224
1783246172158082000,6.44108203125,11.747922014451026,-2.863567769138515,-3.22541575268805
1783246172168093000,6.451093017578125,8.909115469342469,-0.9486647061750292,-5.499313455596566
1783246172178105000,6.46110498046875,6.646951458847522,1.6876181558996437,-6.347531289899349
1783246172188117000,6.471116943359375,4.649055055376887,2.3142604006960985,-5.849373678457737
1783246172198129200,6.481129150390625,3.94165263595283,1.3917939656168221,-4.7455450063169
1783246172208140000,6.49114013671875,4.405581230056286,0.025610534335672855,-3.637760874548554
1783246172218152000,6.50115185546875,5.363750554418564,-0.4209114362843334,-1.9616607224851845
1783246172228163800,6.511163818359375,6.549157439571618,0.550755667554587,0.508609447351098
1783246172238176000,6.521176025390625,8.196816510048508,1.7610303058519958,3.114643593895435
1783246172248188000,6.53118798828125,9.940559288752079,2.795584658497572,5.2371103798866265
1783246172258199000,6.541198974609375,11.429607759940623,3.7958500803112982,7.25923696925044
1783246172268211200,6.551211181640625,13.12203243933916,4.478702872629463,9.784880066740513
1783246172278223000,6.56122314453125,15.172301419603823,4.516922713169455,12.272754866850375
1783246172288235000,6.571235107421875,16.83037491658926,3.869277135571837,13.461995046555995
1783246172298247200,6.5812470703125,17.14308243713379,2.876469044026732,13.040972112721205
1783246172308258000,6.591258056640625,16.08595004971623,2.2789942953951656,11.390956834506987
1783246172318270000,6.60127001953125,13.960716137099265,1.8904561655797063,9.224047095677257
1783246172328282000,6.6112822265625,11.638702930319308,1.266717679400742,6.913045112255215
1783246172338294000,6.6212939453125,9.600842765250801,0.3712967798963189,4.573235259760916
1783246172348305000,6.631304931640625,7.659576596018671,-0.40391536636315284,2.5811340985655784
1783246172358317000,6.641317138671875,5.2407613036096095,-0.6319407165307551,1.049897759988904
1783246172368328700,6.65132861328125,2.71183085501194,-0.6383556250743567,0.10176409195065497
1783246172378340900,6.6613408203125,0.8037246125817299,-0.36288171051144597,-0.184497612477839
1783246172388352800,6.671352783203125,-0.1530325068950653,-0.03505297400690615,0.29300650251358745
1783246172398364000,6.681364013671875,-0.25775077247619627,0.1341637749698013,1.0517600467294455
1783246172408375800,6.691375732421875,0.1994131497979164,0.3444180522557348,1.9284239310547708
1783246172418388000,6.701387939453125,1.0952075587898493,0.49700369216613466,2.6127529334053397
1783246172428399900,6.71139990234375,2.1157453687816856,0.4503496391493827,3.174012605448067
1783246172438412000,6.721412109375,3.027555677551031,0.4285777331285178,3.4121588060051202
1783246172448423000,6.7314228515625,3.675454937648773,0.4480994125371799,3.3565789576023817
1783246172458434800,6.741434814453125,4.162417785859108,0.26772015863098203,3.3713626852363348
1783246172468447000,6.751447021484375,4.765061607691646,0.12395265248101203,3.22367241615206
1783246172478459000,6.761458984375,5.4645034235000605,0.1663914441565983,3.259439018321037
1783246172488469800,6.7714697265625,5.903674008443951,0.2750450398926623,3.3346576331734656
1783246172498481700,6.781481689453125,6.237965584287047,0.46816224961783737,3.11759046100229
1783246172508493800,6.791493896484375,6.543688068249821,0.3475155068144202,2.3042039938449856
1783246172518505700,6.801505615234375,6.453147965624928,-0.024627587712928653,1.6255162122517823
1783246172528518000,6.811517822265625,6.072349490150809,0.039791875629685815,1.3088757361724972
1783246172538529000,6.821529052734375,5.665370279237628,0.4189595715641975,0.48305210450738667
1783246172548541000,6.831541015625,4.058604360163212,0.7967376032385974,-0.16881386726424097
1783246172558552800,6.841552734375,1.632150535699725,1.6027347638621925,0.08580766727551817
1783246172568565000,6.85156494140625,-2.3475585669249295,2.6550229261189697,-0.23165727692916988
1783246172578577000,6.861576904296875,-7.477161342772841,3.989717870941758,-0.9135757110066711
1783246172588587800,6.871587890625,-12.311544908493756,4.60050408269763,-1.4888719455778598
1783246172598600000,6.881599853515625,-14.953708937561512,4.175401770594716,-2.728530060878396
1783246172608611800,6.89161181640625,-14.028380391049383,2.500191260847449,-4.928448335340619
1783246172618624000,6.9016240234375,-11.286023464870452,-0.5039569453701377,-5.268289362004399
1783246172628636000,6.911635986328125,-7.378791569435596,-4.123660477441549,-5.311415387025475
1783246172638646800,6.921646728515625,-6.595244652485847,-6.156363990399241,-6.548207006978989
1783246172648658700,6.93165869140625,-12.46288347095251,-4.744134554997086,-6.787361800056695
1783246172658670800,6.9416708984375,-23.86028641285896,-0.4586019922532141,-6.289561916011571
1783246172668682800,6.951682861328125,-35.33922548220158,5.5320916896045205,-5.087890709277987
1783246172678694000,6.96169384765625,-41.6575189871788,10.53403722283244,-2.4789865602552887
1783246172688706000,6.9717060546875,-38.98066358395815,11.186381187379359,1.922377052105963
1783246172698718000,6.981718017578125,-28.908385794496535,8.793496455040573,4.618475208196044
1783246172708729900,6.991729736328125,-18.08207476733923,4.57879493971467,3.9099031604707237
1783246172718742000,7.001741943359375,-9.336233212921023,-0.026561697580665348,1.227362405090034
1783246172728753000,7.0117529296875,-2.258544066432118,-3.3261744669884443,-1.3280312491498887
1783246172738764800,7.021764892578125,3.612717618706822,-5.24803275591731,-2.4667928491145372
1783246172748777000,7.03177685546875,8.054487183475494,-6.454595241823792,-2.5274662212640044
1783246172758788900,7.041788818359375,10.30445572926402,-6.586804156398773,-1.9866873194530605
1783246172768799700,7.0517998046875,10.425637638390064,-5.585606422170996,-0.952978039329499
1783246172778812000,7.06181201171875,10.113986933422089,-3.66141764446795,0.34049875992015
1783246172788823800,7.07182373046875,9.118080291339755,-1.6648261861160396,1.6023538017205894
1783246172798835700,7.081835693359375,7.869219463407993,-0.09043854194656013,2.936903346723318
1783246172808848000,7.091847900390625,6.8333245098084205,1.464250860670954,4.47995842564851
1783246172818858800,7.101858642578125,5.86352319984138,2.8133754589930176,5.686405468481778
1783246172828870700,7.11187060546875,4.995897485235333,3.434472344622016,6.388742421209812
1783246172838882800,7.1218828125,4.911649760752916,3.4575714806586504,6.913841815590858
1783246172848894700,7.131894775390625,5.850441599950194,3.1915257580459118,6.6968579377889625
1783246172858906600,7.14190673828125,7.034371982809901,2.6543244224607943,5.799373091492057
1783246172868918000,7.15191796875,8.65603268867731,2.1764977975167334,4.921892922347784
1783246172878930000,7.161929931640625,10.687385371547936,1.8022464055985212,4.058252185724675
1783246172888941800,7.17194189453125,12.330276496970653,1.3693046320416034,2.8953832955941556
1783246172898954000,7.1819541015625,13.238397888094186,0.8965630552768706,1.6638956272676586
1783246172908964900,7.19196484375,13.409181155735254,0.7513687677267938,0.8672891761280596
1783246172918976800,7.201976806640625,13.046715624809265,1.1531003603100776,0.5399268150262534
1783246172928989000,7.211989013671875,12.04616846344471,2.048660668285191,0.8626588859789073
1783246172939000800,7.222000732421875,10.130575664651394,2.8590456155389545,0.9138115655891597
1783246172949012700,7.2320126953125,7.50125942671895,3.174993433178961,0.18466946191340683
1783246172959023900,7.24202392578125,4.9671518677443265,2.947565025991201,-0.7449037364311516
1783246172969035800,7.252035888671875,2.67175135807991,2.528962889562547,-1.8500605884358285
1783246172979047700,7.262047607421875,1.3148486731022595,2.541096102687716,-2.5505101199820635
1783246172989059800,7.272059814453125,1.1421160249590874,2.880840975500643,-2.3316320989966393
1783246172999071700,7.28207177734375,2.068555163061619,2.926554386666417,-1.7225762181647122
1783246173009083000,7.292082763671875,3.3402900861024856,2.3232164450898765,-1.6580856258146464
1783246173019095000,7.302094970703125,4.135937775212526,1.6293632430687546,-2.610173146045208
1783246173029107000,7.31210693359375,4.283253658026457,1.2111663995053619,-4.284841219478845
1783246173039118800,7.322118896484375,3.827872527515888,1.1100326413474977,-5.709318142035603
1783246173049130000,7.3321298828125,2.5438304960876703,1.696312334486842,-6.363629022741318
1783246173059142000,7.342141845703125,0.8360346445560455,3.0106559806764124,-6.163784495788812
1783246173069153800,7.35215380859375,-0.5432692573219537,4.334610335776209,-5.575897513583302
1783246173079166000,7.362166015625,-1.2791326320767402,4.731783022946119,-5.778896120652556
1783246173089177900,7.372177734375,-1.9597861607849596,4.439615309344232,-6.9269760224521155
1783246173099188700,7.382188720703125,-3.516377305370569,4.5678363233268255,-7.381193954402208
1783246173109201000,7.392200927734375,-6.215018423941731,5.779753029742837,-6.87254651312828
1783246173119212800,7.402212890625,-9.807702139401435,7.4587991721302265,-6.845696500125527
1783246173129224700,7.412224609375,-13.025323292690516,8.25569130834341,-7.763170826005935
1783246173139236900,7.42223681640625,-14.919063156116009,7.654473135399818,-8.922434385120868
1783246173149248000,7.432248046875,-14.906813915395736,6.49031362093687,-9.14634367827177
1783246173159260000,7.442260009765625,-12.46560734295845,4.958293438506126,-9.236227362814546
1783246173169272000,7.45227197265625,-9.960215590858459,3.2997683983609076,-9.156702575200796
1783246173179284000,7.462283935546875,-8.852240904954074,2.0838179063841697,-7.673346178174018
1783246173189294800,7.472294921875,-9.756955702504515,1.9512264222323894,-4.678806635040044
1783246173199307000,7.48230712890625,-11.916260811549424,2.599070445011556,-1.4921348928965628
1783246173209319000,7.49231884765625,-15.136002610254288,2.3844337148576975,0.607666472300142
1783246173219330800,7.502330810546875,-20.377026948714256,2.850022351127863,2.0865927779249844
1783246173229343000,7.512343017578125,-24.551001901376246,5.176494290882348,3.4256995478406544
1783246173239353900,7.522353759765625,-25.76502347111702,7.055612923759222,5.363991961959004
1783246173249365800,7.53236572265625,-23.755883789098263,7.654536263763904,8.22075794212818
1783246173259378000,7.5423779296875,-17.937732931900022,7.857291125205159,9.933847808414697
1783246173269389800,7.552389892578125,-9.979913978540896,6.939474269497394,9.00993848105073
1783246173279401700,7.562401611328125,-2.6251275540709496,4.54416318679452,7.208382395803928
1783246173289412900,7.572412841796875,1.8412229097247124,2.707638079497218,5.736272199934721
1783246173299424800,7.5824248046875,3.8525007728159424,2.3944787235319613,4.23020654297173
1783246173309436700,7.592436767578125,4.463526054024696,2.600122292152047,2.3488592742599543
1783246173319448800,7.60244873046875,4.705688212224841,2.4341636681884524,0.5926861991807818
1783246173329460000,7.6124599609375,5.30036616974473,2.147434638509154,-0.5305357402160763
1783246173339472000,7.622471923828125,5.943454230168461,2.1580045478403567,-1.027544620013982
1783246173349484000,7.632484130859375,5.880514082130789,2.633472188568115,-0.5997820026606321
1783246173359496000,7.642495849609375,5.36819584338963,3.6035844641804693,0.49655909020379185
1783246173369507800,7.6525078125,4.528748175519705,4.87020189807713,1.8042805417746304
1783246173379518700,7.662518798828125,3.33134807023406,5.996417174071073,2.8666292025357483
1783246173389530600,7.672530517578125,2.3798341121077535,6.649221741867065,3.8078988300234076
1783246173399542800,7.682542724609375,2.309634786722064,6.825527572321891,4.5911119849741455
1783246173409554700,7.6925546875,2.688234875369072,6.978880981734394,5.3145040006905795
1783246173419566600,7.702566650390625,3.045120560336113,7.2245321510940785,5.697276991108059
1783246173429577500,7.712577392578125,3.4624873097509146,7.234827335137129,5.3234957009196275
1783246173439589600,7.722589599609375,4.047794212335348,6.950384955090284,4.281949005168676
1783246173449601500,7.7326015625,5.273960977900028,6.2796583616346116,3.107486415617168
1783246173459613700,7.74261376953125,6.392759840157628,5.605119516414404,2.4473548659339546
1783246173469624800,7.752624755859375,7.296394441255926,5.183175376081467,1.9954642078876494
1783246173479636700,7.76263671875,8.143468366220594,4.865282269592583,1.5626426997095346
1783246173489648600,7.772648681640625,8.460954937735199,4.644407521831989,1.1453859865404665
1783246173499660800,7.782660888671875,8.208139283573628,4.554562415733933,1.0837963763289153
1783246173509672700,7.792672607421875,7.4375214063018555,4.852912617363035,1.2229497032143175
1783246173519683600,7.80268359375,6.5162289834380145,5.028901344692707,0.9600488544985651
1783246173529695700,7.81269580078125,5.695020736613869,4.893422906927764,0.6541111203499138
1783246173539707600,7.822707763671875,4.650546170717478,4.836486090958118,0.7498892697587609
1783246173549719600,7.832719482421875,3.8071605788767338,4.967490305918455,0.8447782152429223
1783246173559730700,7.842730712890625,3.268462282732129,4.968738844674825,0.5288248081123456
1783246173569742600,7.85274267578125,2.792796489083767,4.670784072104096,-0.21594288084898142
1783246173579754500,7.86275439453125,2.4598966598600147,4.1747777934774755,-0.9302484672576189
1783246173589766700,7.8727666015625,2.4221213482171295,3.496052310222387,-1.2241398628469555
1783246173599778600,7.882778564453125,2.7420348546177147,2.909227988812327,-1.2765218650564552
1783246173609789700,7.892789794921875,3.0942320895075794,2.731115985718369,-1.2534652529872954
1783246173619801900,7.9028017578125,2.8401106134444474,2.66753637073338,-0.8314739855770021
1783246173629813800,7.912813720703125,1.6542109763383865,2.5613503706872462,-0.28230516708875075
1783246173639825700,7.92282568359375,0.13453823430538175,2.3162229329407213,-0.2029152213684283
1783246173649837800,7.932837890625,-1.2845020501554012,1.6008026267558335,-0.7250678399741649
1783246173659848700,7.9428486328125,-2.357551553151011,0.42143385272324085,-1.4894986991740762
1783246173669860600,7.952860595703125,-3.586317103037238,-1.3494786724567414,-2.1965496748119593
1783246173679872800,7.962872802734375,-4.989950559529662,-3.2538620949715376,-2.3845501808442173
1783246173689884700,7.972884765625,-5.660235254436731,-4.6544075223207475,-2.394279986089468
1783246173699895600,7.9828955078125,-5.1214948727160685,-4.566086264789104,-2.8932334240838884
1783246173709907700,7.99290771484375,-5.267029717332124,-3.43383053958714,-2.6376234630286692
1783246173719919600,8.002919677734376,-7.156517184010148,-2.7829659999430176,-1.5880812384791672
1783246173729931500,8.012931640625,-9.850441210931539,-3.301580708479881,-0.24866134749371557
1783246173739943700,8.022943603515625,-11.79118364855051,-3.9228298620611426,1.257008478552103
1783246173749954800,8.032954833984375,-12.504831099843978,-3.5522330471277237,2.921227930946648
1783246173759966700,8.042966796875,-13.41386902129054,-3.5838515897065397,4.578053765958547
1783246173769979000,8.052978759765624,-13.307550334775447,-4.474807326495648,4.6196246704921125
1783246173779990800,8.06299072265625,-11.91375087455511,-5.263940519145131,3.1616952679276467
1783246173790002700,8.073002685546875,-10.754286239910124,-5.6765019141048185,1.2176860835976897
1783246173800013800,8.083013916015625,-9.802927764606475,-6.194298876518011,-0.6463325953029095
1783246173810025700,8.093025634765626,-9.855144274055958,-5.982832885354757,-1.8004491469182073
1783246173820037600,8.10303759765625,-11.184469800800084,-4.6792023563593625,-1.5668790221050382
1783246173830049800,8.1130498046875,-12.132326989984511,-3.066543287593126,-0.3778632257398218
1783246173840060700,8.123060791015625,-11.54394024156332,-1.8922598540008067,0.8063340644277632
1783246173850072600,8.133072509765626,-9.561872106343507,-1.1340928775012493,1.3751689940303564
1783246173860084700,8.143084716796874,-7.109557864436507,-1.0026023403286932,1.0874586251635103
1783246173870096600,8.1530966796875,-4.240285453915596,-1.3667372657716272,0.08516542384922504
1783246173880108500,8.163108642578125,-1.5822370424956083,-2.0519962424486873,-0.9480170559212565
1783246173890119700,8.17311962890625,0.8724117798388004,-2.198588487163186,-1.4087258111953735
1783246173900131600,8.183131591796876,2.9193431401133534,-1.5888269422799348,-1.3245578739508985
1783246173910143500,8.1931435546875,4.264006521242857,-0.8799299003839492,-0.8258845680721104
1783246173920155600,8.20315576171875,4.757302079606056,0.20572131003141403,-0.06684300069510936
1783246173930166800,8.213166748046875,4.624849419403076,1.7131377970814703,0.8402147797849029
1783246173940178700,8.2231787109375,4.074045674923062,3.0278999609440564,2.0622142696022987
1783246173950190800,8.23319091796875,3.399089481073618,4.250208882036805,3.1770740388453005
1783246173960202800,8.24320263671875,3.054780953606963,5.210306544113159,3.821806067083776
1783246173970214700,8.253214599609375,3.0592133830964565,5.571914581426978,3.9427281562298533
1783246173980225800,8.263225830078126,3.6117169172316785,5.6018917865395546,3.589879763954878
1783246173990237700,8.27323779296875,4.964010062587261,5.466645696225762,3.1918989752724767
1783246174000249600,8.28324951171875,6.705548024722933,5.194770536807179,2.6090233914881944
1783246174010261800,8.29326171875,8.337918925175071,4.65703319464922,2.1174127174720168
1783246174020273700,8.303273681640626,9.23189137943685,4.626429382070898,2.224518754972517
1783246174030284500,8.313284423828126,10.037089571702479,4.713576335126161,2.386343201740831
1783246174040296700,8.323296630859375,10.658588316130638,4.882807112628221,2.6420076694622634
1783246174050308600,8.33330859375,9.076357703375816,5.436777796706557,2.0236217963576317
1783246174060320500,8.343320556640625,7.2856526824891565,5.823731872200965,1.390695648986101
1783246174070331600,8.35333154296875,6.986278690770268,5.941544597154856,1.4130686627052724
1783246174080343800,8.36334375,7.536579161903262,6.187676828029751,1.127590363739431
1783246174090355700,8.373355712890625,7.56537738636434,6.28505057606697,1.1505744950942693
1783246174100368000,8.383367919921875,7.684245757851004,6.392658133348823,1.3610641885712742
1783246174110379800,8.3933798828125,7.670231261023878,6.743659436452388,1.690394634875655
1783246174120390700,8.403390625,7.56045337396562,6.514333963471651,1.7885766305558382
