time,seconds_elapsed,z,y,x
1783246120263644200,0.06264404296875,0.6226263642311096,0.3353974521160126,-1.8475836515426636
1783246120273655300,0.0726552734375,0.4309326112270355,0.6456548571586609,-2.0729963779449463
1783246120283667200,0.082667236328125,0.20282834768295288,0.9032734036445618,-2.071751117706299
1783246120293679400,0.092679443359375,0.060298897325992584,1.0507034063339233,-1.8262598514556885
1783246120303691300,0.102691162109375,0.0698527991771698,1.0349820852279663,-1.3397175073623657
1783246120313703200,0.112703125,0.15557676553726196,0.7500538229942322,-0.7053877711296082
1783246120323714000,0.122714111328125,0.2494686394929886,0.32872071862220764,-0.06645199656486511
1783246120333726000,0.132725830078125,0.3192621171474457,-0.011025121435523033,0.4019727408885956
1783246120343738000,0.142738037109375,0.3783310353755951,-0.12321051210165024,0.6563928723335266
1783246120353750000,0.15275,0.3975105881690979,-0.013682954013347626,0.7323337197303772
1783246120363761000,0.162760986328125,0.39385104179382324,0.1982273906469345,0.6708968281745911
1783246120373773000,0.17277294921875,0.3724392354488373,0.4217209219932556,0.5328638553619385
1783246120383785000,0.182784912109375,0.3263452351093292,0.6316131353378296,0.3557046353816986
1783246120393796900,0.192796875,0.2867586612701416,0.7911873459815979,0.14629146456718445
1783246120403809000,0.20280908203125,0.26284217834472656,0.8816711902618408,-0.08389017730951309
1783246120413820000,0.21281982421875,0.23713575303554535,0.8265328407287598,-0.2677508294582367
1783246120423832000,0.22283203125,0.19420239329338074,0.6283993124961853,-0.33134925365448
1783246120433844000,0.232843994140625,0.1408853828907013,0.409890353679657,-0.2738068699836731
1783246120443856100,0.242856201171875,0.10949834436178207,0.2809858024120331,-0.15644605457782745
1783246120453867000,0.252866943359375,0.1268075555562973,0.20131520926952362,0.0013888422399759293
1783246120463879200,0.262879150390625,0.18051333725452423,0.20318415760993958,0.2046811729669571
1783246120473891000,0.27289111328125,0.262853741645813,0.3167024552822113,0.416866660118103
1783246120483903000,0.282903076171875,0.36547887325286865,0.43165457248687744,0.5929419994354248
1783246120493915100,0.2929150390625,0.4437912702560425,0.40609514713287354,0.7537034749984741
1783246120503926000,0.302926025390625,0.46058735251426697,0.299364298582077,0.909661591053009
1783246120513938000,0.31293798828125,0.41411280632019043,0.1482059210538864,1.037510871887207
1783246120523950000,0.3229501953125,0.36722761392593384,0.08915244787931442,1.0890175104141235
1783246120533962000,0.3329619140625,0.3523799479007721,0.1465449035167694,1.0358314514160156
1783246120543972900,0.342972900390625,0.3565624952316284,0.16306427121162415,0.9047161936759949
1783246120553985000,0.352985107421875,0.42867717146873474,0.05775250494480133,0.7576711177825928
1783246120563997000,0.362996826171875,0.547493577003479,-0.038411255925893784,0.64063960313797
1783246120574008800,0.3730087890625,0.6439862847328186,-0.05708694085478783,0.5527179837226868
1783246120584021000,0.38302099609375,0.6874331831932068,-0.07524324953556061,0.45738735795021057
1783246120594032000,0.3930322265625,0.6743764877319336,-0.10110414773225784,0.450777143239975
1783246120604044000,0.4030439453125,0.49813082814216614,-0.2976689636707306,0.5234278440475464
1783246120614056200,0.41305615234375,0.17963619530200958,-0.6464874148368835,0.692238450050354
1783246120624068000,0.423068115234375,-0.16982826590538025,-1.2147753238677979,0.9907412528991699
1783246120634079000,0.433078857421875,-0.4797680079936981,-1.8474513292312622,1.375663161277771
1783246120644091100,0.443091064453125,-0.657600998878479,-2.2548365592956543,1.7620322704315186
1783246120654103000,0.45310302734375,-0.5826279520988464,-2.43707013130188,1.974226713180542
1783246120664115000,0.463114990234375,-0.1230793222784996,-2.2682929039001465,1.993048906326294
1783246120674127000,0.473127197265625,0.5364046096801758,-1.892983078956604,1.8199487924575806
1783246120684138000,0.483137939453125,1.0192264318466187,-1.288411021232605,1.6426736116409302
1783246120694150000,0.49314990234375,1.1446235179901123,-0.3640589118003845,1.3923883438110352
1783246120704162000,0.503162109375,0.9721152782440186,0.20008525252342224,0.8338807225227356
1783246120714174000,0.513174072265625,0.8007919788360596,-0.15918928384780884,-0.035424575209617615
1783246120724185000,0.52318505859375,0.8285136222839355,-0.40557780861854553,-0.9830266237258911
1783246120734197000,0.533197021484375,0.9990906715393066,-0.3640149235725403,-1.8296982049942017
1783246120744209200,0.543209228515625,1.0146812200546265,-0.42383041977882385,-2.4978156089782715
1783246120754221000,0.553220947265625,0.7887508869171143,-0.7020815014839172,-2.792799234390259
1783246120764232000,0.56323193359375,0.502995491027832,-0.9586930871009827,-2.7899482250213623
1783246120774244000,0.573244140625,0.33472710847854614,-1.1081066131591797,-2.895181894302368
1783246120784256000,0.583256103515625,0.24841803312301636,-0.9275599718093872,-3.3003811836242676
1783246120794268200,0.59326806640625,0.050592828541994095,-0.3077361583709717,-3.9198191165924072
1783246120804280000,0.603280029296875,-0.1799921691417694,0.2313012182712555,-4.453618049621582
1783246120814291000,0.613291015625,-0.26282310485839844,0.3227081000804901,-4.470765113830566
1783246120824302800,0.623302734375,-0.16668614745140076,-0.15657134354114532,-3.9554128646850586
1783246120834315000,0.63331494140625,0.026052135974168777,-0.9171717762947083,-2.970419406890869
1783246120844327000,0.643326904296875,0.19029806554317474,-1.6940100193023682,-1.7849395275115967
1783246120854338000,0.653338134765625,0.10745484381914139,-2.448554277420044,-0.7612330913543701
1783246120864350200,0.66335009765625,-0.48548299074172974,-2.818314552307129,-0.3692760765552521
1783246120874362000,0.673362060546875,-1.3200260400772095,-2.4418344497680664,-0.5913330912590027
1783246120884374000,0.6833740234375,-1.9500555992126465,-1.7899714708328247,-0.965351402759552
1783246120894386200,0.69338623046875,-1.6652315855026245,-0.1989593356847763,-1.4950306415557861
1783246120904397000,0.70339697265625,-0.38977763056755066,0.853463888168335,-1.9621003866195679
1783246120914409000,0.713408935546875,0.18686838448047638,1.3293739557266235,-2.1280760765075684
1783246120924421000,0.723421142578125,0.4529414772987366,1.7619726657867432,-1.8609784841537476
1783246120934433000,0.73343310546875,0.7974448204040527,1.907764196395874,-1.1790357828140259
1783246120944444000,0.74344384765625,1.2690502405166626,1.7141743898391724,-0.3136144280433655
1783246120954456000,0.7534560546875,1.6980053186416626,1.4344266653060913,0.5574416518211365
1783246120964468000,0.763468017578125,2.1202359199523926,1.360905647277832,1.351697325706482
1783246120974480000,0.77347998046875,2.4341485500335693,1.2505801916122437,1.9816784858703613
1783246120984492000,0.783491943359375,2.4812710285186768,0.8870077133178711,2.4592273235321045
1783246120994503000,0.7935029296875,2.282221555709839,0.40864938497543335,2.8080694675445557
1783246121004514800,0.803514892578125,2.0013413429260254,-0.011686863377690315,3.0255119800567627
1783246121014527000,0.81352685546875,1.8316506147384644,-0.3027903437614441,3.097297430038452
1783246121024539000,0.823538818359375,1.785404920578003,-0.38843899965286255,2.9981274604797363
1783246121034550000,0.833550048828125,1.778882384300232,-0.20652776956558228,2.783822536468506
1783246121044562200,0.843562255859375,1.7594175338745117,0.06280568987131119,2.442699909210205
1783246121054574000,0.853573974609375,1.6561846733093262,0.35142576694488525,2.014230251312256
1783246121064586000,0.8635859375,1.6338666677474976,0.5925614833831787,1.642571210861206
1783246121074598100,0.87359814453125,1.7007026672363281,0.8275060653686523,1.3745554685592651
1783246121084609000,0.883609130859375,1.8285939693450928,1.1775132417678833,1.1685518026351929
1783246121094621000,0.893620849609375,1.9104387760162354,1.6886528730392456,0.9728723764419556
1783246121104633000,0.903633056640625,1.8438255786895752,2.1296253204345703,0.8571133613586426
1783246121114645000,0.91364501953125,1.7042871713638306,2.3347620964050293,0.8323797583580017
1783246121124655900,0.92365576171875,1.628589153289795,2.3820407390594482,0.879280149936676
1783246121134668000,0.93366796875,1.5971170663833618,2.2995731830596924,0.9727243781089783
1783246121144680000,0.943679931640625,1.529075026512146,2.1323490142822266,1.0833975076675415
1783246121154691800,0.95369189453125,1.3935822248458862,1.8555265665054321,1.0525506734848022
1783246121164704000,0.9637041015625,1.2525453567504883,1.467341423034668,0.8616942763328552
1783246121174715100,0.973715087890625,1.1372493505477905,1.0213748216629028,0.5913333892822266
1783246121184727000,0.98372705078125,1.0074493885040283,0.3776547610759735,0.31428539752960205
1783246121194739200,0.9937392578125,0.859540581703186,-0.5174083709716797,0.09363532066345215
1783246121204751000,1.003751220703125,0.7680139541625977,-1.4274548292160034,0.007630683481693268
1783246121214762000,1.013761962890625,0.8000326156616211,-1.8090206384658813,0.17667455971240997
1783246121224774100,1.023774169921875,1.1150568723678589,-0.5938876271247864,0.9095203876495361
1783246121234786000,1.0337861328125,1.1943104267120361,0.8428443670272827,1.6774709224700928
1783246121244798000,1.0437978515625,1.2174370288848877,2.0174028873443604,2.456617593765259
1783246121254810000,1.05381005859375,1.2660220861434937,2.4254508018493652,2.8184285163879395
1783246121264821000,1.063821044921875,1.2700910568237305,1.9740853309631348,2.4346072673797607
1783246121274833000,1.0738330078125,1.3008625507354736,1.2151107788085938,1.5785136222839355
1783246121284845000,1.083844970703125,1.358099102973938,-0.19125699996948242,0.1915278434753418
1783246121294857000,1.09385693359375,1.3344875574111938,-1.7470932006835938,-1.3001757860183716
1783246121304868000,1.1038681640625,1.3172061443328857,-2.72074031829834,-2.10170316696167
1783246121314880500,1.113880615234375,1.2360525131225586,-2.386355400085449,-1.9860299825668335
1783246121324892400,1.123892333984375,1.106890320777893,-0.88088458776474,-1.3849643468856812
1783246121334904300,1.133904296875,1.0186529159545898,0.9324066638946533,-0.7684239745140076
1783246121344915700,1.143915771484375,1.030794620513916,2.353609800338745,-0.591284990310669
1783246121354927600,1.153927734375,0.8179596066474915,2.9480271339416504,-0.7652881741523743
1783246121364939500,1.163939453125,0.3056625425815582,2.4796547889709473,-1.2206887006759644
1783246121374951700,1.17395166015625,-0.35831302404403687,1.2313941717147827,-2.0473248958587646
1783246121384963600,1.183963623046875,-1.0332404375076294,-0.014216650277376175,-3.022331953048706
1783246121394974500,1.193974365234375,-1.5754486322402954,-0.7715714573860168,-3.835479259490967
1783246121404986600,1.203986572265625,-1.9324522018432617,-0.9638630151748657,-4.383541107177734
1783246121414998500,1.21399853515625,-2.1221752166748047,-0.6702899932861328,-4.689911842346191
1783246121425010400,1.224010498046875,-2.114112138748169,0.08999624848365784,-4.720849990844727
1783246121435022600,1.234022705078125,-1.887694239616394,1.15095055103302,-4.392815589904785
1783246121445033500,1.244033447265625,-1.454101324081421,2.0642104148864746,-3.6263797283172607
1783246121455045400,1.25404541015625,-0.8843587040901184,2.3805603981018066,-2.476874351501465
1783246121465057500,1.2640576171875,-0.28902289271354675,2.0219805240631104,-1.1373403072357178
1783246121475069400,1.2740693359375,0.229912668466568,1.2716290950775146,0.2555564343929291
1783246121485080600,1.28408056640625,0.6379691362380981,0.4167344272136688,1.5454094409942627
1783246121495092700,1.2940927734375,0.9573964476585388,-0.2808941900730133,2.500858783721924
1783246121505104600,1.304104736328125,1.2552164793014526,-0.6483877301216125,3.011321544647217
1783246121515116500,1.314116455078125,1.537717342376709,-0.666961669921875,3.106499671936035
1783246121525127400,1.32412744140625,1.747917890548706,-0.37265804409980774,2.870689868927002
1783246121535139600,1.3341396484375,1.890998125076294,0.08123886585235596,2.4094090461730957
1783246121545151500,1.3441513671875,1.9368834495544434,0.4896582067012787,1.8291579484939575
1783246121555163600,1.35416357421875,1.8343397378921509,0.8785788416862488,1.2246440649032593
1783246121565175600,1.364175537109375,1.6390819549560547,1.222295880317688,0.6813289523124695
1783246121575186400,1.3741865234375,1.4258900880813599,1.4243298768997192,0.27964064478874207
1783246121585198300,1.3841982421875,1.2318663597106934,1.4499233961105347,0.03265024349093437
1783246121595210500,1.39421044921875,1.091646432876587,1.3446954488754272,-0.07165751606225967
1783246121605222400,1.404222412109375,1.0321437120437622,1.145257830619812,-0.03342732787132263
1783246121615233500,1.414233642578125,0.9997770190238953,0.854057252407074,0.19162602722644806
1783246121625245700,1.42424560546875,0.9325557947158813,0.3580404222011566,0.5250491499900818
1783246121635257600,1.434257568359375,0.8403187990188599,-0.13312609493732452,0.8818213939666748
1783246121645269800,1.444269775390625,0.7639855742454529,-0.4796237647533417,1.1438794136047363
1783246121655281700,1.45428173828125,0.7156531810760498,-0.6825577020645142,1.2771474123001099
1783246121665292500,1.46429248046875,0.7002008557319641,-0.782436192035675,1.303896188735962
1783246121675304400,1.474304443359375,0.6999624967575073,-0.7992836236953735,1.2219620943069458
1783246121685316600,1.484316650390625,0.6859184503555298,-0.7257291078567505,1.0842756032943726
1783246121695328500,1.49432861328125,0.6510518193244934,-0.6163384318351746,0.9231687784194946
1783246121705339400,1.50433935546875,0.5829156041145325,-0.5276991128921509,0.7756415605545044
1783246121715351600,1.5143515625,0.45238447189331055,-0.5139020681381226,0.7029401659965515
1783246121725363500,1.524363525390625,0.27177661657333374,-0.5642145276069641,0.6967190504074097
1783246121735375400,1.534375244140625,0.09253948926925659,-0.6302409172058105,0.6944683790206909
1783246121745387500,1.544387451171875,-0.0740867331624031,-0.6298184990882874,0.635604202747345
1783246121755398400,1.5543984375,-0.22922305762767792,-0.5343865156173706,0.4952060580253601
1783246121765410300,1.564410400390625,-0.3479684591293335,-0.3874469995498657,0.30060452222824097
1783246121775422500,1.57442236328125,-0.4014548659324646,-0.22089265286922455,0.09506495296955109
1783246121785434400,1.584434326171875,-0.35142117738723755,-0.09863833338022232,-0.05193682760000229
1783246121795445500,1.594445556640625,-0.17274092137813568,-0.04075239226222038,-0.11325371265411377
1783246121805457700,1.604457763671875,0.06854584068059921,0.011191872879862785,-0.03724193572998047
1783246121815469600,1.614469482421875,0.16659916937351227,0.06921070069074631,0.20468148589134216
1783246121825481500,1.6244814453125,0.09571849554777145,0.45048844814300537,0.5577837228775024
1783246121835493600,1.63449365234375,-0.047919902950525284,1.178633451461792,0.9092326164245605
1783246121845504500,1.64450439453125,-0.19460296630859375,1.9441174268722534,1.1018328666687012
1783246121855516400,1.654516357421875,-0.2191898077726364,2.2192888259887695,1.0320357084274292
1783246121865528600,1.664528564453125,-0.13807225227355957,2.0219454765319824,0.5473362803459167
1783246121875540500,1.67454052734375,-0.12356361746788025,1.1075115203857422,-0.4229593276977539
1783246121885551400,1.68455126953125,-0.27629297971725464,-0.578532338142395,-1.7072553634643555
1783246121895563500,1.6945634765625,-0.4773893356323242,-2.2201013565063477,-2.7589499950408936
1783246121905575400,1.704575439453125,-0.5397899746894836,-2.8347952365875244,-3.168367862701416
1783246121915587300,1.71458740234375,-0.5880246162414551,-1.8957691192626953,-2.7717180252075195
1783246121925599500,1.724599609375,-0.6031194925308228,-0.14870847761631012,-1.7151819467544556
1783246121935610600,1.734610595703125,-0.7187973856925964,1.0762971639633179,-0.5380414128303528
1783246121945622500,1.74462255859375,-0.7350826859474182,1.5045922994613647,0.30810847878456116
1783246121955634700,1.754634765625,-0.6172271370887756,1.5072543621063232,0.5326441526412964
1783246121965646600,1.764646484375,-0.4822510778903961,1.1670588254928589,0.33333393931388855
1783246121975657500,1.774657470703125,-0.44591012597084045,0.6634611487388611,0.03393789753317833
1783246121985669600,1.784669677734375,-0.4520816206932068,0.07488536834716797,-0.23878981173038483
1783246121995681500,1.794681640625,-0.43854478001594543,-0.3279843330383301,-0.5122525095939636
1783246122005693400,1.804693359375,-0.4134804904460907,-0.38810282945632935,-0.8288173675537109
1783246122015705600,1.81470556640625,-0.44591274857521057,-0.1897500604391098,-1.0588420629501343
1783246122025716500,1.824716552734375,-0.5183418393135071,0.118395134806633,-1.1296861171722412
1783246122035728400,1.834728271484375,-0.5407552719116211,0.312303364276886,-1.0081313848495483
1783246122045740500,1.844740478515625,-0.46438363194465637,0.3731641471385956,-0.6724246740341187
1783246122055752400,1.85475244140625,-0.3560797870159149,0.23909714818000793,-0.13394923508167267
1783246122065763600,1.864763671875,-0.29141855239868164,-0.08365991711616516,0.4708001911640167
1783246122075775700,1.874775634765625,-0.23919610679149628,-0.40444618463516235,0.9559248089790344
1783246122085787600,1.88478759765625,-0.1392606794834137,-0.48998764157295227,1.2246090173721313
1783246122095799600,1.894799560546875,-0.010944514535367489,-0.37948909401893616,1.2875146865844727
1783246122105811700,1.904811767578125,0.06415288895368576,-0.2202211618423462,1.2191580533981323
1783246122115822600,1.914822509765625,0.07423455268144608,-0.1568501740694046,1.0658166408538818
1783246122125834500,1.92483447265625,0.025149399414658546,-0.18303081393241882,0.8270321488380432
1783246122135846700,1.9348466796875,-0.15710589289665222,-0.19216199219226837,0.5487871766090393
1783246122145858600,1.944858642578125,-0.3235827386379242,-0.3232877850532532,0.3369459807872772
1783246122155869400,1.954869384765625,-0.44933295249938965,-0.46628567576408386,0.13857720792293549
1783246122165881600,1.964881591796875,-0.5752764940261841,-0.41067084670066833,-0.038925901055336
1783246122175893500,1.9748935546875,-0.7076542377471924,-0.22643256187438965,-0.13146302103996277
1783246122185905400,1.984905517578125,-0.8164092302322388,-0.15288035571575165,-0.18039143085479736
1783246122195917600,1.99491748046875,-0.8876109719276428,-0.055001210421323776,-0.2175302654504776
1783246122205928400,2.004928466796875,-0.93977290391922,-0.006922558415681124,-0.25340521335601807
1783246122215940400,2.0149404296875,-0.9494678974151611,-0.04251836985349655,-0.27252644300460815
1783246122225952500,2.024952392578125,-0.8685651421546936,-0.14009511470794678,-0.30008289217948914
1783246122235964400,2.03496435546875,-0.7217836976051331,-0.3076329827308655,-0.3370491862297058
1783246122245975600,2.0449755859375,-0.5713170170783997,-0.4948655366897583,-0.3351743221282959
1783246122255987500,2.054987548828125,-0.4351122975349426,-0.744219183921814,-0.2279280424118042
1783246122265999600,2.06499951171875,-0.3548951745033264,-1.0980336666107178,-0.003101513721048832
1783246122276011500,2.075011474609375,-0.2772030234336853,-1.4170513153076172,0.21086910367012024
1783246122286023700,2.085023681640625,-0.15988671779632568,-1.6255463361740112,0.2679924964904785
1783246122296034600,2.09503466796875,-0.09955067932605743,-1.4319087266921997,0.3769640028476715
1783246122306046500,2.10504638671875,-0.1330450177192688,-1.1785470247268677,0.4960440993309021
1783246122316058000,2.11505810546875,-0.22163107991218567,-1.016847848892212,0.533696711063385
1783246122326070000,2.125070068359375,-0.3534982204437256,-0.8851297497749329,0.5071896910667419
1783246122336081200,2.1350810546875,-0.49857789278030396,-0.8184620141983032,0.4469876289367676
1783246122346093000,2.145093017578125,-0.6396970748901367,-0.7469760179519653,0.3881828486919403
1783246122356105200,2.155105224609375,-0.7672489285469055,-0.6013562083244324,0.37554535269737244
1783246122366117000,2.1651171875,-0.7758572101593018,-0.279797226190567,0.4117504954338074
1783246122376128000,2.1751279296875,-0.7101905345916748,0.11092443764209747,0.4772440195083618
1783246122386140200,2.18514013671875,-0.7523871660232544,0.3451615571975708,0.6257040500640869
1783246122396152000,2.195152099609375,-0.7476574182510376,0.3830239772796631,0.8884027600288391
1783246122406164200,2.205164306640625,-0.572994589805603,0.2983124554157257,1.404304027557373
1783246122416176000,2.215176025390625,-0.43377071619033813,0.1583571881055832,2.0678317546844482
1783246122426187000,2.22518701171875,-0.45284247398376465,-0.22198858857154846,2.5855183601379395
1783246122436199000,2.235198974609375,-0.5898324847221375,-0.777596652507782,2.6478497982025146
1783246122446211000,2.245211181640625,-0.8856028318405151,-1.127119779586792,2.143331527709961
1783246122456223000,2.255222900390625,-1.197648286819458,-0.9581307172775269,1.2116148471832275
1783246122466233900,2.26523388671875,-1.2681330442428589,-0.5408939719200134,0.1042531430721283
1783246122476246000,2.27524609375,-1.0622837543487549,-0.20184290409088135,-0.8163369297981262
1783246122486258000,2.2852578125,-0.7042374014854431,-0.052636854350566864,-1.2433438301086426
1783246122496269800,2.295269775390625,-0.37723368406295776,0.01940111815929413,-1.1002702713012695
1783246122506282000,2.305281982421875,-0.2685528099536896,0.0037595226895064116,-0.5458636283874512
1783246122516293000,2.315293212890625,-0.26180168986320496,0.21872802078723907,0.21044854819774628
1783246122526305000,2.325304931640625,-0.190570667386055,0.33431825041770935,0.7469331622123718
1783246122536317200,2.335317138671875,-0.015144255012273788,0.14073947072029114,0.8444522619247437
1783246122546329000,2.3453291015625,0.15855352580547333,-0.1996859461069107,0.5049234628677368
1783246122556340000,2.355340087890625,0.06632665544748306,-0.6789689064025879,-0.26377958059310913
1783246122566352100,2.36535205078125,-0.4169422686100006,-0.926283061504364,-1.3005515336990356
1783246122576364000,2.375364013671875,-1.0813319683074951,-1.0285780429840088,-2.3899829387664795
1783246122586376000,2.3853759765625,-1.6362704038619995,-0.5254455208778381,-3.5171191692352295
1783246122596388000,2.39538818359375,-1.7924472093582153,0.58625727891922,-4.1606855392456055
1783246122606399000,2.40539892578125,-1.5746663808822632,1.7527109384536743,-4.055429458618164
1783246122616411000,2.415410888671875,-1.0719579458236694,2.3613979816436768,-3.2748072147369385
1783246122626423000,2.425423095703125,-0.46227404475212097,2.3722221851348877,-2.175771951675415
1783246122636435000,2.43543505859375,0.10873939096927643,2.106405258178711,-1.081644058227539
1783246122646446000,2.445446044921875,0.688319981098175,1.509368658065796,-0.13949289917945862
1783246122656458200,2.455458251953125,1.0646555423736572,0.7130065560340881,0.5257564783096313
1783246122666470100,2.46547021484375,1.1268876791000366,0.023871025070548058,0.794037938117981
1783246122676482000,2.47548193359375,0.976740837097168,-0.4347982704639435,0.7987152338027954
1783246122686494200,2.485494140625,0.7072080969810486,-0.5934194922447205,0.5309701561927795
1783246122696505000,2.495505126953125,0.4093138575553894,-0.49087923765182495,0.027692120522260666
1783246122706517000,2.50551708984375,0.09271181374788284,-0.1976242959499359,-0.554347574710846
1783246122716529200,2.515529052734375,-0.20934098958969116,0.24235041439533234,-1.0358482599258423
1783246122726541000,2.525541015625,-0.3865429759025574,0.5923136472702026,-1.286789059638977
1783246122736552000,2.535552001953125,-0.40705224871635437,0.6754604578018188,-1.284792184829712
1783246122746564000,2.545564208984375,-0.3279341161251068,0.5576373338699341,-1.0763013362884521
1783246122756576000,2.555575927734375,-0.22938226163387299,0.3514184355735779,-0.7512497901916504
1783246122766588000,2.565587890625,-0.14105087518692017,0.04229535534977913,-0.4315951466560364
1783246122776600000,2.57560009765625,-0.031878579407930374,-0.2755366563796997,-0.17795461416244507
1783246122786611200,2.585611083984375,0.0743708610534668,-0.5293708443641663,-0.013469357043504715
1783246122796623000,2.595623046875,0.13861055672168732,-0.671208381652832,0.045009929686784744
1783246122806635300,2.60563525390625,0.1436089128255844,-0.766803503036499,0.00580143416300416
1783246122816647200,2.615647216796875,0.09035634249448776,-0.8069285154342651,-0.09958171099424362
1783246122826658000,2.625657958984375,0.06199496611952782,-0.718225359916687,-0.24044166505336761
1783246122836670200,2.635670166015625,0.05502014607191086,-0.5382145643234253,-0.3796978294849396
1783246122846682000,2.64568212890625,0.020934686064720154,-0.359953373670578,-0.44148939847946167
1783246122856694000,2.655694091796875,-0.06224089488387108,-0.2850455939769745,-0.3992711007595062
1783246122866706200,2.6657060546875,-0.16097034513950348,-0.24703024327754974,-0.2909325659275055
1783246122876717000,2.675717041015625,-0.20321500301361084,-0.1148514375090599,-0.1878030002117157
1783246122886729000,2.68572900390625,-0.18427814543247223,0.05766749382019043,-0.11916032433509827
1783246122896741000,2.6957412109375,-0.15419641137123108,0.16896605491638184,-0.06149196997284889
1783246122906753000,2.7057529296875,-0.15085665881633759,0.24335549771785736,0.026193926110863686
1783246122916764000,2.715763916015625,-0.18008512258529663,0.3112650215625763,0.13425488770008087
1783246122926776000,2.725776123046875,-0.24674132466316223,0.2965274155139923,0.21142998337745667
1783246122936788000,2.7357880859375,-0.3285858929157257,0.2285960465669632,0.1806342601776123
1783246122946799900,2.7457998046875,-0.3728731572628021,0.17738504707813263,0.006654230412095785
1783246122956812000,2.75581201171875,-0.34933534264564514,0.15746434032917023,-0.228592649102211
1783246122966823200,2.7658232421875,-0.34284070134162903,0.11568041890859604,-0.44218909740448
1783246122976835000,2.7758349609375,-0.3991391360759735,0.2821332812309265,-0.620013415813446
1783246122986847200,2.78584716796875,-0.5308852195739746,0.6018773317337036,-0.8005044460296631
1783246122996859100,2.795859130859375,-0.5899256467819214,1.1059354543685913,-0.8166980743408203
1783246123006870000,2.8058701171875,-0.6156164407730103,1.5767955780029297,-0.5445586442947388
1783246123016882000,2.8158818359375,-0.7780455350875854,1.6596343517303467,-0.10654507577419281
1783246123026894000,2.82589404296875,-0.9595873951911926,1.499658226966858,0.2015092521905899
1783246123036906000,2.835906005859375,-1.021972894668579,1.2201716899871826,0.13718192279338837
1783246123046918100,2.845918212890625,-1.0151139497756958,0.6677097082138062,-0.30055272579193115
1783246123056929000,2.855928955078125,-0.88786780834198,-0.12179584801197052,-0.8461604118347168
1783246123066941000,2.86594091796875,-0.6418860554695129,-0.755202054977417,-1.238046407699585
1783246123076953000,2.875953125,-0.43368518352508545,-0.8763351440429688,-1.289471983909607
1783246123086965000,2.885965087890625,-0.3152056932449341,-0.6243131160736084,-1.0475425720214844
1783246123096976100,2.89597607421875,-0.27372244000434875,-0.24499426782131195,-0.6932433843612671
1783246123106988000,2.905988037109375,-0.25850817561149597,-0.10607829689979553,-0.42689064145088196
1783246123117000200,2.916000244140625,-0.22914524376392365,-0.4149828553199768,-0.3677690029144287
1783246123127012000,2.92601220703125,-0.18284612894058228,-0.8271253705024719,-0.45731717348098755
1783246123137024300,2.936024169921875,-0.12820391356945038,-0.9166898727416992,-0.5119889378547668
1783246123147035100,2.94603515625,-0.12317454814910889,-0.7300310730934143,-0.4875708520412445
1783246123157047000,2.956047119140625,-0.18601849675178528,-0.4500366747379303,-0.4527644217014313
1783246123167059000,2.966058837890625,-0.2722441256046295,-0.20257915556430817,-0.40852871537208557
1783246123177071000,2.976071044921875,-0.3734588921070099,-0.08745043724775314,-0.3607039451599121
1783246123187082000,2.98608203125,-0.5216277241706848,-0.1895546019077301,-0.29698488116264343
1783246123197094000,2.996093994140625,-0.7156235575675964,-0.47163742780685425,-0.20996661484241486
1783246123207106000,3.00610595703125,-0.9060086011886597,-0.7884749174118042,-0.18426498770713806
1783246123217118000,3.016117919921875,-1.0603315830230713,-0.9316086769104004,-0.3235273063182831
1783246123227129000,3.026129150390625,-1.1553840637207031,-0.7844409942626953,-0.6166879534721375
1783246123237141200,3.036141357421875,-1.1603498458862305,-0.39295127987861633,-0.9684638381004333
1783246123247153200,3.046153076171875,-1.0809310674667358,0.047587800770998,-1.2564494609832764
1783246123257165000,3.0561650390625,-0.9765932559967041,0.4036867916584015,-1.3660342693328857
1783246123267177200,3.06617724609375,-0.8631902933120728,0.5779207944869995,-1.2543154954910278
1783246123277188000,3.07618798828125,-0.7352195978164673,0.5456688404083252,-0.9909473061561584
1783246123287200000,3.086199951171875,-0.5878093838691711,0.32875677943229675,-0.6322630643844604
1783246123297212200,3.096212158203125,-0.47517630457878113,0.020445290952920914,-0.19943226873874664
1783246123307224000,3.10622412109375,-0.38341036438941956,-0.26762133836746216,0.23154272139072418
1783246123317236700,3.11623681640625,-0.2870100736618042,-0.4461972117424011,0.5585224628448486
1783246123327247600,3.12624755859375,-0.18999622762203217,-0.4905753433704376,0.7189706563949585
1783246123337259500,3.136259521484375,-0.10165011137723923,-0.480833500623703,0.7125295400619507
1783246123347271700,3.146271728515625,-0.049979064613580704,-0.4403831660747528,0.591916024684906
1783246123357283600,3.15628369140625,-0.04766025021672249,-0.36668577790260315,0.42051762342453003
1783246123367294500,3.16629443359375,-0.08796961605548859,-0.28888821601867676,0.23248687386512756
1783246123377306600,3.176306640625,-0.1465999186038971,-0.20965731143951416,0.0698271244764328
1783246123387318500,3.186318603515625,-0.21125103533267975,-0.18004822731018066,-0.03691674768924713
1783246123397330400,3.196330322265625,-0.25929710268974304,-0.20470990240573883,-0.06420828402042389
1783246123407342600,3.206342529296875,-0.26494044065475464,-0.242624893784523,-0.03835347294807434
1783246123417353700,3.216353759765625,-0.2380337417125702,-0.25240108370780945,-0.008378799073398113
1783246123427365600,3.22636572265625,-0.1863393783569336,-0.19109752774238586,0.000020693521946668625
1783246123437377800,3.236377685546875,-0.1105857640504837,-0.10051383823156357,0.01563906855881214
1783246123447389700,3.2463896484375,-0.02119731530547142,-0.028948834165930748,0.08371354639530182
1783246123457400600,3.256400634765625,0.0752333551645279,-0.00037125078961253166,0.21316608786582947
1783246123467412700,3.266412841796875,0.16425324976444244,-0.002446654485538602,0.3997928500175476
1783246123477424600,3.276424560546875,0.22304758429527283,0.012004456482827663,0.6314452290534973
1783246123487436500,3.2864365234375,0.2415483593940735,-0.005409901961684227,0.8576152920722961
1783246123497447700,3.29644775390625,0.22082044184207916,-0.07097160071134567,1.0469450950622559
1783246123507459600,3.30645947265625,0.18377169966697693,-0.15640994906425476,1.1729542016983032
1783246123517471500,3.316471435546875,0.09362048655748367,-0.2499883770942688,1.210768222808838
1783246123527483600,3.326483642578125,0.006488115061074495,-0.2650196850299835,1.1490761041641235
1783246123537495600,3.33649560546875,-0.008663407526910305,-0.17841076850891113,1.014227271080017
1783246123547506700,3.346506591796875,0.023899341002106667,0.005290625151246786,0.8354673981666565
1783246123557518800,3.356518798828125,0.0398748442530632,0.22748695313930511,0.6166676878929138
1783246123567530800,3.36653076171875,0.06146252155303955,0.3667144477367401,0.3816445469856262
1783246123577542700,3.376542724609375,0.06405510753393173,0.41868019104003906,0.22001437842845917
1783246123587554800,3.386554931640625,-0.03664981573820114,0.38683393597602844,0.1825110763311386
1783246123597565700,3.396565673828125,-0.24588824808597565,0.27039042115211487,0.2707615792751312
1783246123607577600,3.40657763671875,-0.5446802377700806,-0.01706501469016075,0.43589454889297485
1783246123617589800,3.41658984375,-0.8906224370002747,-0.3646285831928253,0.6330693960189819
1783246123627601700,3.4266015625,-1.1342723369598389,-0.46221786737442017,0.8038203120231628
1783246123637612500,3.436612548828125,-1.0633771419525146,-0.06299617886543274,0.8914750814437866
1783246123647624700,3.446624755859375,-0.6384837627410889,0.3238237500190735,0.7676749229431152
1783246123657636600,3.45663671875,-0.14294806122779846,0.1358908712863922,0.38303935527801514
1783246123667648500,3.4666484375,0.14984959363937378,-0.39625033736228943,-0.06466798484325409
1783246123677660700,3.47666064453125,0.10842972248792648,-0.7561084032058716,-0.17641368508338928
1783246123687671600,3.486671630859375,-0.14514684677124023,-0.8363549709320068,0.029566552489995956
1783246123697683500,3.496683349609375,-0.4177943468093872,-0.6482508182525635,0.2718372344970703
1783246123707695600,3.506695556640625,-0.5385944247245789,-0.34684431552886963,0.3346174359321594
1783246123717707500,3.51670751953125,-0.511462390422821,-0.05494027957320213,0.2542799711227417
1783246123727718700,3.52671875,-0.4423859417438507,0.12818016111850739,0.1319720596075058
1783246123737730800,3.536730712890625,-0.37826210260391235,0.17229649424552917,0.033611126244068146
1783246123747742700,3.54674267578125,-0.3324592113494873,0.10093709826469421,-0.05502011626958847
1783246123757754600,3.556754638671875,-0.31034672260284424,-0.041606735438108444,-0.1379680037498474
1783246123767766800,3.566766845703125,-0.2899675667285919,-0.16139668226242065,-0.20237386226654053
1783246123777777700,3.576777587890625,-0.2624043822288513,-0.224806547164917,-0.2529957592487335
1783246123787789600,3.58678955078125,-0.2572742700576782,-0.28185832500457764,-0.29540950059890747
1783246123797801700,3.5968017578125,-0.3123529553413391,-0.3986760079860687,-0.33188894391059875
1783246123807813600,3.606813720703125,-0.38899433612823486,-0.5369016528129578,-0.37742432951927185
1783246123817824500,3.616824462890625,-0.4343612790107727,-0.6436957716941833,-0.4808495044708252
1783246123827836700,3.626836669921875,-0.4526984989643097,-0.6114972829818726,-0.6093097925186157
1783246123837848600,3.6368486328125,-0.4738304316997528,-0.465462863445282,-0.6976044774055481
1783246123847860500,3.646860595703125,-0.4790683090686798,-0.2955667972564697,-0.6995607614517212
1783246123857872600,3.65687255859375,-0.4491247832775116,-0.20115798711776733,-0.5978378653526306
1783246123867883800,3.6668837890625,-0.391785591840744,-0.16441461443901062,-0.42244696617126465
1783246123877895700,3.676895751953125,-0.28553906083106995,-0.21076001226902008,-0.23165647685527802
1783246123887907800,3.686907958984375,-0.11137891560792923,-0.22571280598640442,-0.05668860673904419
1783246123897919700,3.696919677734375,0.09935488551855087,-0.21377891302108765,0.08176727592945099
1783246123907930600,3.7069306640625,0.24162784218788147,-0.15525709092617035,0.1430606096982956
1783246123917942500,3.716942626953125,0.31482136249542236,-0.12052520364522934,0.1345672458410263
1783246123927954700,3.72695458984375,0.2829679250717163,-0.1717299520969391,0.09185033291578293
1783246123937966600,3.736966552734375,0.16996146738529205,-0.25943902134895325,0.03650824725627899
1783246123947978800,3.746978759765625,0.05710554122924805,-0.3707534968852997,-0.0448620580136776
1783246123957989600,3.75698974609375,-0.04552176594734192,-0.5544008612632751,-0.1626153141260147
1783246123968001500,3.76700146484375,-0.16245871782302856,-0.8256485462188721,-0.2942851185798645
1783246123978013700,3.777013671875,-0.2743205428123474,-1.0487114191055298,-0.41486215591430664
1783246123988025600,3.787025634765625,-0.34418436884880066,-1.0722973346710205,-0.5039414763450623
1783246123998036700,3.79703662109375,-0.34923985600471497,-1.0223606824874878,-0.5169294476509094
1783246124008048600,3.807048583984375,-0.27497217059135437,-0.8650076389312744,-0.2296023666858673
1783246124018060800,3.817060791015625,-0.19717323780059814,-0.6491778492927551,0.08507807552814484
1783246124028072700,3.82707275390625,-0.2477758675813675,-0.5168444514274597,0.4233255982398987
1783246124038084900,3.8370849609375,-0.36044222116470337,-0.428767591714859,0.761466920375824
1783246124048095700,3.847095703125,-0.500908374786377,-0.6810833811759949,1.081785798072815
1783246124058107600,3.857107666015625,-0.4639301300048828,-0.4812086224555969,1.5106873512268066
1783246124068119600,3.86711962890625,-0.4930354952812195,-0.0017164645250886679,1.8598641157150269
1783246124078131700,3.877131591796875,-0.5690908432006836,0.4977966845035553,2.179755449295044
1783246124088142600,3.887142578125,-0.7260373830795288,0.9868557453155518,2.382901668548584
1783246124098154500,3.897154541015625,-0.8411524891853333,1.0450098514556885,2.3338115215301514
1783246124108166700,3.907166748046875,-0.8013796210289001,0.5426329970359802,1.9600977897644043
1783246124118178600,3.917178466796875,-0.5532169342041016,0.4040822684764862,1.576680064201355
1783246124128190700,3.927190673828125,-0.2720532715320587,0.6985170245170593,1.378503680229187
1783246124138201600,3.93720166015625,-0.07809071987867355,0.9357913136482239,1.3440172672271729
1783246124148213500,3.947213623046875,-0.048552919179201126,0.773820161819458,1.3600609302520752
1783246124158225700,3.9572255859375,-0.17814020812511444,0.4470710754394531,1.4113589525222778
1783246124168237600,3.967237548828125,-0.3382088541984558,0.3558424711227417,1.5557554960250854
1783246124178248700,3.977248779296875,-0.33165907859802246,0.4108431339263916,1.5791140794754028
1783246124188260600,3.987260498046875,-0.07077686488628387,0.40516582131385803,1.4103151559829712
1783246124198272800,3.997272705078125,0.18819370865821838,0.4141835570335388,1.1264283657073975
1783246124208284700,4.00728466796875,0.14806751906871796,0.5140237808227539,0.7915453910827637
1783246124218296600,4.017296630859375,-0.20304043591022491,1.120958924293518,0.49237969517707825
1783246124228307700,4.0273076171875,-0.5110069513320923,1.7366116046905518,0.07702212035655975
1783246124238319600,4.037319580078125,-0.37385094165802,1.8739473819732666,-0.40311384201049805
1783246124248331500,4.04733154296875,0.3808721601963043,1.346749186515808,-0.8700894117355347
1783246124258343700,4.05734375,1.203574299812317,0.37335020303726196,-1.384065866470337
1783246124268354600,4.0673544921875,1.6772493124008179,-0.3410545885562897,-1.5614451169967651
1783246124278366500,4.077366455078125,1.74910569190979,-0.8719208240509033,-1.4066805839538574
1783246124288378600,4.087378662109375,1.5701613426208496,-1.1899943351745605,-1.2081691026687622
1783246124298390500,4.097390625,1.3275436162948608,-0.9454572796821594,-1.0798965692520142
1783246124308402400,4.10740234375,1.131003499031067,-0.3068069815635681,-1.089070439338684
1783246124318413600,4.11741357421875,1.0317909717559814,0.4267745912075043,-1.3157763481140137
1783246124328425500,4.127425537109375,0.9350336790084839,0.8582034707069397,-1.7226359844207764
1783246124338437400,4.137437255859375,0.8070525527000427,0.7899810075759888,-2.122453212738037
1783246124348449500,4.147449462890625,0.49515461921691895,0.20264460146427155,-2.3948214054107666
1783246124358460400,4.15746044921875,0.05598153918981552,-0.6681361198425293,-2.587726593017578
1783246124368472300,4.167472412109375,-0.2061050534248352,-1.299329161643982,-2.688194990158081
1783246124378484500,4.177484375,-0.03598577901721001,-1.3575599193572998,-2.586658000946045
1783246124388496400,4.187496337890625,0.3042830526828766,-1.0715105533599854,-2.2595791816711426
1783246124398508300,4.19750830078125,0.532563328742981,-0.4817514717578888,-1.6852138042449951
1783246124408519400,4.20751953125,0.5969471335411072,0.2687278687953949,-0.9248020052909851
1783246124418531300,4.21753125,0.537260890007019,0.8422728776931763,-0.11895954608917236
1783246124428543200,4.227543212890625,0.4231323301792145,0.9529843330383301,0.5164361000061035
1783246124438555400,4.237555419921875,0.34718963503837585,0.7234062552452087,0.9345942139625549
1783246124448567300,4.2475673828125,0.3007453382015228,0.38080886006355286,1.10792076587677
1783246124458578400,4.257578369140625,0.28758424520492554,0.037189703434705734,1.1217303276062012
1783246124468590600,4.267590576171875,0.3041028380393982,-0.28212645649909973,1.0092699527740479
1783246124478602500,4.2776025390625,0.35348793864250183,-0.4205591678619385,0.7498048543930054
1783246124488614400,4.287614501953125,0.39910849928855896,-0.3192572593688965,0.366512268781662
1783246124498625300,4.297625244140625,0.396045058965683,-0.1010197252035141,-0.06927648931741714
1783246124508637400,4.307637451171875,0.34292158484458923,0.16668249666690826,-0.4573855400085449
1783246124518649300,4.3176494140625,0.31498584151268005,0.432675838470459,-0.7361551523208618
1783246124528661500,4.32766162109375,0.3098227381706238,0.6186488270759583,-0.8824402689933777
1783246124538672400,4.33767236328125,0.3254341781139374,0.6700393557548523,-0.8536134362220764
1783246124548684300,4.347684326171875,0.33856844902038574,0.5794621109962463,-0.6452043652534485
1783246124558696400,4.357696533203125,0.2970958352088928,0.455303430557251,-0.33067786693573
1783246124568708400,4.367708251953125,0.20395401120185852,0.35043811798095703,-0.004759714473038912
1783246124578720300,4.37772021484375,0.07541228830814362,0.31167927384376526,0.24766239523887634
1783246124588731400,4.3877314453125,-0.08670441061258316,0.3726191222667694,0.3774441182613373
1783246124598743600,4.39774365234375,-0.2693234980106354,0.48160046339035034,0.3887138366699219
1783246124608755500,4.40775537109375,-0.3860876262187958,0.7032575011253357,0.3111328184604645
1783246124618767600,4.417767578125,-0.3582024574279785,0.8842930793762207,0.2387281209230423
1783246124628779500,4.427779541015625,-0.23866553604602814,0.8406700491905212,0.3075041174888611
1783246124638790400,4.437790283203125,-0.16717377305030823,0.5218478441238403,0.5662776231765747
1783246124648802300,4.44780224609375,-0.1466931849718094,0.17301438748836517,0.9484661817550659
1783246124658814500,4.457814453125,-0.14151521027088165,-0.15763996541500092,1.3532782793045044
1783246124668826400,4.467826416015625,-0.21595250070095062,-0.44352802634239197,1.686954379081726
1783246124678837200,4.477837158203125,-0.3615661859512329,-0.476777583360672,1.8012455701828003
1783246124688849400,4.487849365234375,-0.45367905497550964,-0.2652808129787445,1.6157724857330322
1783246124698861300,4.497861328125,-0.431870698928833,-0.033352743834257126,1.193305492401123
1783246124708873200,4.507873291015625,-0.3608284294605255,-0.04101487621665001,0.77748042345047
1783246124718885400,4.517885498046875,-0.33072564005851746,-0.2959667444229126,0.5653894543647766
1783246124728896300,4.527896240234375,-0.3824251592159271,-0.6523377299308777,0.6241258978843689
1783246124738908400,4.537908447265625,-0.5602391362190247,-0.8485003113746643,0.8436505198478699
1783246124748920300,4.54792041015625,-0.8467283248901367,-0.5673930048942566,0.9886035919189453
1783246124758932500,4.557932373046875,-1.1720534563064575,0.06480950117111206,0.920103907585144
1783246124768943400,4.567943359375,-1.5361151695251465,0.8896763920783997,0.8347533345222473
1783246124778955500,4.57795556640625,-1.8024914264678955,1.3637243509292603,1.0702513456344604
1783246124788967400,4.587967529296875,-1.8903248310089111,1.1830551624298096,1.7725186347961426
1783246124798979300,4.597979248046875,-1.7415393590927124,0.735956072807312,2.7496397495269775
1783246124808991500,4.607991455078125,-1.4086021184921265,0.35674139857292175,3.4859259128570557
1783246124819002400,4.61800244140625,-1.0682471990585327,0.18096929788589478,3.6568763256073
1783246124829014300,4.62801416015625,-0.7270095944404602,0.14437949657440186,3.278743028640747
1783246124839026400,4.6380263671875,-0.38914045691490173,0.08870609849691391,2.55285906791687
1783246124849038300,4.648038330078125,-0.09435955435037613,0.10932844877243042,1.7525745630264282
1783246124859049200,4.65804931640625,0.11185060441493988,0.18314701318740845,1.0655392408370972
1783246124869061400,4.668061279296875,0.16634322702884674,0.17643888294696808,0.5762725472450256
1783246124879073300,4.6780732421875,0.0661897361278534,0.038592610508203506,0.2244700789451599
1783246124889085200,4.688085205078125,-0.16856332123279572,-0.16993525624275208,-0.1059531718492508
1783246124899097300,4.698097412109375,-0.4048230051994324,-0.2642771899700165,-0.5357383489608765
1783246124909108500,4.7081083984375,-0.5425029993057251,-0.1316080540418625,-1.0387866497039795
1783246124919120400,4.718120361328125,-0.6051211357116699,0.11415324360132217,-1.4505254030227661
1783246124929132500,4.728132568359375,-0.6515604853630066,0.2513638734817505,-1.6636731624603271
1783246124939144400,4.73814453125,-0.7308320999145508,0.2776806950569153,-1.6927849054336548
1783246124949155300,4.7481552734375,-0.7793752551078796,0.2722288966178894,-1.673326015472412
1783246124959167500,4.75816748046875,-0.7941882610321045,0.25777220726013184,-1.6790708303451538
1783246124969179400,4.768179443359375,-0.7613229155540466,0.15975013375282288,-1.6990972757339478
1783246124979191300,4.77819140625,-0.6282524466514587,-0.041901759803295135,-1.701232671737671
1783246124989203500,4.788203369140625,-0.3708499073982239,-0.2903594672679901,-1.6553324460983276
1783246124999214300,4.79821435546875,-0.03834092244505882,-0.4968777596950531,-1.528226375579834
1783246125009226200,4.808226318359375,0.2635875642299652,-0.6428532600402832,-1.3164410591125488
1783246125019238400,4.81823828125,0.4644298553466797,-0.6915648579597473,-1.0606417655944824
1783246125029250300,4.828250244140625,0.49790653586387634,-0.6306376457214355,-0.7932249307632446
1783246125039261400,4.838261474609375,0.413463294506073,-0.5012354850769043,-0.5540903806686401
1783246125049273600,4.848273681640625,0.3060957193374634,-0.36980777978897095,-0.36102089285850525
1783246125059285500,4.858285400390625,0.23382656276226044,-0.3263053297996521,-0.21378006041049957
1783246125069297400,4.86829736328125,0.20935197174549103,-0.36721670627593994,-0.09545750916004181
1783246125079309600,4.8783095703125,0.20442992448806763,-0.42877352237701416,0.008687268942594528
1783246125089320400,4.888320556640625,0.24151596426963806,-0.41898566484451294,0.06598454713821411
1783246125099332400,4.898332275390625,0.3217522203922272,-0.32316192984580994,0.06445988267660141
1783246125109344500,4.908344482421875,0.3832530081272125,-0.1469515860080719,-0.00596874812617898
1783246125119356400,4.9183564453125,0.3823219835758209,-0.009056564420461655,-0.09864196181297302
1783246125129368300,4.928368408203125,0.36626213788986206,0.04012727737426758,-0.17753972113132477
1783246125139379500,4.93837939453125,0.3527338206768036,0.005750659387558699,-0.193901926279068
1783246125149391400,4.948391357421875,0.2587522268295288,-0.2448578029870987,-0.08573295921087265
1783246125159403300,4.9584033203125,0.32684656977653503,-0.2957007586956024,-0.01406170055270195
1783246125169415400,4.96841552734375,0.284371018409729,-0.2678645849227905,0.10953350365161896
1783246125179426300,4.97842626953125,0.21287235617637634,-0.3587002158164978,0.2575698494911194
1783246125189438500,4.9884384765625,0.24450671672821045,-0.42165282368659973,0.4180026650428772
1783246125199450400,4.998450439453125,0.2552565336227417,-0.5272969603538513,0.5988960266113281
1783246125209462500,5.008462646484375,0.34486570954322815,-0.5878767967224121,0.7050378918647766
1783246125219474400,5.018474365234375,0.4188224971294403,-0.5392365455627441,0.7652647495269775
1783246125229485300,5.0284853515625,0.45758166909217834,-0.45086240768432617,0.7564122676849365
1783246125239497500,5.03849755859375,0.48924317955970764,-0.35271960496902466,0.6925552487373352
1783246125249509400,5.04850927734375,0.4489230215549469,-0.263208270072937,0.6142864227294922
1783246125259521500,5.058521484375,0.35925519466400146,-0.24093732237815857,0.5525280237197876
1783246125269532400,5.068532470703125,0.2632347047328949,-0.25665444135665894,0.49152451753616333
1783246125279544300,5.07854443359375,0.1513185352087021,-0.27626994252204895,0.40886932611465454
1783246125289556500,5.088556396484375,0.0181849617511034,-0.20902065932750702,0.3118012249469757
1783246125299568400,5.098568359375,-0.11454405635595322,-0.08241797238588333,0.25990021228790283
1783246125309580300,5.108580322265625,-0.1999090313911438,-0.03981538861989975,0.28698211908340454
1783246125319590700,5.118590576171875,-0.19751964509487152,-0.1280248761177063,0.34317269921302795
1783246125329602600,5.1286025390625,-0.12958170473575592,-0.11206705123186111,0.39083293080329895
1783246125339614700,5.13861474609375,-0.04053784906864166,0.08085127174854279,0.38499608635902405
1783246125349626600,5.148626708984375,-0.009141056798398495,0.3882245421409607,0.37829235196113586
1783246125359637500,5.158637451171875,-0.14508157968521118,0.5704225897789001,0.5039578676223755
1783246125369649400,5.1686494140625,-0.4697614908218384,0.29317063093185425,0.7705699801445007
1783246125379661600,5.17866162109375,-0.9468731880187988,-0.13209998607635498,1.079066276550293
1783246125389673500,5.188673583984375,-1.4232990741729736,-0.17576879262924194,1.244917631149292
1783246125399685600,5.198685546875,-1.7323572635650635,0.1705649197101593,1.0614876747131348
1783246125409696500,5.208696533203125,-1.7935305833816528,0.5413698554039001,0.5202805995941162
1783246125419708400,5.21870849609375,-1.6268798112869263,0.7393662929534912,-0.19552144408226013
1783246125429720300,5.22872021484375,-1.29703688621521,0.7755657434463501,-0.8191521763801575
1783246125439732500,5.238732421875,-0.8858463764190674,0.7481197714805603,-1.1214078664779663
1783246125449743600,5.24874365234375,-0.41667771339416504,0.649950385093689,-1.067114233970642
1783246125459755500,5.258755615234375,-0.07008114457130432,0.4619487524032593,-0.7703052163124084
1783246125469767700,5.268767578125,0.26684415340423584,0.09233582764863968,-0.5699431300163269
1783246125479779600,5.278779541015625,0.22608552873134613,-0.21559056639671326,-0.7751647233963013
1783246125489791700,5.288791748046875,0.12259156256914139,0.0021089466754347086,-1.2692192792892456
1783246125499802600,5.298802734375,-0.01886356808245182,0.7069398164749146,-1.68679940700531
1783246125509814500,5.308814453125,-0.14711076021194458,1.4467729330062866,-1.8242403268814087
1783246125519826400,5.318826416015625,-0.20255111157894135,1.7956045866012573,-1.714473843574524
1783246125529838600,5.328838623046875,-0.14734917879104614,1.5777742862701416,-1.5470348596572876
1783246125539849500,5.338849365234375,-0.012411070987582207,0.9343692064285278,-1.424939513206482
1783246125549861400,5.348861328125,0.13251204788684845,0.17946051061153412,-1.4183307886123657
1783246125559873500,5.35887353515625,0.23238244652748108,-0.4384375810623169,-1.5440043210983276
1783246125569885400,5.368885498046875,0.22873792052268982,-0.7408251166343689,-1.8012696504592896
1783246125579897300,5.3788974609375,0.09758788347244263,-0.5587634444236755,-2.1157543659210205
1783246125589908500,5.388908447265625,-0.16998310387134552,-0.07971938699483871,-2.3514885902404785
1783246125599920400,5.39892041015625,-0.5217137336730957,0.38474521040916443,-2.3861396312713623
1783246125609932500,5.4089326171875,-0.8186159133911133,0.7187799215316772,-2.1938860416412354
1783246125619944400,5.4189443359375,-0.9672674536705017,0.8591389060020447,-1.8540359735488892
1783246125629956600,5.42895654296875,-0.9547460675239563,0.7252002954483032,-1.4240797758102417
1783246125639967500,5.438967529296875,-0.7903299927711487,0.37527209520339966,-0.9727985858917236
1783246125649979600,5.448979736328125,-0.48966270685195923,-0.05378888547420502,-0.5606534481048584
1783246125659991600,5.458991455078125,-0.08217322826385498,-0.5183549523353577,-0.19560463726520538
1783246125670003500,5.46900341796875,0.3225611746311188,-0.8862419128417969,0.0691598504781723
1783246125680014600,5.4790146484375,0.6444020867347717,-1.0191484689712524,0.2207624316215515
1783246125690026500,5.489026611328125,0.8582828640937805,-0.8697607517242432,0.2583303451538086
1783246125700038400,5.499038330078125,0.9321141839027405,-0.6030560731887817,0.2107633799314499
1783246125710050600,5.509050537109375,0.8668718934059143,-0.39509665966033936,0.09534618258476257
1783246125720062500,5.5190625,0.7083320617675781,-0.2063472718000412,-0.06894422322511673
1783246125730073300,5.5290732421875,0.501205563545227,-0.11361056566238403,-0.20278222858905792
1783246125740085500,5.53908544921875,0.29120391607284546,-0.1591159850358963,-0.23237687349319458
1783246125750097400,5.549097412109375,0.1314239799976349,-0.3349366784095764,-0.09937415271997452
1783246125760109300,5.559109375,0.09793899953365326,-0.5663185119628906,0.19132958352565765
1783246125770120700,5.56912060546875,0.1879792958498001,-0.6894999146461487,0.5862994194030762
1783246125780132600,5.579132568359375,0.326712429523468,-0.6500821709632874,1.0176173448562622
1783246125790144500,5.58914453125,0.47487813234329224,-0.6201028227806091,1.4316264390945435
1783246125800156700,5.59915673828125,0.5970876812934875,-0.697754442691803,1.7514158487319946
1783246125810168600,5.60916845703125,0.6765894293785095,-0.8604514598846436,1.9515998363494873
1783246125820179500,5.619179443359375,0.7217319011688232,-1.0980935096740723,2.0440990924835205
1783246125830191600,5.629191650390625,0.7451044917106628,-1.2486377954483032,2.0343708992004395
1783246125840203500,5.63920361328125,0.7235054969787598,-1.2201765775680542,1.9105205535888672
1783246125850215400,5.64921533203125,0.664996862411499,-0.9407496452331543,1.6368120908737183
1783246125860226600,5.6592265625,0.6054991483688354,-0.48770037293434143,1.251524806022644
1783246125870238500,5.669238525390625,0.5239689350128174,-0.10719528049230576,0.8376345634460449
1783246125880250400,5.67925048828125,0.3902878761291504,0.11783410608768463,0.5103743672370911
1783246125890262500,5.689262451171875,0.2667892277240753,0.2607700526714325,0.33814600110054016
1783246125900274400,5.6992744140625,0.20556767284870148,0.33574122190475464,0.3459748923778534
1783246125910285600,5.70928564453125,0.1694580763578415,0.5629189610481262,0.5084372162818909
1783246125920297700,5.719297607421875,0.15969014167785645,1.0256141424179077,0.7241215705871582
1783246125930309600,5.7293095703125,0.18200097978115082,1.484517216682434,0.9275199770927429
1783246125940321500,5.739321533203125,0.22607550024986267,1.6790624856948853,1.107542872428894
1783246125950333700,5.749333740234375,0.1880635768175125,1.466402292251587,1.3136781454086304
1783246125960344600,5.759344482421875,-0.08043737709522247,0.8462069630622864,1.4938583374023438
1783246125970356500,5.7693564453125,-0.5873094797134399,0.2137172818183899,1.5167264938354492
1783246125980368600,5.77936865234375,-1.0323668718338013,0.17210513353347778,1.297227144241333
1783246125990380500,5.789380615234375,-1.0877856016159058,0.690997302532196,0.8697696924209595
1783246126000391400,5.799391357421875,-0.7087329030036926,0.9208877682685852,0.4135121703147888
1783246126010403600,5.809403564453125,-0.15303263068199158,0.7905890941619873,0.1666584610939026
1783246126020415500,5.81941552734375,0.32726290822029114,0.39913320541381836,0.16160590946674347
1783246126030427400,5.829427490234375,0.6256023049354553,-0.11170917749404907,0.35823434591293335
1783246126040438500,5.8394384765625,0.7683165669441223,-0.6745179295539856,0.5619528293609619
1783246126050450700,5.84945068359375,0.7989360094070435,-1.2289658784866333,0.5684181451797485
1783246126060462600,5.859462646484375,0.8236269950866699,-1.624389410018921,0.3456311523914337
1783246126070474800,5.869474853515625,0.8549965620040894,-1.7532787322998047,-0.062405481934547424
1783246126080486700,5.879486572265625,0.8567004799842834,-1.6111743450164795,-0.6369888782501221
1783246126090497500,5.88949755859375,0.8244632482528687,-1.2877074480056763,-1.3910160064697266
1783246126100509400,5.899509521484375,0.7158480882644653,-0.9186578989028931,-2.4202733039855957
1783246126110521600,5.909521484375,0.44906333088874817,-0.7102060317993164,-3.794039487838745
1783246126120533500,5.919533447265625,0.0740596204996109,-0.5138950943946838,-5.199509143829346
1783246126130545700,5.929545654296875,-0.29764875769615173,-0.02871384099125862,-6.017061233520508
1783246126140556500,5.939556640625,-0.5095170736312866,0.45153719186782837,-5.979467868804932
1783246126150568400,5.949568359375,-0.42067018151283264,0.804878294467926,-5.015853404998779
1783246126160580400,5.959580322265625,0.016275713220238686,0.8661765456199646,-3.422701597213745
1783246126170592500,5.969592529296875,0.3846277892589569,1.1601190567016602,-1.2235729694366455
1783246126180603400,5.979603271484375,0.6948463916778564,0.7528307437896729,1.1679505109786987
1783246126190615300,5.989615234375,0.7471896409988403,-0.24555782973766327,3.045645236968994
1783246126200627500,5.99962744140625,0.6722413301467896,-1.3221931457519531,4.213438987731934
1783246126210639400,6.009639404296875,0.582783579826355,-1.8148202896118164,4.554902076721191
1783246126220651500,6.019651611328125,0.4761899709701538,-1.5882340669631958,4.137994766235352
1783246126230662700,6.02966259765625,0.4422866106033325,-0.6750587224960327,3.132596492767334
1783246126240674600,6.039674560546875,0.4354974329471588,0.34325549006462097,1.9306309223175049
1783246126250686500,6.0496865234375,0.3360491991043091,0.7912408113479614,0.9144241809844971
1783246126260698600,6.05969873046875,0.04412040859460831,1.56858491897583,0.49776387214660645
1783246126270709500,6.06970947265625,-0.2762174606323242,1.4997520446777344,0.3401336967945099
1783246126280721400,6.079721435546875,-0.5759695172309875,0.6215174794197083,0.24597284197807312
1783246126290733600,6.089733642578125,-0.8339036703109741,-0.06886578351259232,0.14627604186534882
1783246126300745500,6.099745361328125,-0.920953094959259,-0.28323107957839966,-0.0334513783454895
1783246126310757400,6.10975732421875,-0.8151125311851501,-0.2513968348503113,-0.27311259508132935
1783246126320768800,6.119768798828125,-0.5706636309623718,0.10126189142465591,-0.46776169538497925
1783246126330780700,6.12978076171875,-0.22691425681114197,0.5937645435333252,-0.49942547082901
1783246126340792600,6.13979248046875,0.11326676607131958,0.9083213806152344,-0.32637858390808105
1783246126350804700,6.1498046875,0.33608943223953247,0.9424037933349609,-0.01687271147966385
1783246126360815900,6.15981591796875,0.3985442817211151,0.616104245185852,0.29438984394073486
1783246126370827800,6.169827880859375,0.36435240507125854,0.18382884562015533,0.5512905716896057
1783246126380840000,6.17983984375,0.288703978061676,-0.10181089490652084,0.718407392501831
1783246126390851800,6.189851806640625,0.18885205686092377,-0.1874958574771881,0.812687337398529
1783246126400863700,6.19986376953125,0.10251211374998093,-0.03983983024954796,0.8376984000205994
1783246126410875000,6.209875,0.0029577305540442467,0.08058074861764908,0.8921000957489014
1783246126420886800,6.21988671875,-0.14135071635246277,0.1765323132276535,1.0325855016708374
1783246126430898700,6.229898681640625,-0.23346513509750366,0.38067007064819336,1.1023650169372559
1783246126440910800,6.239910888671875,-0.25222498178482056,0.6249874234199524,1.0780225992202759
1783246126450922800,6.2499228515625,-0.20402586460113525,0.9045331478118896,1.0149537324905396
1783246126460933600,6.25993359375,-0.08047222346067429,1.0680465698242188,0.9209854602813721
1783246126470945800,6.26994580078125,0.04048800840973854,1.0022953748703003,0.8327713012695312
1783246126480957700,6.279957763671875,0.11538249254226685,0.761933445930481,0.8728579878807068
1783246126490969600,6.289969482421875,0.16801230609416962,0.5818663239479065,1.030361533164978
1783246126500980700,6.299980712890625,0.23480412364006042,0.5525640845298767,1.2697030305862427
1783246126510992600,6.30999267578125,0.31530553102493286,0.573779284954071,1.6043527126312256
1783246126521004800,6.3200048828125,0.33677780628204346,0.5569478273391724,1.8786907196044922
1783246126531016700,6.3300166015625,0.18319545686244965,0.29533785581588745,1.8193398714065552
1783246126541028900,6.34002880859375,-0.07986385375261307,-0.07627912610769272,1.4492100477218628
1783246126551039700,6.350039794921875,-0.3370540142059326,-0.25010058283805847,0.973217248916626
1783246126561052000,6.360052001953125,-0.47657862305641174,-0.17291714251041412,0.6465216875076294
1783246126571063800,6.370063720703125,-0.5388678908348083,0.2818335294723511,0.5316611528396606
1783246126581075700,6.38007568359375,-0.48825156688690186,0.9258463382720947,0.571671187877655
1783246126591086800,6.3900869140625,-0.2253897488117218,1.162414789199829,0.7431837320327759
1783246126601098800,6.4000986328125,0.06704025715589523,0.6840212941169739,1.0334831476211548
1783246126611110700,6.410110595703125,0.27756837010383606,-0.3338565528392792,1.3622177839279175
1783246126621122800,6.420122802734375,0.45482251048088074,-1.4168308973312378,1.4450433254241943
1783246126631134700,6.430134765625,0.5575644969940186,-2.0625576972961426,1.0597615242004395
1783246126641145600,6.4401455078125,0.6257858872413635,-2.0370681285858154,0.10829342901706696
1783246126651157800,6.45015771484375,0.6478349566459656,-1.2186001539230347,-1.1582804918289185
1783246126661169700,6.460169677734375,0.49209460616111755,-0.10610503703355789,-2.294745922088623
1783246126671181600,6.470181640625,0.10160696506500244,0.7198796272277832,-2.979914426803589
1783246126681193000,6.48019287109375,-0.3315604627132416,0.9504939317703247,-3.033217430114746
1783246126691204900,6.490204833984375,-0.6587178707122803,0.6122572422027588,-2.486034631729126
1783246126701216800,6.500216796875,-0.8691797852516174,-0.1621903032064438,-1.5749989748001099
1783246126711229000,6.51022900390625,-0.991046667098999,-1.0365922451019287,-0.6426278352737427
1783246126721240800,6.52024072265625,-1.0345287322998047,-1.6738970279693604,0.010192322544753551
1783246126731251700,6.530251708984375,-0.9992329478263855,-1.9135007858276367,0.2344350814819336
1783246126741264000,6.540263916015625,-0.9409454464912415,-1.776897668838501,-0.04283514246344566
1783246126751275800,6.55027587890625,-0.8500658869743347,-1.3219020366668701,-0.6824148297309875
1783246126761287700,6.56028759765625,-0.6850215792655945,-0.6614875793457031,-1.304188847541809
1783246126771299800,6.5702998046875,-0.5806272029876709,-0.30169951915740967,-1.6495494842529297
1783246126781310700,6.580310791015625,-0.6365117430686951,-0.30066514015197754,-1.6783312559127808
1783246126791322600,6.590322509765625,-0.718460202217102,-0.30958572030067444,-1.4338762760162354
1783246126801334800,6.600334716796875,-0.7067846059799194,-0.3717082142829895,-0.9714958667755127
1783246126811346700,6.6103466796875,-0.6150384545326233,-0.5103933811187744,-0.3857564926147461
1783246126821357800,6.62035791015625,-0.46939656138420105,-0.6389728784561157,0.21865269541740417
1783246126831370000,6.630369873046875,-0.2716117203235626,-0.6839669346809387,0.7301762700080872
1783246126841382000,6.6403818359375,-0.07680974900722504,-0.520545244216919,1.0916471481323242
1783246126851393800,6.650393798828125,0.08006647229194641,-0.20579257607460022,1.2746464014053345
1783246126861406000,6.660406005859375,0.23801136016845703,0.109415702521801,1.3028991222381592
1783246126871416800,6.670416748046875,0.3650534152984619,0.3228626847267151,1.232486605644226
1783246126881428700,6.6804287109375,0.3637023866176605,0.3538661301136017,1.086583137512207
1783246126891441000,6.69044091796875,0.22588615119457245,0.22801999747753143,0.8743419051170349
1783246126901452800,6.700452880859375,0.06858495622873306,0.14434321224689484,0.6235248446464539
1783246126911463700,6.710463623046875,-0.035687562078237534,0.25525784492492676,0.33317455649375916
1783246126921475600,6.7204755859375,-0.0660364106297493,0.5670123100280762,0.028478549793362617
1783246126931487700,6.73048779296875,-0.038534052670001984,0.8534952998161316,-0.15220558643341064
1783246126941499600,6.740499755859375,0.017465034499764442,0.916593611240387,-0.1366812139749527
1783246126951511800,6.75051171875,0.06974490731954575,0.6810510158538818,0.05541900545358658
1783246126961523000,6.76052294921875,0.09348299354314804,0.28684860467910767,0.359212189912796
1783246126971534800,6.770534912109375,0.11554377526044846,-0.040368206799030304,0.6381750702857971
1783246126981546800,6.780546630859375,0.13197627663612366,-0.16311968863010406,0.8193570971488953
1783246126991559000,6.790558837890625,0.13839109241962433,-0.0210820734500885,0.8971496820449829
1783246127001569800,6.80056982421875,0.1181984692811966,0.22972218692302704,0.9591387510299683
1783246127011581700,6.810581787109375,0.1045825406908989,0.3875075578689575,1.0220448970794678
1783246127021593900,6.82059375,0.133183553814888,0.4785383939743042,1.038690447807312
1783246127031605800,6.830605712890625,0.22114816308021545,0.4580940306186676,1.1171860694885254
1783246127041618000,6.840617919921875,0.27628251910209656,0.027267513796687126,0.9699880480766296
1783246127051628800,6.85062890625,0.4160851240158081,-0.1758182793855667,0.636751115322113
1783246127061640700,6.860640625,0.6517354249954224,-0.05274322256445885,0.3988107144832611
1783246127071652600,6.870652587890625,0.7874497175216675,0.13440072536468506,0.2017229199409485
1783246127081664800,6.880664794921875,0.7978576421737671,0.5863444805145264,0.0821017175912857
1783246127091675600,6.890675537109375,0.7147579193115234,0.978133499622345,0.04205336421728134
1783246127101687600,6.9006875,0.6101505756378174,1.1786277294158936,0.09176313132047653
