time,seconds_elapsed,z,y,x
1783246137543349200,0.060349365234375,0.052021574229002,-0.10707207769155502,-0.7709139585494995
1783246137553361200,0.070361083984375,-0.2692328691482544,0.1759905219078064,-1.0927382707595825
1783246137563373300,0.080373291015625,-0.20447006821632385,0.22509047389030457,-1.4505972862243652
1783246137573384200,0.09038427734375,0.19854316115379333,-0.10900228470563889,-1.6742764711380005
1783246137583396000,0.10039599609375,0.6289030313491821,-0.5925520062446594,-1.6958914995193481
1783246137593408300,0.110408203125,0.9125781059265137,-0.8848552703857422,-1.5750887393951416
1783246137603420200,0.120420166015625,1.0787742137908936,-0.7581371068954468,-1.411220908164978
1783246137613432000,0.13043212890625,1.1460696458816528,-0.2796967625617981,-1.2184776067733765
1783246137623443500,0.140443359375,1.104122281074524,0.29968079924583435,-0.9461922645568848
1783246137633455400,0.150455322265625,0.997250497341156,0.7132875919342041,-0.5842772126197815
1783246137643467300,0.16046728515625,0.8733038306236267,0.7704454660415649,-0.15588907897472382
1783246137653479400,0.1704794921875,0.7263127565383911,0.5433899760246277,0.2743445932865143
1783246137663491300,0.1804912109375,0.5733352899551392,0.23384231328964233,0.5870964527130127
1783246137673502200,0.190502197265625,0.4876185357570648,0.08441980183124542,0.6972935199737549
1783246137683514400,0.200514404296875,0.4846036434173584,0.1361996978521347,0.6154715418815613
1783246137693526300,0.2105263671875,0.5448437929153442,0.2806125283241272,0.450664222240448
1783246137703538200,0.2205380859375,0.6388339996337891,0.4077755808830261,0.2866516411304474
1783246137713549300,0.23054931640625,0.7427207231521606,0.49033331871032715,0.1651659607887268
1783246137723561200,0.240561279296875,0.8169636130332947,0.4978957176208496,0.11747527122497559
1783246137733573000,0.250572998046875,0.85936439037323,0.44407564401626587,0.18381087481975555
1783246137743585300,0.260585205078125,0.8605616092681885,0.34004637598991394,0.3291890025138855
1783246137753597200,0.27059716796875,0.8162769675254822,0.22377945482730865,0.5141895413398743
1783246137763608300,0.2806083984375,0.7321686744689941,0.12252382934093475,0.6871387362480164
1783246137773620500,0.290620361328125,0.6034519672393799,-0.033015694469213486,0.7677267789840698
1783246137783632400,0.30063232421875,0.4851716160774231,-0.08586990833282471,0.7388312816619873
1783246137793644300,0.310644287109375,0.4203076660633087,0.04138924181461334,0.6321445107460022
1783246137803656400,0.320656494140625,0.4740825891494751,0.2911725342273712,0.5441826581954956
1783246137813667300,0.330667236328125,0.6422164440155029,0.5847615599632263,0.5770913362503052
1783246137823679200,0.34067919921875,0.9267187118530273,0.6932783722877502,0.7815538644790649
1783246137833691400,0.35069140625,1.1159416437149048,0.3597467541694641,1.0752681493759155
1783246137843703300,0.360703369140625,1.1971689462661743,-0.097566619515419,1.5022270679473877
1783246137853714200,0.370714111328125,1.3577849864959717,-0.36884260177612305,1.9683468341827393
1783246137863726300,0.380726318359375,1.5493769645690918,-0.652576744556427,2.1896040439605713
1783246137873738200,0.39073828125,1.6758227348327637,-0.9323793649673462,2.21606183052063
1783246137883750100,0.400750244140625,1.991867184638977,-0.964303731918335,2.212063789367676
1783246137893762300,0.41076220703125,2.052598476409912,-0.9610653519630432,2.1773130893707275
1783246137903773200,0.420773193359375,2.0970232486724854,-0.5668295621871948,2.443513870239258
1783246137913785300,0.430785400390625,2.018880605697632,-0.22143413126468658,2.739725351333618
1783246137923797200,0.44079736328125,1.5037842988967896,0.13555504381656647,2.8825721740722656
1783246137933809400,0.450809326171875,0.9738389253616333,0.644682765007019,2.883922576904297
1783246137943821300,0.4608212890625,0.6317455768585205,0.6969633102416992,2.638929843902588
1783246137953832400,0.47083251953125,0.410621702671051,1.122428059577942,2.291562795639038
1783246137963844400,0.48084423828125,0.5441452264785767,1.3922110795974731,2.0109663009643555
1783246137973856300,0.490856201171875,0.695266842842102,1.782914638519287,1.8391468524932861
1783246137983868400,0.500868408203125,0.6542940735816956,2.3429453372955322,1.7531112432479858
1783246137993879300,0.51087939453125,0.35134801268577576,2.944066286087036,1.671657919883728
1783246138003891200,0.52089111328125,0.21248871088027954,3.443866491317749,1.4691267013549805
1783246138013903400,0.5309033203125,0.6168053150177002,3.4526896476745605,0.987464427947998
1783246138023915300,0.540915283203125,1.1561288833618164,2.7753117084503174,0.2442094087600708
1783246138033927200,0.55092724609375,1.4534863233566284,1.8105732202529907,-0.4371603727340698
1783246138043938000,0.56093798828125,1.6811316013336182,0.8862771987915039,-1.0142961740493774
1783246138053950200,0.5709501953125,1.9455273151397705,0.00021922530140727758,-1.5866540670394897
1783246138063962000,0.580962158203125,2.107288122177124,-1.0853670835494995,-2.0681610107421875
1783246138073974300,0.590974365234375,2.449039936065674,-1.927449107170105,-2.332829713821411
1783246138083986200,0.600986083984375,2.9005861282348633,-2.3302297592163086,-2.507870674133301
1783246138093997300,0.610997314453125,3.0488533973693848,-1.983851432800293,-2.612400531768799
1783246138104009500,0.621009521484375,2.777573585510254,-1.72878098487854,-2.660029172897339
1783246138114021400,0.631021484375,2.0020081996917725,-1.7640584707260132,-2.789710283279419
1783246138124033300,0.641033203125,1.1635828018188477,-1.6570090055465698,-3.189927577972412
1783246138134045400,0.65104541015625,0.5715727210044861,-1.3086873292922974,-3.9077696800231934
1783246138144056300,0.661056396484375,0.2128622978925705,-0.9872500896453857,-4.604701519012451
1783246138154068200,0.671068115234375,0.16631823778152466,-0.9496169686317444,-4.848946571350098
1783246138164080400,0.681080322265625,0.5439512729644775,-1.4463615417480469,-4.595947742462158
1783246138174092300,0.69109228515625,1.0205481052398682,-2.345903158187866,-4.036284446716309
1783246138184104200,0.701104248046875,1.4214609861373901,-3.832807779312134,-3.294496536254883
1783246138194115000,0.711114990234375,1.947105050086975,-5.650523662567139,-1.9922213554382324
1783246138204127200,0.721127197265625,1.4079854488372803,-6.66562032699585,-1.060781478881836
1783246138214139100,0.73113916015625,0.7701207995414734,-6.1947526931762695,-0.873224139213562
1783246138224151300,0.7411513671875,0.6117247939109802,-4.465793609619141,-0.7673628926277161
1783246138234162400,0.751162353515625,0.5860151648521423,-2.604943037033081,-0.7807908654212952
1783246138244174300,0.76117431640625,0.6251262426376343,-0.6703789830207825,-1.0134252309799194
1783246138254186500,0.7711865234375,0.7229921221733093,1.1789225339889526,-1.3800081014633179
1783246138264198400,0.781198486328125,0.8425987362861633,2.3991494178771973,-1.665067195892334
1783246138274210300,0.791210205078125,0.8856852650642395,3.100558042526245,-1.8716070652008057
1783246138284221200,0.80122119140625,0.8793721795082092,3.3888912200927734,-1.918690800666809
1783246138294233300,0.8112333984375,0.8863232731819153,3.3676576614379883,-1.7799800634384155
1783246138304245200,0.821245361328125,0.9235995411872864,3.177004814147949,-1.5421947240829468
1783246138314257400,0.83125732421875,0.9498380422592163,2.889448404312134,-1.309302568435669
1783246138324269300,0.841269287109375,0.9724991321563721,2.3837103843688965,-1.1078953742980957
1783246138334280200,0.8512802734375,1.181239128112793,1.76134192943573,-0.9092698693275452
1783246138344292000,0.8612919921875,1.6007102727890015,1.0540481805801392,-0.4865838587284088
1783246138354304000,0.871303955078125,1.8081785440444946,0.393620103597641,-0.024834871292114258
1783246138364316200,0.881316162109375,1.7980425357818604,-0.18780064582824707,0.26541197299957275
1783246138374328000,0.891328125,1.7945245504379272,-0.6112251281738281,0.34390729665756226
1783246138384339200,0.901339111328125,1.8285802602767944,-0.8445645570755005,0.3089432716369629
1783246138394351400,0.911351318359375,1.8412798643112183,-0.8501484394073486,0.2698504626750946
1783246138404363300,0.92136328125,1.8459458351135254,-0.7952696681022644,0.19321410357952118
1783246138414375200,0.931375244140625,1.8421201705932617,-0.6991050243377686,0.11841443926095963
1783246138424386300,0.94138623046875,1.7825902700424194,-0.6320816874504089,0.1327088624238968
1783246138434398200,0.951398193359375,1.554721713066101,-0.6791075468063354,0.20388424396514893
1783246138444410000,0.96141015625,1.234992504119873,-0.795272707939148,0.3184836804866791
1783246138454422300,0.97142236328125,1.0477925539016724,-1.1266753673553467,0.4848225712776184
1783246138464434200,0.98143408203125,1.0132956504821777,-1.0736128091812134,0.6675534844398499
1783246138474445000,0.991445068359375,1.0110087394714355,-0.905869722366333,0.9465451836585999
1783246138484457200,1.001457275390625,0.95694500207901,-0.6677706241607666,1.3362269401550293
1783246138494469000,1.01146923828125,0.8805050849914551,-0.6545786261558533,1.7065471410751343
1783246138504481000,1.02148095703125,0.7709307074546814,-0.9603869915008545,1.964336633682251
1783246138514493200,1.0314931640625,0.6876621842384338,-1.4058257341384888,2.0204336643218994
1783246138524504000,1.041504150390625,0.6639208197593689,-1.3250558376312256,1.9710674285888672
1783246138534516200,1.05151611328125,0.8050553202629089,-0.6270301342010498,1.8997602462768555
1783246138544528100,1.061528076171875,0.8043748736381531,-0.06142405793070793,1.7104506492614746
1783246138554540000,1.0715400390625,0.6723449230194092,0.19880087673664093,1.4587750434875488
1783246138564552200,1.08155224609375,0.6975735425949097,0.3168817162513733,1.0597478151321411
1783246138574563300,1.091563232421875,0.8112815022468567,0.16377605497837067,0.5591661930084229
1783246138584575200,1.1015751953125,0.8491929769515991,-0.2740311026573181,0.19345951080322266
1783246138594587100,1.111587158203125,0.8002232909202576,-0.7172538042068481,-0.1151297464966774
1783246138604599300,1.121599365234375,0.7762132883071899,-0.9476686120033264,-0.4126226603984833
1783246138614610200,1.131610107421875,0.7366440892219543,-0.5693271160125732,-0.3510306775569916
1783246138624622000,1.1416220703125,0.5789204239845276,0.0823933482170105,0.07864007353782654
1783246138634634200,1.15163427734375,0.38731563091278076,0.46103066205978394,0.5328080654144287
1783246138644646100,1.161646240234375,0.26971927285194397,0.2578797936439514,0.6591076254844666
1783246138654658000,1.171657958984375,0.2626584470272064,-0.4796943962574005,0.4200519025325775
1783246138664669000,1.1816689453125,0.36495524644851685,-1.5853453874588013,0.08203934133052826
1783246138674681000,1.19168115234375,0.6167659759521484,-2.955271005630493,-0.026351042091846466
1783246138684693000,1.20169287109375,0.933262825012207,-4.281216144561768,0.23041559755802155
1783246138694705200,1.211705078125,1.0669149160385132,-5.015992164611816,0.7368143200874329
1783246138704717000,1.221717041015625,0.8759108185768127,-5.100897789001465,1.2298086881637573
1783246138714728200,1.231728271484375,0.4307616055011749,-4.828320026397705,1.5008349418640137
1783246138724740400,1.241740234375,-0.15985563397407532,-4.241313457489014,1.518606185913086
1783246138734752300,1.251752197265625,-0.7307590246200562,-3.531620502471924,1.2652740478515625
1783246138744764200,1.26176416015625,-1.1538232564926147,-2.886337995529175,0.7757319211959839
1783246138754776300,1.2717763671875,-1.6244161128997803,-2.305108070373535,0.05068761855363846
1783246138764787200,1.281787109375,-1.9201520681381226,-1.7077523469924927,-0.7862035632133484
1783246138774799000,1.291799072265625,-1.8928182125091553,-1.332427740097046,-1.4928573369979858
1783246138784811300,1.301811279296875,-1.670198678970337,-1.1440865993499756,-1.8712966442108154
1783246138794823200,1.3118232421875,-1.3633252382278442,-1.0725857019424438,-1.9507075548171997
1783246138804834000,1.321833984375,-0.905889093875885,-1.026377558708191,-1.797587513923645
1783246138814846000,1.331845947265625,-0.34556421637535095,-0.9613181352615356,-1.4769636392593384
1783246138824858000,1.341858154296875,0.20817358791828156,-0.8507249355316162,-1.0908983945846558
1783246138834870000,1.3518701171875,0.7257896065711975,-0.5903418064117432,-0.7578640580177307
1783246138844882200,1.361882080078125,1.187426209449768,-0.21935221552848816,-0.5025851130485535
1783246138854893300,1.371893310546875,1.5360263586044312,0.0941857174038887,-0.3270583152770996
1783246138864905200,1.3819052734375,1.7184959650039673,0.21936388313770294,-0.22252976894378662
1783246138874917000,1.391917236328125,1.6783840656280518,0.18224021792411804,-0.11972162872552872
1783246138884929300,1.40192919921875,1.4349298477172852,-0.037381574511528015,-0.001220138743519783
1783246138894941200,1.411941162109375,1.1304703950881958,-0.36367499828338623,0.13991940021514893
1783246138904952000,1.4219521484375,0.8755736947059631,-0.6251435875892639,0.2432510256767273
1783246138914964200,1.431964111328125,0.77216637134552,-0.7059891819953918,0.274690717458725
1783246138924976000,1.44197607421875,0.7918125987052917,-0.5963810682296753,0.21945379674434662
1783246138934988300,1.45198828125,0.8350293040275574,-0.39260926842689514,0.11985476315021515
1783246138945000200,1.462000244140625,0.8416085839271545,-0.24286404252052307,0.030571483075618744
1783246138955011000,1.472010986328125,0.8146281242370605,-0.05052177235484123,-0.033083658665418625
1783246138965023000,1.48202294921875,0.7745630741119385,0.23233135044574738,-0.08076212555170059
1783246138975035100,1.49203515625,0.7522143721580505,0.5258923768997192,-0.06891745328903198
1783246138985047000,1.502047119140625,0.7298101782798767,0.7242307066917419,0.005058895796537399
1783246138995058200,1.51205810546875,0.6603365540504456,0.8573828935623169,0.10518523305654526
1783246139005070300,1.5220703125,0.5325085520744324,0.9901838302612305,0.20305059850215912
1783246139015082200,1.532082275390625,0.33736172318458557,1.13515305519104,0.26410970091819763
1783246139025094100,1.54209423828125,0.03944237902760506,1.253907322883606,0.21991093456745148
1783246139035106300,1.552106201171875,-0.4510224163532257,1.2301852703094482,0.045363899320364
1783246139045117200,1.5621171875,-1.1093100309371948,0.999925971031189,-0.19254601001739502
1783246139055129000,1.572129150390625,-1.753017783164978,0.6544303297996521,-0.455583781003952
1783246139065141200,1.582141357421875,-2.2050156593322754,0.5610021352767944,-0.7398922443389893
1783246139075153200,1.592153076171875,-2.4156851768493652,1.0440460443496704,-1.042811393737793
1783246139085165300,1.602165283203125,-2.3668322563171387,1.9925609827041626,-1.4542341232299805
1783246139095176200,1.61217626953125,-2.064389944076538,3.2081856727600098,-1.7939146757125854
1783246139105188000,1.62218798828125,-1.5021003484725952,4.54464054107666,-1.7310731410980225
1783246139115200000,1.632199951171875,-1.0262442827224731,5.472188949584961,-1.373667597770691
1783246139125212200,1.642212158203125,-0.8595075011253357,5.501274108886719,-0.9212287664413452
1783246139135224000,1.65222412109375,-0.9458194971084595,4.540348529815674,-0.6629276871681213
1783246139145235000,1.66223486328125,-1.1520401239395142,3.0124990940093994,-0.4735533595085144
1783246139155247000,1.6722470703125,-1.0938079357147217,1.6726574897766113,0.10138024389743805
1783246139165259000,1.682259033203125,-0.5680058598518372,0.7725080847740173,0.9673740267753601
1783246139175271000,1.69227099609375,0.1787770390510559,0.3096691071987152,1.72958242893219
1783246139185283000,1.702282958984375,0.8593952059745789,0.28536131978034973,2.383390426635742
1783246139195294200,1.712294189453125,1.3127634525299072,0.4992735981941223,3.0024874210357666
1783246139205306000,1.72230615234375,1.5909217596054077,0.5623564124107361,3.487366199493408
1783246139215318300,1.732318359375,1.8549106121063232,0.21139544248580933,3.6540942192077637
1783246139225330200,1.742330078125,2.1423046588897705,-0.48523464798927307,3.4928689002990723
1783246139235342300,1.75234228515625,2.2795608043670654,-1.2724735736846924,3.2268788814544678
1783246139245353200,1.762353271484375,2.1484215259552,-1.8778407573699951,2.937560558319092
1783246139255365000,1.772365234375,1.9167401790618896,-2.1570115089416504,2.671210765838623
1783246139265377000,1.782376953125,1.6651835441589355,-2.0799601078033447,2.4658308029174805
1783246139275389200,1.79238916015625,1.3202818632125854,-1.7240538597106934,2.1775076389312744
1783246139285401000,1.802401123046875,0.7986052632331848,-1.282800316810608,1.6672834157943726
1783246139295412000,1.812411865234375,0.17505435645580292,-0.8707542419433594,0.8816229104995728
1783246139305424100,1.822424072265625,-0.32057851552963257,-0.5793300867080688,-0.12656976282596588
1783246139315436000,1.83243603515625,-0.6961364150047302,-0.27600187063217163,-1.246405839920044
1783246139325448000,1.842447998046875,-0.8895907998085022,0.05935833603143692,-2.266981601715088
1783246139335459600,1.85245947265625,-0.9451166391372681,0.3083242177963257,-2.886324882507324
1783246139345471700,1.8624716796875,-0.8981645703315735,0.517592191696167,-3.0154504776000977
1783246139355483600,1.872483642578125,-0.7530654072761536,0.5667424201965332,-2.7456717491149902
1783246139365495600,1.88249560546875,-0.5343341827392578,0.4454457461833954,-2.1444203853607178
1783246139375507700,1.8925078125,-0.2715737223625183,0.21512918174266815,-1.3195358514785767
1783246139385518600,1.9025185546875,0.08040893077850342,-0.15521414577960968,-0.43614327907562256
1783246139395530500,1.912530517578125,0.4748169481754303,-0.6737220287322998,0.34006085991859436
1783246139405542700,1.922542724609375,0.8395684957504272,-1.2049413919448853,0.9257474541664124
1783246139415554600,1.932554443359375,1.1817173957824707,-1.5899873971939087,1.3088005781173706
1783246139425566500,1.94256640625,1.499851942062378,-1.8632655143737793,1.4818211793899536
1783246139435577600,1.95257763671875,1.7668431997299194,-2.07940673828125,1.5148664712905884
1783246139445589500,1.962589599609375,1.9427456855773926,-2.176990270614624,1.4566426277160645
1783246139455601400,1.972601318359375,2.0512771606445312,-2.129056453704834,1.2808066606521606
1783246139465613600,1.982613525390625,2.131256580352783,-1.9592255353927612,0.9885118007659912
1783246139475625500,1.99262548828125,2.1981852054595947,-1.657940149307251,0.6466700434684753
1783246139485636400,2.00263623046875,2.2732906341552734,-1.413765788078308,0.27305206656455994
1783246139495648500,2.0126484375,2.279574394226074,-1.2526389360427856,-0.12439408153295517
1783246139505660400,2.022660400390625,2.3619368076324463,-0.5348596572875977,-0.3418468236923218
1783246139515672300,2.03267236328125,2.523236036300659,0.31879961490631104,-0.39471325278282166
1783246139525683700,2.04268359375,2.5712177753448486,0.7434217929840088,-0.32641276717185974
1783246139535695600,2.052695556640625,2.4315576553344727,0.8916283249855042,-0.17852582037448883
1783246139545707500,2.06270751953125,2.147120237350464,0.8835403919219971,0.03173073008656502
1783246139555719700,2.0727197265625,1.819644570350647,0.6590260863304138,0.26691898703575134
1783246139565731600,2.082731689453125,1.6167556047439575,0.48622259497642517,0.4632599651813507
1783246139575742500,2.092742431640625,1.51585054397583,0.46354204416275024,0.5686241984367371
1783246139585754600,2.102754638671875,1.3763478994369507,0.6064360737800598,0.6777728199958801
1783246139595766500,2.1127666015625,1.1641898155212402,0.8307557106018066,0.8770947456359863
1783246139605778400,2.1227783203125,0.91339510679245,1.0431153774261475,1.1284534931182861
1783246139615790600,2.13279052734375,0.6323165893554688,1.1871204376220703,1.360902190208435
1783246139625801500,2.142801513671875,0.330404132604599,1.277966022491455,1.553087592124939
1783246139635813400,2.1528134765625,0.008915850892663002,1.318339467048645,1.7122607231140137
1783246139645825500,2.162825439453125,-0.27652016282081604,1.3918906450271606,1.8464891910552979
1783246139655837400,2.17283740234375,-0.456297367811203,1.5523359775543213,1.9036531448364258
1783246139665849300,2.182849365234375,-0.5352782607078552,1.7925654649734497,1.788254737854004
1783246139675860500,2.192860595703125,-0.5242937803268433,2.1310999393463135,1.5252315998077393
1783246139685872600,2.20287255859375,-0.46135783195495605,2.57951021194458,1.270166277885437
1783246139695884500,2.212884521484375,-0.4724472165107727,2.920502185821533,1.138292908668518
1783246139705896700,2.222896728515625,-0.5579018592834473,3.0598537921905518,1.0152322053909302
1783246139715908600,2.23290869140625,-0.7155415415763855,2.6710519790649414,0.6109060049057007
1783246139725919500,2.24291943359375,-0.7736743688583374,1.6844252347946167,-0.020395105704665184
1783246139735931600,2.252931640625,-0.4464930593967438,0.30665457248687744,-0.7249284982681274
1783246139745943600,2.262943603515625,0.2530348300933838,-1.5150138139724731,-1.4889568090438843
1783246139755955500,2.27295556640625,0.9673819541931152,-3.0782434940338135,-2.002718925476074
1783246139765966300,2.28296630859375,1.0604302883148193,-3.2289822101593018,-1.6372992992401123
1783246139775978500,2.292978515625,0.3074134886264801,-2.097442150115967,-0.3560003340244293
1783246139785990400,2.302990478515625,-0.6181555986404419,-1.0246505737304688,0.9273694753646851
1783246139796002600,2.31300244140625,-1.0808207988739014,-0.13362687826156616,1.7478992938995361
1783246139806014500,2.323014404296875,-1.0646554231643677,0.42950665950775146,2.010174036026001
1783246139816025600,2.333025634765625,-0.7624247670173645,0.5798458456993103,1.9246008396148682
1783246139826037500,2.34303759765625,-0.4031285345554352,0.24376723170280457,1.822530746459961
1783246139836049700,2.353049560546875,-0.1191258579492569,-0.5143622756004333,1.911218285560608
1783246139846061600,2.3630615234375,0.07497471570968628,-1.442449688911438,2.1922647953033447
1783246139856073700,2.37307373046875,0.1957796812057495,-2.22957181930542,2.532514810562134
1783246139866084600,2.383084716796875,0.24063065648078918,-2.6500654220581055,2.8038692474365234
1783246139876096500,2.393096435546875,0.1933923065662384,-2.59651780128479,2.8690826892852783
1783246139886108700,2.403108642578125,0.08032939583063126,-2.136201858520508,2.642869234085083
1783246139896120600,2.41312060546875,-0.08639220893383026,-1.369576334953308,2.165200710296631
1783246139906132500,2.423132568359375,-0.29737821221351624,-0.4441488981246948,1.5422502756118774
1783246139916143400,2.433143310546875,-0.49053940176963806,0.511868953704834,0.944037914276123
1783246139926155500,2.443155517578125,-0.5979050397872925,1.2233457565307617,0.4764164984226227
1783246139936167400,2.45316748046875,-0.5821654796600342,1.4125702381134033,0.20282329618930817
1783246139946179600,2.4631796875,-0.4387052059173584,1.1018240451812744,0.14663507044315338
1783246139956191500,2.47319140625,-0.19041708111763,0.4889684319496155,0.26061517000198364
1783246139966202600,2.48320263671875,0.0871894583106041,-0.13567441701889038,0.45313164591789246
1783246139976214500,2.493214599609375,0.35744622349739075,-0.5627961754798889,0.6514085531234741
1783246139986226400,2.503226318359375,0.571287989616394,-0.7833756804466248,0.8065930604934692
1783246139996238600,2.513238525390625,0.7382985353469849,-0.7900088429450989,0.9095322489738464
1783246140006250500,2.52325048828125,0.8645535707473755,-0.6017875671386719,0.9382428526878357
1783246140016261600,2.53326171875,0.9392030835151672,-0.3096177875995636,0.8717314600944519
1783246140026273500,2.5432734375,0.9277067184448242,-0.03320940211415291,0.7055674195289612
1783246140036285700,2.55328564453125,0.8329514265060425,0.21140514314174652,0.42852088809013367
1783246140046297600,2.563297607421875,0.6851528286933899,0.4320801794528961,0.05894188955426216
1783246140056308500,2.57330859375,0.49809372425079346,0.5915579795837402,-0.3691849708557129
1783246140066320400,2.5833203125,0.3061581552028656,0.7715288996696472,-0.8145358562469482
1783246140076332500,2.59333251953125,0.2015494704246521,0.9707010984420776,-1.1939371824264526
1783246140086344400,2.603344482421875,0.1548159271478653,1.15926992893219,-1.4471111297607422
1783246140096356600,2.613356689453125,0.14969199895858765,1.268418788909912,-1.5671316385269165
1783246140106367500,2.623367431640625,0.17533254623413086,1.3326162099838257,-1.562829613685608
1783246140116379400,2.63337939453125,0.2156006097793579,1.391182541847229,-1.481059193611145
1783246140126391300,2.643391357421875,0.2508396804332733,1.3938781023025513,-1.3813941478729248
1783246140136403500,2.653403564453125,0.22125914692878723,1.2661888599395752,-1.2471548318862915
1783246140146415400,2.663415283203125,0.12282957136631012,0.913534939289093,-1.0222419500350952
1783246140156426500,2.673426513671875,0.00006263656541705132,0.40511566400527954,-0.7158061265945435
1783246140166438700,2.683438720703125,-0.12139453738927841,-0.05171017348766327,-0.42495694756507874
1783246140176450600,2.693450439453125,-0.19436942040920258,-0.2859240174293518,-0.18745703995227814
1783246140186462700,2.703462646484375,-0.15220360457897186,-0.31027939915657043,0.022174062207341194
1783246140196474600,2.713474609375,-0.05286981165409088,-0.15204370021820068,0.2131488174200058
1783246140206485500,2.723485595703125,-0.0004594998899847269,0.13255618512630463,0.3766337037086487
1783246140216497400,2.733497314453125,-0.0794893354177475,0.4201330840587616,0.49712073802948
1783246140226509600,2.743509521484375,-0.2820626199245453,0.7074909210205078,0.5481404662132263
1783246140236521500,2.753521484375,-0.5601744055747986,1.0153132677078247,0.4914177656173706
1783246140246533600,2.76353369140625,-0.8783920407295227,1.3716042041778564,0.36633777618408203
1783246140256544500,2.77354443359375,-1.0981049537658691,1.8548954725265503,0.2375212162733078
1783246140266556400,2.783556396484375,-1.1194307804107666,2.405654191970825,0.08545003831386566
1783246140276568300,2.793568359375,-0.8744240999221802,2.81955885887146,-0.17243024706840515
1783246140286580500,2.80358056640625,-0.48969757556915283,2.925143003463745,-0.6617010831832886
1783246140296591600,2.813591552734375,-0.18182124197483063,2.643883228302002,-1.2282273769378662
1783246140306603500,2.823603515625,-0.07079959660768509,1.6655209064483643,-1.6554909944534302
1783246140316615700,2.83361572265625,0.04064809903502464,0.05713928863406181,-1.6740881204605103
1783246140326627600,2.843627685546875,0.35153859853744507,-1.5969692468643188,-0.9647412896156311
1783246140336639200,2.85363916015625,0.8055239319801331,-2.9373457431793213,0.35508137941360474
1783246140346650000,2.863650146484375,1.3040863275527954,-3.558556079864502,2.0325124263763428
1783246140356662000,2.873662109375,1.5157296657562256,-3.1455345153808594,3.665590524673462
1783246140366674200,2.883674072265625,1.2908968925476074,-2.152289867401123,4.7914886474609375
1783246140376686000,2.89368603515625,0.8546417951583862,-1.1456518173217773,5.207980632781982
1783246140386698200,2.9036982421875,0.3857487440109253,-0.4118601679801941,4.99896240234375
1783246140396709000,2.913709228515625,0.040678445249795914,0.09724888950586319,4.2972235679626465
1783246140406721000,2.923720947265625,-0.06257417052984238,0.4489794969558716,3.2086191177368164
1783246140416733200,2.933733154296875,0.0020956359803676605,0.6297066807746887,2.0291197299957275
1783246140426745000,2.9437451171875,0.06751511245965958,0.6819674372673035,1.0846335887908936
1783246140436757000,2.953757080078125,0.01067419908940792,0.600115180015564,0.4757908284664154
1783246140446768000,2.96376806640625,-0.1705707311630249,0.3241797387599945,0.07529599219560623
1783246140456780300,2.9737802734375,-0.4107295274734497,0.05374450236558914,-0.25052765011787415
1783246140466792200,2.983792236328125,-0.6533095240592957,0.006335870828479528,-0.5320369005203247
1783246140476804400,2.993804443359375,-0.7457268238067627,0.13137952983379364,-0.7309414744377136
1783246140486816300,3.003816162109375,-0.6704078316688538,0.33854949474334717,-0.7998182773590088
1783246140496827100,3.0138271484375,-0.5179091095924377,0.4955731928348541,-0.7612844705581665
1783246140506839000,3.023839111328125,-0.32273387908935547,0.472950279712677,-0.6502568125724792
1783246140516851200,3.033851318359375,-0.0479033924639225,0.2976394593715668,-0.4361245036125183
1783246140526863000,3.043863037109375,0.2810063362121582,0.04319257289171219,-0.11235334724187851
1783246140536875300,3.053875244140625,0.6653793454170227,-0.1974266916513443,0.2603384554386139
1783246140546886100,3.06388623046875,1.0622564554214478,-0.427464097738266,0.6039999127388
1783246140556898000,3.07389794921875,1.3917064666748047,-0.6951136589050293,0.8707501292228699
1783246140566910200,3.08391015625,1.5481585264205933,-0.9219470024108887,1.0636200904846191
1783246140576922000,3.093922119140625,1.5594426393508911,-0.9758360385894775,1.1014881134033203
1783246140586934000,3.10393408203125,1.450526237487793,-0.7919756770133972,1.0001813173294067
1783246140596945200,3.113945068359375,1.2994930744171143,-0.6397373676300049,0.9311503171920776
1783246140606957300,3.123957275390625,1.115486741065979,-0.48960432410240173,0.7209783792495728
1783246140616969200,3.13396923828125,0.9628239870071411,-0.21398021280765533,0.3186591565608978
1783246140626981400,3.1439814453125,0.794815182685852,0.06130591407418251,-0.2416604459285736
1783246140636993300,3.1539931640625,0.5776492953300476,0.13191403448581696,-0.8023647665977478
1783246140647004200,3.164004150390625,0.3305182158946991,0.06497691571712494,-1.2614994049072266
1783246140657016000,3.17401611328125,-0.031393393874168396,-0.028384989127516747,-1.5842899084091187
1783246140667028200,3.1840283203125,-0.22266721725463867,0.05437007546424866,-1.7567559480667114
1783246140677040000,3.1940400390625,-0.24326862394809723,0.09557237476110458,-1.7756953239440918
1783246140687051000,3.204051025390625,-0.21877436339855194,0.08226387202739716,-1.6673249006271362
1783246140697063200,3.214063232421875,-0.1362755000591278,0.010812588036060333,-1.50287926197052
1783246140707075000,3.224074951171875,-0.01290438324213028,-0.03958969563245773,-1.3066039085388184
1783246140717087000,3.2340869140625,0.13061895966529846,-0.012079508975148201,-1.0613205432891846
1783246140727099100,3.24409912109375,0.3064201772212982,0.053255919367074966,-0.8069864511489868
1783246140737110000,3.254110107421875,0.50977623462677,0.1335694044828415,-0.5842924118041992
1783246140747122200,3.2641220703125,0.7246084809303284,0.22239738702774048,-0.36771300435066223
1783246140757134000,3.274134033203125,0.9067550897598267,0.3588508367538452,-0.13805049657821655
1783246140767146000,3.28414599609375,0.9941184520721436,0.5566375851631165,0.0926455557346344
1783246140777158100,3.294158203125,0.8440818190574646,0.6888220310211182,0.3628016710281372
1783246140787169300,3.304169189453125,0.6350705027580261,0.7902463674545288,0.6494985818862915
1783246140797181200,3.31418115234375,0.3858795762062073,0.5491392016410828,0.7103366255760193
1783246140807193000,3.324193115234375,0.05019032210111618,0.4645322263240814,0.6477388143539429
1783246140817205200,3.334205322265625,-0.16253472864627838,0.7666898965835571,0.41773760318756104
1783246140827217200,3.344217041015625,-0.10681543499231339,1.522705078125,0.11081025004386902
1783246140837228000,3.35422802734375,0.09409050643444061,2.5520756244659424,-0.03910441696643829
1783246140847240200,3.364240234375,0.17243856191635132,3.1788017749786377,0.0506211593747139
1783246140857252000,3.374252197265625,0.0165949035435915,3.0093860626220703,0.37874045968055725
1783246140867264000,3.384263916015625,-0.16447937488555908,2.129382848739624,0.7305319905281067
1783246140877276200,3.394276123046875,-0.1226419061422348,0.940044641494751,0.6639356017112732
1783246140887287000,3.404287109375,0.1854935884475708,-0.0709809735417366,0.07446106523275375
1783246140897299000,3.414298828125,0.7118895053863525,-0.780640721321106,-0.765302836894989
1783246140907311000,3.42431103515625,1.1431610584259033,-1.252119779586792,-1.2808024883270264
1783246140917323000,3.434322998046875,1.253471851348877,-1.5625088214874268,-1.0391862392425537
1783246140927335200,3.444335205078125,0.882231593132019,-1.3723278045654297,0.007337240036576986
1783246140937346300,3.45434619140625,0.12679560482501984,-0.45101994276046753,1.0879942178726196
1783246140947358200,3.464358154296875,-0.4255959689617157,0.5081992149353027,1.5943447351455688
1783246140957370000,3.4743701171875,-0.6574159264564514,1.2822318077087402,1.3343868255615234
1783246140967382300,3.48438232421875,-0.7077184915542603,1.54535710811615,0.5926487445831299
1783246140977394200,3.494394287109375,-0.6897498369216919,1.1808334589004517,-0.1591017097234726
1783246140987405000,3.504405029296875,-0.7032665610313416,0.4677427411079407,-0.5800696611404419
1783246140997417200,3.514417236328125,-0.7440515160560608,-0.30521178245544434,-0.6444385051727295
1783246141007429000,3.52442919921875,-0.7531776428222656,-1.1002029180526733,-0.4701479971408844
1783246141017441000,3.53444091796875,-0.7369680404663086,-1.7948930263519287,-0.23526865243911743
1783246141027453200,3.544453125,-0.6764805912971497,-2.0460588932037354,-0.040567897260189056
1783246141037464000,3.554464111328125,-0.5885462164878845,-1.660894513130188,0.05269893258810043
1783246141047476000,3.56447607421875,-0.5616292357444763,-1.009419322013855,0.04798176884651184
1783246141057488100,3.574488037109375,-0.630694568157196,-0.42579057812690735,0.032292287796735764
1783246141067500000,3.5845,-0.7909480929374695,-0.13277173042297363,0.0898260772228241
1783246141077512200,3.59451220703125,-0.9770362377166748,-0.245566725730896,0.17960603535175323
1783246141087523300,3.6045234375,-1.0633212327957153,-0.6907786726951599,0.15190298855304718
1783246141097535200,3.61453515625,-0.9686527252197266,-1.1434252262115479,-0.03358885273337364
1783246141107547100,3.624547119140625,-0.7301554679870605,-1.4281014204025269,-0.36091992259025574
1783246141117559300,3.634559326171875,-0.4637298882007599,-1.584267020225525,-0.7497110962867737
1783246141127571200,3.6445712890625,-0.27366337180137634,-1.5902312994003296,-1.0403141975402832
1783246141137582000,3.65458203125,-0.16975349187850952,-1.3800597190856934,-1.1752476692199707
1783246141147594200,3.66459423828125,0.07432392239570618,-1.15228271484375,-1.071606159210205
1783246141157606100,3.674606201171875,0.31806761026382446,-0.9456853270530701,-0.8129310011863708
1783246141167618000,3.6846181640625,0.4382348656654358,-0.6545979976654053,-0.5866579413414001
1783246141177630200,3.694630126953125,0.49787741899490356,-0.3764438331127167,-0.444290429353714
1783246141187641000,3.70464111328125,0.5102244019508362,-0.287815123796463,-0.3409457206726074
1783246141197653000,3.714653076171875,0.503740131855011,-0.24861152470111847,-0.2760676443576813
1783246141207665200,3.7246650390625,0.5760893225669861,-0.1393946409225464,-0.32026731967926025
1783246141217677000,3.734677001953125,0.6873423457145691,0.224394753575325,-0.5540484189987183
1783246141227688200,3.744688232421875,0.7678607702255249,0.46286576986312866,-0.7879848480224609
1783246141237700000,3.7547001953125,0.8340200781822205,0.44342148303985596,-0.8898880481719971
1783246141247712300,3.764712158203125,0.8696632385253906,0.34866249561309814,-0.8512775301933289
1783246141257724200,3.77472412109375,0.8499881029129028,0.23952721059322357,-0.6973769068717957
1783246141267736300,3.784736328125,0.6927129030227661,0.056957073509693146,-0.4061281085014343
1783246141277747200,3.794747314453125,0.4705056846141815,-0.30668503046035767,-0.023881945759058
1783246141287759000,3.804759033203125,0.3415622413158417,-0.6460363268852234,0.23456548154354095
1783246141297771300,3.814771240234375,0.3031772971153259,-0.8605326414108276,0.3808090090751648
1783246141307783200,3.824783203125,0.27057895064353943,-0.7534109354019165,0.33133232593536377
1783246141317795000,3.834795166015625,0.19709672033786774,-0.2513890862464905,0.06157993525266647
1783246141327806200,3.84480615234375,0.102022185921669,0.4600438177585602,-0.38515108823776245
1783246141337817900,3.85481787109375,-0.07660295069217682,1.2573965787887573,-0.8093223571777344
1783246141347829800,3.864829833984375,-0.3003182113170624,1.9166462421417236,-1.013132929801941
1783246141357841700,3.874841552734375,-0.5159652829170227,2.1911590099334717,-0.9695734977722168
1783246141367853800,3.884853759765625,-0.7360114455223083,2.1342556476593018,-0.7757477760314941
1783246141377865000,3.894864990234375,-1.007142186164856,1.9309940338134766,-0.5000959038734436
1783246141387876900,3.904876953125,-1.44309663772583,1.9057164192199707,-0.07804673910140991
1783246141397889000,3.914888916015625,-1.902620553970337,2.0215039253234863,0.667630136013031
1783246141407901000,3.92490087890625,-2.338505268096924,1.9384793043136597,1.630858302116394
1783246141417912800,3.934912841796875,-2.500903844833374,1.6732945442199707,2.621364116668701
1783246141427924000,3.944924072265625,-2.4901211261749268,1.441245436668396,3.398958683013916
1783246141437935900,3.954935791015625,-2.296963930130005,1.5325026512145996,4.018333435058594
1783246141447947800,3.96494775390625,-1.8339160680770874,1.9974907636642456,4.375453472137451
1783246141457960000,3.9749599609375,-1.1741267442703247,2.5087430477142334,4.3867878913879395
1783246141467971800,3.984971923828125,-0.5018815994262695,2.331693172454834,4.302323818206787
1783246141477982700,3.994982666015625,0.11936411261558533,1.7269859313964844,4.288588047027588
1783246141487995000,4.004994873046875,1.035792350769043,1.383829116821289,4.153128623962402
1783246141498006800,4.0150068359375,1.8284138441085815,1.6208701133728027,3.7922592163085938
1783246141508018700,4.025018798828125,2.0473763942718506,2.200532913208008,3.2946465015411377
1783246141518030800,4.03503076171875,1.7576584815979004,1.9529458284378052,2.5671162605285645
1783246141528041700,4.045041748046875,1.1910287141799927,0.7134760618209839,1.6699259281158447
1783246141538053600,4.0550537109375,0.8392016887664795,0.03536602482199669,1.0860798358917236
1783246141548065800,4.065065673828125,0.7057940363883972,-0.24929553270339966,0.46375569701194763
1783246141558077700,4.07507763671875,0.6450673341751099,-0.38256916403770447,-0.1882316768169403
1783246141568089600,4.085089599609375,0.5524327754974365,-0.3302215039730072,-0.7380908131599426
1783246141578101000,4.09510107421875,0.5264211297035217,-0.14338639378547668,-1.1708577871322632
1783246141588113000,4.10511279296875,0.5799636244773865,0.3413032293319702,-1.5316067934036255
1783246141598124800,4.115124755859375,0.6523608565330505,1.0585715770721436,-1.939515233039856
1783246141608137000,4.125136962890625,0.6813174486160278,1.8028721809387207,-2.410733938217163
1783246141618148900,4.13514892578125,0.6758188009262085,2.282504081726074,-2.79774808883667
1783246141628159700,4.14515966796875,0.5456697344779968,2.522254467010498,-3.0258638858795166
1783246141638172000,4.155171875,0.27427393198013306,2.625525712966919,-2.927384853363037
1783246141648183800,4.165183837890625,0.00038653425872325897,2.6373140811920166,-2.585850238800049
1783246141658195700,4.17519580078125,-0.07526455074548721,2.476818799972534,-2.083843231201172
1783246141668207900,4.185207763671875,0.02332828938961029,2.123231887817383,-1.6144306659698486
1783246141678218800,4.19521875,0.18338720500469208,1.5213754177093506,-1.2357257604599
1783246141688230700,4.205230712890625,0.3108549416065216,0.6628854870796204,-0.9819800853729248
1783246141698242800,4.215242919921875,0.3997696340084076,-0.16657625138759613,-0.8337029814720154
1783246141708254700,4.225254638671875,0.5190283060073853,-0.805564820766449,-0.7014501690864563
1783246141718266600,4.2352666015625,0.6562567353248596,-1.0505846738815308,-0.5606619119644165
1783246141728278000,4.245278076171875,0.7830919623374939,-0.7811550498008728,-0.3999737799167633
1783246141738290000,4.2552900390625,0.8084287047386169,-0.3546316921710968,-0.25789493322372437
1783246141748301800,4.2653017578125,0.7489685416221619,0.09178968518972397,-0.14411422610282898
1783246141758314000,4.27531396484375,0.6620293855667114,0.5277004241943359,-0.11118024587631226
1783246141768324900,4.285324951171875,0.5910636782646179,0.886907160282135,-0.1564687341451645
1783246141778336800,4.295336669921875,0.5391384363174438,1.0819448232650757,-0.2315341979265213
1783246141788349000,4.305348876953125,0.46687063574790955,1.2289302349090576,-0.3737639784812927
1783246141798360800,4.31536083984375,0.4245343506336212,1.239365577697754,-0.39453449845314026
1783246141808372700,4.325372802734375,0.33709296584129333,1.0061862468719482,-0.41847819089889526
1783246141818385000,4.335385009765625,0.2135917991399765,0.800896406173706,-0.4847821295261383
1783246141828395800,4.345395751953125,0.04702556133270264,0.7562963366508484,-0.5888463854789734
1783246141838407700,4.35540771484375,-0.15669667720794678,0.975551962852478,-0.6872347593307495
1783246141848419800,4.365419921875,-0.2543772757053375,1.4199998378753662,-0.670074999332428
1783246141858431700,4.375431640625,-0.23731358349323273,1.8841243982315063,-0.5812758803367615
1783246141868443600,4.385443603515625,-0.20994171500205994,2.190638780593872,-0.43273553252220154
1783246141878455000,4.395455078125,-0.16431990265846252,2.1678528785705566,-0.17042505741119385
1783246141888467000,4.405467041015625,-0.1540573537349701,1.7881802320480347,0.24053101241588593
1783246141898478800,4.415478759765625,-0.2128722071647644,1.1710104942321777,0.7598152160644531
1783246141908491000,4.425490966796875,-0.27697911858558655,0.4973619282245636,1.2758769989013672
1783246141918502000,4.435501953125,-0.29466357827186584,0.15654149651527405,1.6111050844192505
1783246141928513800,4.445513671875,-0.19329792261123657,0.18485534191131592,1.6949411630630493
1783246141938526000,4.45552587890625,-0.09098938852548599,0.3634309470653534,1.5373347997665405
1783246141948537900,4.465537841796875,-0.10877510905265808,0.6082121729850769,1.2699487209320068
1783246141958549800,4.4755498046875,-0.23385153710842133,0.8696887493133545,0.9492231011390686
1783246141968561000,4.485560791015625,-0.3068023920059204,1.3340750932693481,0.7253958582878113
1783246141978572800,4.49557275390625,-0.29656413197517395,1.8576315641403198,0.6710506081581116
1783246141988584700,4.505584716796875,-0.30004119873046875,2.251133680343628,0.8120409250259399
1783246141998596900,4.515596923828125,-0.2566220760345459,2.128385543823242,1.2273907661437988
1783246142008608800,4.52560888671875,-0.3278312385082245,1.7024531364440918,1.7187386751174927
1783246142018619600,4.53561962890625,-0.5233402848243713,1.217667579650879,2.2209229469299316
1783246142028631800,4.5456318359375,-0.6796061396598816,1.0228080749511719,2.573759078979492
1783246142038643700,4.555643798828125,-0.5994007587432861,1.178518533706665,2.6173675060272217
1783246142048656000,4.56565576171875,-0.388942688703537,1.3533512353897095,2.2775583267211914
1783246142058667800,4.575667724609375,-0.16616100072860718,1.5995421409606934,1.6710681915283203
1783246142068679000,4.585678955078125,0.06286084651947021,1.7291291952133179,0.9470029473304749
1783246142078690800,4.59569091796875,0.3319157361984253,1.4109150171279907,0.20961891114711761
1783246142088703000,4.605702880859375,0.4690488278865814,0.4215301275253296,-0.2979460656642914
1783246142098715000,4.61571484375,0.34521132707595825,-0.7957384586334229,-0.552334189414978
1783246142108726800,4.625726806640625,0.17758773267269135,-1.654435634613037,-0.753989040851593
1783246142118737700,4.635737548828125,0.13867123425006866,-1.8465858697891235,-1.0186090469360352
1783246142128749800,4.645749755859375,0.13002313673496246,-1.3258978128433228,-1.3263369798660278
1783246142138761700,4.65576171875,-0.03208000957965851,-0.544091522693634,-1.5862574577331543
1783246142148774000,4.66577392578125,-0.3852449357509613,0.015878351405262947,-1.672731637954712
1783246142158785800,4.675785888671875,-0.7659595012664795,0.15532173216342926,-1.5808110237121582
1783246142168796700,4.685796630859375,-1.0317974090576172,-0.044159743934869766,-1.376171350479126
1783246142178808800,4.695808837890625,-1.1813740730285645,-0.4993336796760559,-1.0898988246917725
1783246142188820700,4.70582080078125,-1.2427761554718018,-0.9872042536735535,-0.794074296951294
1783246142198832600,4.71583251953125,-1.1832140684127808,-1.3373675346374512,-0.6866481900215149
1783246142208844800,4.7258447265625,-1.0272821187973022,-1.4124579429626465,-0.7010286450386047
1783246142218856000,4.73585595703125,-0.7653034329414368,-1.2595914602279663,-0.701839029788971
1783246142228867800,4.745867919921875,-0.4221412241458893,-1.0383670330047607,-0.6230007410049438
1783246142238880000,4.7558798828125,-0.07204657793045044,-0.8927725553512573,-0.46069493889808655
1783246142248892000,4.765891845703125,0.19585029780864716,-0.8673729300498962,-0.2456381767988205
1783246142258903800,4.77590380859375,0.3602038323879242,-0.9238926768302917,-0.027264036238193512
1783246142268914700,4.785914794921875,0.380136638879776,-0.9617944359779358,0.16812147200107574
1783246142278926800,4.7959267578125,0.2530314028263092,-0.9671202301979065,0.3085126578807831
1783246142288938800,4.805938720703125,0.0451672226190567,-0.8298768401145935,0.3527863025665283
1783246142298951000,4.815950927734375,-0.17058397829532623,-0.4972991347312927,0.29381218552589417
1783246142308962800,4.825962890625,-0.34883978962898254,-0.10631893575191498,0.194817915558815
1783246142318973700,4.8359736328125,-0.4863151013851166,0.2112497091293335,0.11391906440258026
1783246142328985900,4.84598583984375,-0.6089583039283752,0.3378850519657135,0.07609781622886658
1783246142338998800,4.855998779296875,-0.6952401995658875,0.2723529040813446,0.06760765612125397
1783246142349010700,4.8660107421875,-0.73362135887146,0.13267949223518372,0.06127020716667175
1783246142359022800,4.87602294921875,-0.6865992546081543,0.03092063218355179,0.09346063435077667
1783246142369033700,4.88603369140625,-0.6056073904037476,0.14851044118404388,0.12012336403131485
1783246142379045600,4.896045654296875,-0.3589555323123932,0.24485960602760315,0.21846191585063934
1783246142389057800,4.906057861328125,-0.1038600280880928,0.11313629895448685,0.3123411536216736
1783246142399069700,4.916069580078125,0.01292517688125372,-0.08095008879899979,0.36250072717666626
1783246142409081600,4.92608154296875,0.07099824398756027,-0.1412510722875595,0.4195290803909302
1783246142419092700,4.9360927734375,0.14720432460308075,-0.02477479912340641,0.4417334496974945
1783246142429105000,4.94610498046875,0.18404152989387512,0.06291121989488602,0.4139501452445984
1783246142439116800,4.95611669921875,0.10125851631164551,-0.03511787950992584,0.358205109834671
1783246142449129000,4.96612890625,-0.07677923142910004,-0.2158624678850174,0.3275434970855713
1783246142459140900,4.976140869140625,-0.30136626958847046,-0.31215330958366394,0.36697107553482056
1783246142469151700,4.98615185546875,-0.5040092468261719,-0.31336915493011475,0.4141106903553009
1783246142479164000,4.996163818359375,-0.6050951480865479,-0.10517707467079163,0.5274186134338379
1783246142489175800,5.00617578125,-0.5705739259719849,0.315407931804657,0.7479121685028076
1783246142499187700,5.016187744140625,-0.30284181237220764,0.9323872327804565,1.1978574991226196
1783246142509200000,5.026199951171875,-0.14148323237895966,0.8042780756950378,1.5276904106140137
1783246142519210800,5.036210693359375,-0.22413389384746552,0.5244799852371216,1.951861023902893
1783246142529222700,5.04622265625,-0.45832890272140503,0.582973301410675,2.429893732070923
1783246142539234800,5.05623486328125,-0.5960454940795898,0.5178017616271973,2.7251086235046387
1783246142549246700,5.066246826171875,-0.6377230882644653,0.40790489315986633,2.8475539684295654
1783246142559258600,5.076258544921875,-0.6855236291885376,0.4223637282848358,2.81594181060791
1783246142569269800,5.086269775390625,-0.8385321497917175,0.4462517201900482,2.5633628368377686
1783246142579282000,5.096281982421875,-1.081769347190857,0.3541167080402374,2.0789175033569336
1783246142589293800,5.1062939453125,-1.2569299936294556,0.42988449335098267,1.4774136543273926
1783246142599306000,5.116305908203125,-1.333217740058899,0.5576168298721313,0.8899818062782288
1783246142609318000,5.12631787109375,-1.273362398147583,0.41234809160232544,0.3566907048225403
1783246142619328800,5.136328857421875,-1.049298644065857,0.06722558289766312,-0.0014802201185375452
1783246142629341000,5.1463408203125,-0.7814257144927979,-0.23836606740951538,-0.14553894102573395
1783246142639352800,5.156352783203125,-0.5766353011131287,-0.4995553195476532,-0.12681078910827637
1783246142649364700,5.16636474609375,-0.4294000267982483,-0.7462862730026245,-0.048233162611722946
1783246142659375600,5.176375732421875,-0.3717194199562073,-1.1625958681106567,-0.09074573218822479
1783246142669387800,5.1863876953125,-0.5009210705757141,-1.6144145727157593,-0.2626136839389801
1783246142679399700,5.196399658203125,-0.8063806295394897,-1.6944382190704346,-0.49337658286094666
1783246142689411800,5.206411865234375,-1.098444938659668,-1.5502303838729858,-0.7906720042228699
1783246142699423700,5.216423828125,-1.2568875551223755,-1.3665636777877808,-1.1360230445861816
1783246142709435600,5.226435546875,-1.3358097076416016,-1.260811686515808,-1.4489860534667969
1783246142719446800,5.23644677734375,-1.2688993215560913,-1.2551509141921997,-1.720444679260254
1783246142729458700,5.246458740234375,-1.0083791017532349,-1.368163824081421,-1.9091932773590088
1783246142739470800,5.256470947265625,-0.5868070721626282,-1.5059467554092407,-1.9499801397323608
1783246142749482800,5.266482666015625,-0.23716184496879578,-1.7001357078552246,-1.8595491647720337
1783246142759494000,5.276493896484375,-0.043714072555303574,-1.864729881286621,-1.6770129203796387
1783246142769505800,5.286505859375,0.010259468108415604,-1.8171008825302124,-1.4938782453536987
1783246142779518000,5.29651806640625,-0.03944310545921326,-1.5049954652786255,-1.3535360097885132
1783246142789529900,5.30652978515625,-0.11922812461853027,-1.099709153175354,-1.2410656213760376
1783246142799541800,5.316541748046875,-0.16345977783203125,-0.736448347568512,-1.105197787284851
1783246142809552600,5.326552734375,-0.08791498839855194,-0.4226534366607666,-0.8880998492240906
1783246142819564800,5.336564697265625,-0.03141362965106964,-0.23037004470825195,-0.65680992603302
1783246142829576700,5.34657666015625,-0.08027070015668869,-0.24899357557296753,-0.4784267246723175
1783246142839588900,5.3565888671875,-0.1807432472705841,-0.28957268595695496,-0.3446026146411896
1783246142849600800,5.366600830078125,-0.22515107691287994,-0.24166898429393768,-0.2650531530380249
1783246142859611600,5.376611572265625,-0.19523125886917114,-0.10485120117664337,-0.25095465779304504
1783246142869623600,5.38662353515625,-0.12796489894390106,0.07462533563375473,-0.2731817662715912
1783246142879635700,5.3966357421875,-0.07189176231622696,0.19560156762599945,-0.29197728633880615
1783246142889647600,5.406647705078125,-0.0595768466591835,0.15248598158359528,-0.26844170689582825
1783246142899659800,5.41665966796875,-0.09452710300683975,-0.012094969861209393,-0.2058936357498169
1783246142909671000,5.4266708984375,-0.15537327527999878,-0.13934653997421265,-0.1322758048772812
1783246142919682800,5.436682861328125,-0.21758072078227997,-0.19982799887657166,-0.11096492409706116
1783246142929695000,5.446695068359375,-0.24567802250385284,-0.11610874533653259,-0.14041264355182648
1783246142939707000,5.456706787109375,-0.27087074518203735,0.05567951872944832,-0.1991443932056427
1783246142949718800,5.46671875,-0.3173915445804596,0.2119738757610321,-0.24301506578922272
1783246142959729700,5.476729736328125,-0.36212357878685,0.28542280197143555,-0.22476015985012054
1783246142969741800,5.486741943359375,-0.35944896936416626,0.28753069043159485,-0.14135980606079102
1783246142979753700,5.496753662109375,-0.30967608094215393,0.25690141320228577,-0.015143021009862423
1783246142989766000,5.506765869140625,-0.24877017736434937,0.2366647869348526,0.10159752517938614
1783246142999777800,5.51677783203125,-0.21661944687366486,0.20331934094429016,0.18084095418453217
1783246143009788700,5.52678857421875,-0.22724215686321259,0.20144911110401154,0.21615418791770935
1783246143019800600,5.536800537109375,-0.28386014699935913,0.3031997084617615,0.17540809512138367
1783246143029812700,5.546812744140625,-0.3807167410850525,0.501778244972229,0.09270995855331421
1783246143039824600,5.55682470703125,-0.486368864774704,0.6852068901062012,0.07887537032365799
1783246143049836800,5.5668369140625,-0.571389377117157,0.7383514642715454,0.21399244666099548
1783246143059848000,5.576847900390625,-0.669415295124054,0.6857548356056213,0.40919041633605957
1783246143069859800,5.58685986328125,-0.7832472324371338,0.6381890177726746,0.5280156135559082
1783246143079871700,5.596871826171875,-0.8229743838310242,0.6530763506889343,0.5080925226211548
1783246143089884000,5.6068837890625,-0.7730860710144043,0.648878276348114,0.36766764521598816
1783246143099895800,5.616895751953125,-0.6898266077041626,0.6814942955970764,0.1967502385377884
1783246143109906700,5.62690673828125,-0.6354768872261047,0.7854860424995422,0.033001240342855453
1783246143119918800,5.6369189453125,-0.6867257356643677,0.9603949785232544,-0.11419140547513962
1783246143129930800,5.6469306640625,-0.7693770527839661,1.3159829378128052,-0.04544532299041748
1783246143139943000,5.65694287109375,-0.8686663508415222,1.7092524766921997,0.2631535232067108
1783246143149954800,5.666954833984375,-1.117086410522461,1.7954959869384766,0.6871302723884583
1783246143159965700,5.676965576171875,-1.41696298122406,1.6110880374908447,1.202618956565857
1783246143169977600,5.6869775390625,-1.5022436380386353,1.1374542713165283,1.6971001625061035
1783246143179989800,5.69698974609375,-1.343122124671936,0.36192211508750916,1.9033039808273315
1783246143190001700,5.707001708984375,-1.0414283275604248,-0.4623463749885559,1.6417500972747803
1783246143200013800,5.717013916015625,-0.5229659080505371,-0.9260275363922119,1.0475785732269287
1783246143210025000,5.72702490234375,0.15278087556362152,-1.0995001792907715,0.3316807448863983
1783246143220036900,5.737036865234375,0.6732379198074341,-1.3117374181747437,-0.5091609954833984
1783246143230048800,5.747048828125,0.7237242460250854,-1.475152611732483,-1.354149341583252
1783246143240061000,5.75706103515625,0.3797096312046051,-1.2383300065994263,-1.8168221712112427
1783246143250072800,5.76707275390625,-0.07096705585718155,-0.8948336839675903,-1.786719799041748
1783246143260083700,5.777083740234375,-0.49892640113830566,-0.5838422775268555,-1.3734771013259888
1783246143270096000,5.787095947265625,-0.821269154548645,-0.36622142791748047,-0.8103715181350708
1783246143280107800,5.797107666015625,-0.8883339166641235,-0.39450231194496155,-0.3006749749183655
1783246143290120000,5.807119873046875,-0.7404427528381348,-0.7185531258583069,0.09021248668432236
1783246143300131800,5.8171318359375,-0.5519916415214539,-1.1391903162002563,0.31327566504478455
1783246143310142700,5.827142822265625,-0.31961551308631897,-1.4822524785995483,0.2865249812602997
1783246143320154600,5.837154541015625,0.015060754492878914,-1.6122695207595825,0.008330374956130981
1783246143330166800,5.847166748046875,0.3084714114665985,-1.4789668321609497,-0.4453003704547882
1783246143340178400,5.857178466796875,0.30150270462036133,-1.1698871850967407,-0.9857415556907654
1783246143350190600,5.867190673828125,0.05511939525604248,-0.722527265548706,-1.5005813837051392
1783246143360201500,5.877201416015625,-0.27698051929473877,-0.26039451360702515,-1.8806153535842896
1783246143370213600,5.887213623046875,-0.607965886592865,0.07082895189523697,-2.0400946140289307
1783246143380225500,5.8972255859375,-0.8565149903297424,0.21347638964653015,-1.9185996055603027
1783246143390237700,5.90723779296875,-0.9560521245002747,0.20789344608783722,-1.5189515352249146
1783246143400249600,5.91724951171875,-0.8743987679481506,0.10950802266597748,-0.9136389493942261
1783246143410260500,5.927260498046875,-0.6694939732551575,-0.03242579102516174,-0.21690578758716583
1783246143420272600,5.937272705078125,-0.43377411365509033,-0.14620642364025116,0.4484003186225891
1783246143430284500,5.947284423828125,-0.22426065802574158,-0.2418278604745865,0.9577545523643494
1783246143440296400,5.95729638671875,-0.07123249769210815,-0.3015979528427124,1.243360996246338
1783246143450308600,5.96730859375,0.010382328182458878,-0.26307281851768494,1.276099681854248
1783246143460319500,5.977319580078125,0.0013070739805698395,-0.09072474390268326,1.0587432384490967
1783246143470331400,5.987331298828125,-0.08575082570314407,0.10901342332363129,0.6775162816047668
1783246143480343600,5.997343505859375,-0.1940179169178009,0.2176738679409027,0.2570907771587372
1783246143490355500,6.00735546875,-0.2777169942855835,0.202781543135643,-0.10210978239774704
1783246143500367600,6.01736767578125,-0.32164743542671204,0.1034991666674614,-0.3792489767074585
1783246143510378500,6.02737841796875,-0.29878300428390503,-0.043987374752759933,-0.5463176369667053
1783246143520390400,6.037390380859375,-0.22871923446655273,-0.12298445403575897,-0.5938795804977417
1783246143530402300,6.04740234375,-0.15446339547634125,-0.08788719773292542,-0.5432144999504089
1783246143540414500,6.05741455078125,-0.063495934009552,0.034080516546964645,-0.4311113655567169
1783246143550425600,6.067425537109375,0.026607288047671318,0.18514323234558105,-0.2900514602661133
1783246143560437500,6.0774375,0.10279766470193863,0.22706937789916992,-0.0958542749285698
1783246143570449700,6.08744970703125,0.13692094385623932,0.15301531553268433,0.16483472287654877
1783246143580461600,6.097461669921875,0.12141682207584381,0.05875779688358307,0.45355066657066345
1783246143590473500,6.107473388671875,0.06544574350118637,0.0374152734875679,0.7123439311981201
1783246143600484600,6.117484619140625,-0.020085405558347702,0.08236809819936752,0.9070113897323608
1783246143610496500,6.12749658203125,-0.12874889373779297,0.15678121149539948,1.053587794303894
1783246143620508400,6.13750830078125,-0.23310166597366333,0.24865227937698364,1.1255037784576416
1783246143630520600,6.1475205078125,-0.31503164768218994,0.32398223876953125,1.095421314239502
1783246143640532500,6.157532470703125,-0.3801800310611725,0.45087066292762756,0.9990460872650146
1783246143650543400,6.16754345703125,-0.4229152500629425,0.6216328144073486,0.8422401547431946
1783246143660555500,6.177555419921875,-0.3703249990940094,0.8108437657356262,0.687321662902832
1783246143670567400,6.1875673828125,-0.21969309449195862,0.9769960641860962,0.6347268223762512
1783246143680579300,6.197579345703125,-0.03587852790951729,0.9721831679344177,0.7221898436546326
1783246143690591500,6.207591552734375,0.06941008567810059,0.7665815353393555,0.9135711193084717
1783246143700602600,6.2176025390625,0.0030241345521062613,0.590206503868103,1.1942979097366333
1783246143710614500,6.227614501953125,-0.18830597400665283,0.6631964445114136,1.4948956966400146
1783246143720626700,6.237626708984375,-0.4658816456794739,0.9093276858329773,1.736663579940796
1783246143730638600,6.247638671875,-0.8241611123085022,0.9474687576293945,1.7614150047302246
1783246143740650500,6.257650390625,-1.123328685760498,0.8162487149238586,1.597544550895691
1783246143750661600,6.26766162109375,-1.2457982301712036,0.5472230315208435,1.296212911605835
1783246143760673500,6.277673583984375,-1.1393526792526245,0.009825358167290688,0.8787882328033447
1783246143770685400,6.287685546875,-0.749988853931427,-0.53193199634552,0.46169817447662354
1783246143780697600,6.297697509765625,-0.17595963180065155,-1.0845792293548584,-0.14382155239582062
1783246143790709500,6.30770947265625,0.27136367559432983,-1.6833957433700562,-1.0683549642562866
1783246143800720400,6.317720458984375,0.41680848598480225,-1.8029191493988037,-1.804010272026062
1783246143810732500,6.327732666015625,0.3171030580997467,-1.453954815864563,-2.03912615776062
1783246143820744400,6.337744384765625,-0.004096249118447304,-1.0173043012619019,-1.9504960775375366
1783246143830756400,6.34775634765625,-0.47609803080558777,-0.44052156805992126,-1.667148470878601
1783246143840768500,6.3577685546875,-0.926209032535553,0.04196332022547722,-1.3275896310806274
1783246143850779600,6.367779541015625,-1.2481024265289307,0.22546178102493286,-0.9668392539024353
1783246143860791600,6.37779150390625,-1.4449177980422974,0.10249324142932892,-0.6642879247665405
1783246143870803700,6.3878037109375,-1.5096848011016846,-0.30590692162513733,-0.5215206146240234
1783246143880815600,6.397815673828125,-1.374324083328247,-0.7350226044654846,-0.6175448894500732
1783246143890827500,6.40782763671875,-0.9688993692398071,-0.9872928261756897,-0.9330501556396484
1783246143900838700,6.417838623046875,-0.3849943280220032,-1.057856798171997,-1.3355778455734253
1783246143910850600,6.4278505859375,0.10873547196388245,-1.0137397050857544,-1.6717513799667358
1783246143920862500,6.437862548828125,0.3090935945510864,-0.8430635333061218,-1.8683089017868042
1783246143930874600,6.44787451171875,0.2956562936306,-0.5253031849861145,-1.8969671726226807
1783246143940886500,6.457886474609375,0.16305352747440338,-0.23274749517440796,-1.7781907320022583
1783246143950897400,6.4678974609375,-0.06598854809999466,-0.019869688898324966,-1.517746090888977
1783246143960909600,6.47790966796875,-0.36750897765159607,0.04492315277457237,-1.1710845232009888
1783246143970921500,6.48792138671875,-0.6424469947814941,0.007281023543328047,-0.8198818564414978
1783246143980933400,6.497933349609375,-0.7860334515571594,-0.024495281279087067,-0.5098494291305542
1783246143990945500,6.507945556640625,-0.80147385597229,-0.05379393324255943,-0.241972416639328
1783246144000956400,6.517956298828125,-0.7170377969741821,-0.10167304426431656,-0.018196582794189453
1783246144010968300,6.52796826171875,-0.554995596408844,-0.12872298061847687,0.16335295140743256
1783246144020980500,6.53798046875,-0.346949964761734,-0.12166561186313629,0.2943493127822876
1783246144030992400,6.547992431640625,-0.16589237749576569,-0.12027767300605774,0.3568263649940491
1783246144041004500,6.558004638671875,-0.06358172744512558,-0.14554306864738464,0.36678579449653625
1783246144051015700,6.568015625,-0.039125338196754456,-0.1879911571741104,0.3178912401199341
1783246144061027600,6.578027587890625,-0.08989237993955612,-0.21779991686344147,0.22007334232330322
1783246144071039500,6.58803955078125,-0.18160727620124817,-0.22335942089557648,0.10878127813339233
1783246144081051600,6.5980517578125,-0.258991003036499,-0.1929895281791687,0.013773541897535324
1783246144091063600,6.6080634765625,-0.3314705491065979,-0.12689706683158875,-0.04578927904367447
1783246144101074400,6.618074462890625,-0.37040647864341736,-0.021245477721095085,-0.035408008843660355
1783246144111086600,6.628086669921875,-0.3572765588760376,0.05749327316880226,0.04180315509438515
1783246144121098500,6.638098388671875,-0.31430354714393616,0.06001848354935646,0.17798097431659698
1783246144131110400,6.6481103515625,-0.2851788103580475,-0.04174020513892174,0.3359394967556
1783246144141122600,6.65812255859375,-0.2876875102519989,-0.2190505415201187,0.4822956323623657
1783246144151133400,6.668133544921875,-0.27347615361213684,-0.2936550974845886,0.5751242637634277
1783246144161145300,6.678145263671875,-0.20942500233650208,-0.16753046214580536,0.6474589109420776
1783246144171157500,6.688157470703125,-0.17029380798339844,0.1104293018579483,0.7300538420677185
1783246144181169400,6.69816943359375,-0.2234923094511032,0.400078147649765,0.8151434659957886
1783246144191181300,6.708181396484375,-0.3702259063720703,0.5791876316070557,0.9063084721565247
1783246144201192700,6.718192626953125,-0.5288124084472656,0.5702721476554871,1.0275312662124634
1783246144211204600,6.72820458984375,-0.5885276198387146,0.4826723039150238,1.168479084968567
1783246144221216500,6.738216552734375,-0.47307127714157104,0.44156748056411743,1.2684345245361328
1783246144231228700,6.748228759765625,-0.28071317076683044,0.49368810653686523,1.2960283756256104
1783246144241240600,6.758240478515625,-0.15608520805835724,0.7252105474472046,1.29364812374115
1783246144251251500,6.76825146484375,-0.18554216623306274,1.0283757448196411,1.2407758235931396
1783246144261263600,6.778263671875,-0.3994584381580353,1.1814452409744263,1.1765848398208618
1783246144271275500,6.788275634765625,-0.7244471907615662,1.075760841369629,1.215986967086792
1783246144281287400,6.798287353515625,-0.9630075693130493,0.6247901320457458,1.3860628604888916
1783246144291299600,6.808299560546875,-0.9514539241790771,0.13586531579494476,1.590626835823059
1783246144301310500,6.818310546875,-0.7346163988113403,-0.021067040041089058,1.7196987867355347
1783246144311322400,6.828322265625,-0.40212205052375793,-0.0022871852852404118,1.6541552543640137
1783246144321334500,6.83833447265625,-0.013822507113218307,-0.09196647256612778,1.464125394821167
1783246144331346400,6.848346435546875,0.3265378475189209,-0.7677397131919861,1.0595622062683105
1783246144341357000,6.858357177734375,0.47817930579185486,-1.7773723602294922,0.3166499137878418
1783246144351369200,6.868369140625,0.39773377776145935,-2.16996693611145,-0.38502728939056396
1783246144361381000,6.878381103515625,0.2647576332092285,-1.9624838829040527,-0.8090299963951111
1783246144371393000,6.88839306640625,0.14951901137828827,-1.6766828298568726,-1.0543255805969238
1783246144381405200,6.8984052734375,-0.03228486701846123,-1.3711622953414917,-1.1300350427627563
1783246144391416000,6.908416015625,-0.29988569021224976,-1.0994092226028442,-1.0516071319580078
1783246144401428000,6.918427978515625,-0.5983301401138306,-0.8531919121742249,-0.9564345479011536
1783246144411440000,6.928440185546875,-0.8330194354057312,-0.639548122882843,-0.949345588684082
1783246144421452000,6.9384521484375,-0.9462389349937439,-0.4751586616039276,-1.0134825706481934
1783246144431464000,6.9484638671875,-0.8532270193099976,-0.4298016428947449,-1.089120864868164
1783246144441474800,6.958474853515625,-0.5828328132629395,-0.47635316848754883,-1.134865164756775
1783246144451487000,6.968487060546875,-0.22364038228988647,-0.5846040844917297,-1.1484642028808594
1783246144461499000,6.978498779296875,0.18166983127593994,-0.7826173305511475,-1.1203519105911255
1783246144471511000,6.988510986328125,0.3163091838359833,-1.0292876958847046,-0.9920656681060791
1783246144481523000,6.99852294921875,0.06610333919525146,-1.104392647743225,-0.8003004789352417
1783246144491534000,7.0085341796875,-0.21307367086410522,-0.9919965267181396,-0.6759830117225647
1783246144501546000,7.0185458984375,-0.3741261959075928,-0.624298632144928,-0.6739755272865295
1783246144511558100,7.02855810546875,-0.46905285120010376,-0.1423926204442978,-0.7335069179534912
1783246144521570000,7.038570068359375,-0.4966471791267395,0.18730591237545013,-0.7644019722938538
1783246144531582200,7.048582275390625,-0.4581572115421295,0.24834062159061432,-0.7103318572044373
1783246144541593000,7.058593017578125,-0.3758913576602936,0.1297929435968399,-0.5772273540496826
1783246144551605000,7.06860498046875,-0.24517832696437836,-0.06997818499803543,-0.39274394512176514
1783246144561617200,7.0786171875,-0.11488796025514603,-0.2718585729598999,-0.17261585593223572
1783246144571629000,7.088629150390625,-0.05990557372570038,-0.3668467700481415,0.038314711302518845
1783246144581641000,7.098640869140625,-0.0689225047826767,-0.24459756910800934,0.17251886427402496
1783246144591651800,7.10865185546875,-0.1208016648888588,0.035639166831970215,0.2185099869966507
1783246144601664000,7.1186640625,-0.21818093955516815,0.31585538387298584,0.20435155928134918
1783246144611676000,7.128676025390625,-0.3207743763923645,0.497196763753891,0.19522464275360107
1783246144621688000,7.13868798828125,-0.3785386085510254,0.48574569821357727,0.21676135063171387
1783246144631700000,7.148699951171875,-0.3929511308670044,0.3135368824005127,0.25605258345603943
1783246144641711000,7.158711181640625,-0.37071001529693604,0.09958250820636749,0.32219061255455017
1783246144651723000,7.168722900390625,-0.30384325981140137,-0.0632859319448471,0.34757378697395325
1783246144661735200,7.178735107421875,-0.22043703496456146,-0.11131657660007477,0.2987508475780487
1783246144671747000,7.1887470703125,-0.1150396540760994,-0.05868919938802719,0.2106415033340454
1783246144681759200,7.19875927734375,-0.03230828791856766,0.003957667853683233,0.1287090927362442
1783246144691770000,7.20877001953125,-0.015014145523309708,0.06442990899085999,0.1321679949760437
1783246144701782000,7.218781982421875,-0.036464840173721313,0.14829577505588531,0.26546984910964966
1783246144711794200,7.228794189453125,-0.09829515218734741,0.13798007369041443,0.43351423740386963
1783246144721806000,7.23880615234375,-0.1835554540157318,0.129062220454216,0.7271384000778198
1783246144731818000,7.24881787109375,-0.2933221459388733,-0.1472407579421997,0.9366727471351624
1783246144741828900,7.258828857421875,-0.2210756540298462,-0.19512306153774261,0.8358939290046692
1783246144751841000,7.268841064453125,-0.1037856712937355,0.23798507452011108,0.6616873741149902
1783246144761853000,7.27885302734375,-0.005038324743509293,0.5806329846382141,0.5393998026847839
1783246144771865000,7.288864990234375,0.1373021900653839,0.8354254961013794,0.49313417077064514
1783246144781877000,7.298876953125,0.27307358384132385,1.0658037662506104,0.5870878100395203
1783246144791888000,7.308887939453125,0.3639027178287506,1.1500030755996704,0.8197436928749084
1783246144801900000,7.318900146484375,0.37671729922294617,1.107230544090271,1.1260696649551392
1783246144811912000,7.328911865234375,0.2668646574020386,0.9575856924057007,1.285557508468628
