time,seconds_elapsed,z,y,x
1783246183260510500,0.059510498046875,-1.7176625810295343,-8.741919997060299,3.901417071676254
1783246183270522600,0.069522705078125,-2.9087334832936524,-7.782606763359904,1.0526507119588553
1783246183280534500,0.079534423828125,-3.328257703003287,-5.377533580577373,-0.6410945485189556
1783246183290545400,0.08954541015625,-2.0197861637175083,-1.819665742433071,-2.371927284505963
1783246183300557600,0.0995576171875,-0.13514730611443518,0.734157739880681,-3.825902396486699
1783246183310569500,0.109569580078125,1.9068635488927363,2.048793062493205,-4.181427899016439
1783246183320581400,0.119581298828125,4.145886337774992,3.1805788320958612,-2.8994273102879524
1783246183330593500,0.129593505859375,5.673446618187427,4.561416519412398,-0.7125821601495146
1783246183340604400,0.1396044921875,5.851749759939312,6.109038175600767,1.3287301911994813
1783246183350616600,0.149616455078125,4.713861581808328,7.427172446244954,2.397095920293033
1783246183360628500,0.15962841796875,3.333207434365153,8.285182775765657,1.2238573195785283
1783246183370640600,0.169640625,1.9626170002967118,7.495951967960596,-2.1335253556221723
1783246183380651800,0.17965185546875,0.5692921718508005,5.677901844030618,-4.080769430220127
1783246183390663700,0.18966357421875,0.29609423939585683,5.007968446779251,-3.258534470696747
1783246183400675600,0.199675537109375,1.4934534281492233,5.558487529098987,-0.8594330558001995
1783246183410687700,0.209687744140625,3.448907112687826,5.691534063541889,1.5576996903494
1783246183420699600,0.21969970703125,4.926119015610218,4.985405901837349,3.6862051719829436
1783246183430710500,0.22971044921875,5.667075329589843,3.980709804099798,4.635945690695941
1783246183440722700,0.23972265625,5.38520484585762,3.3803187296301123,4.7006350204885
1783246183450734600,0.249734619140625,4.710276124536991,3.5564746302202344,4.7090948057979345
1783246183460746800,0.259746826171875,4.2338411000818015,3.9749259600013493,4.726907818125188
1783246183470757600,0.269757568359375,4.14065019068718,3.929543680486083,4.639892967016995
1783246183480769500,0.27976953125,4.4063329252064225,3.6148765503063798,4.28527113532871
1783246183490781400,0.289781494140625,4.709049213090538,3.186492732314765,3.4262408151105044
1783246183500793600,0.299793701171875,4.738376429861784,2.5091034660995004,2.4901123499035833
1783246183510805500,0.309805419921875,5.126593657159805,2.138806949286908,2.204839364251494
1783246183520816600,0.319816650390625,5.653660552221536,1.8776788093321024,2.287572007995844
1783246183530828800,0.329828857421875,5.800517000830173,1.705303742454946,2.5225854634851217
1783246183540840700,0.3398408203125,5.543835318890213,1.6495459071367977,2.897387328892946
1783246183550852600,0.3498525390625,5.285667197784782,1.9937904294565318,3.368488006582856
1783246183560863700,0.35986376953125,5.432540597528219,1.884568861106783,3.7706922581791877
1783246183570875600,0.369875732421875,5.915294303610921,1.0675037054367362,3.848758663678169
1783246183580887600,0.379887451171875,6.586096884912252,-0.1740202037356794,3.5597131737500427
1783246183590899700,0.389899658203125,6.343284153848886,-1.1346237695075572,2.9265444497942923
1783246183600911600,0.39991162109375,4.9406964070171115,-1.1584339764229952,2.4947224740475415
1783246183610922500,0.409922607421875,2.67702900622189,-1.4550472712568938,2.227091528069973
1783246183620934700,0.4199345703125,0.5001671976983547,-2.013798321479559,2.3648867183446884
1783246183630946600,0.429946533203125,-0.04635960011482238,-1.9055688329070806,1.726801580774784
1783246183640958500,0.43995849609375,-0.4065384814083576,-2.5279426066040993,0.02687807005345821
1783246183650969900,0.449969970703125,-2.2978724527359007,-4.296869803185761,-1.4868243653982878
1783246183660981800,0.459981689453125,-5.41135226354897,-4.517665055969357,-2.759147317460179
1783246183670993700,0.46999365234375,-7.720235355120897,-2.1067396400272846,-3.876344005218148
1783246183681005800,0.480005859375,-9.155328364238143,0.2865995580807328,-4.239093613782525
1783246183691017700,0.490017822265625,-11.812151617777348,1.1491834791272877,-4.17117859994173
1783246183701028600,0.500028564453125,-14.012957196468115,1.8407041465476155,-4.883737086954713
1783246183711040800,0.510040771484375,-14.856310055083036,2.227975909689069,-4.933942841103673
1783246183721052700,0.520052734375,-15.529833585780858,1.955973616759479,-4.0361686564713715
1783246183731064600,0.530064697265625,-13.028169914293288,1.9376196294233201,-5.287130256074667
1783246183741076700,0.54007666015625,-10.214909313851594,1.6431062294781207,-7.513924262502789
1783246183751087600,0.550087646484375,-9.180558667084574,0.3733240479402244,-9.410824051263928
1783246183761099500,0.560099609375,-9.236569892641901,0.9245882495388388,-10.876558866882323
1783246183771111700,0.570111572265625,-8.630571499684452,1.6085776446714997,-11.869455805754662
1783246183781123600,0.58012353515625,-8.251210948058961,-0.02335281853675842,-12.159694304859638
1783246183791134700,0.590134765625,-9.247812586668132,-0.513791380033642,-11.476187140285969
1783246183801146600,0.600146728515625,-10.863353348350524,0.8927953733064233,-8.728207698050142
1783246183811158800,0.61015869140625,-14.677534035122394,2.7979405739739533,-3.6625358348429202
1783246183821170700,0.620170654296875,-17.3430964754343,4.43778195643723,0.5459764704540372
1783246183831182600,0.6301826171875,-12.385815428841113,6.694515174055099,-0.20253508121073244
1783246183841193700,0.64019384765625,-7.9740522952795025,7.509919118514657,-2.5684452973842617
1783246183851205600,0.65020556640625,-5.465135291662812,6.593434388193487,-2.323810319329798
1783246183861217800,0.6602177734375,-2.9048972661316395,6.589395926457643,-2.4964640570178624
1783246183871229700,0.670229736328125,-0.04839139820337295,5.421214901393651,-5.219930112504959
1783246183881241600,0.68024169921875,2.925305263388157,2.1603663085356355,-8.666938698095082
1783246183891252700,0.690252685546875,4.9144040278971195,0.024674130268394944,-9.386512032306193
1783246183901264600,0.7002646484375,5.332329580238461,-1.1978544249244034,-8.595097450721264
1783246183911276500,0.710276611328125,4.711790036231279,-1.793197714485228,-7.569284915196895
1783246183921288700,0.720288818359375,2.2866847037672997,0.35787966444045305,-1.5142381497636437
1783246183931299600,0.730299560546875,0.04947276369929313,2.7569106444492935,4.361111096949875
1783246183941311500,0.7403115234375,-0.7973357883274554,3.56160176397562,8.648437411242723
1783246183951323600,0.75032373046875,-2.2417314633190633,3.498682658725977,11.03796289628148
1783246183961335600,0.76033544921875,-3.7881139331012963,2.7436329374641177,10.603204867082834
1783246183971347500,0.770347412109375,0.12385317416191101,0.9516679796442389,7.4479036841064685
1783246183981358600,0.780358642578125,-1.5068337187260388,-1.3244330785274505,5.03044272891581
1783246183991370800,0.790370849609375,-3.3063714498877523,-2.714504750396311,4.1665304818749425
1783246184001382700,0.800382568359375,-2.8344325678080318,-2.1008573039904235,1.0923837335407733
1783246184011394800,0.810394775390625,-1.160341417479515,-3.0066739253029224,-1.003848540997505
1783246184021405700,0.82040576171875,0.19227555300295351,-4.684079022485017,-1.576558412337303
1783246184031417600,0.83041748046875,-0.31460312503278254,-4.63643201290816,-0.325337285014987
1783246184041429800,0.8404296875,-0.5451864891201257,-3.134265116949379,-0.0363029010027647
1783246184051441700,0.850441650390625,0.9319313057780265,-0.9601336832378059,-0.6202051974862813
1783246184061453600,0.86045361328125,2.45809691696167,-0.21638868838772177,0.6477461153626441
1783246184071464400,0.87046435546875,3.8609412689030167,-0.6444283691167831,4.575778222241998
1783246184081476600,0.8804765625,5.5998518051445485,-1.3965598648443818,7.187872107216715
1783246184091488500,0.890488525390625,7.434623346772789,-2.335595449669659,6.799779383081197
1783246184101500700,0.900500732421875,8.310898816302418,-2.93437265920192,5.022362298312783
1783246184111511800,0.91051171875,8.164814521110058,-2.278805202563852,3.3493004910320043
1783246184121523700,0.920523681640625,5.900224744772911,-1.5262249401554464,3.9977562159687277
1783246184131535600,0.93053564453125,4.278725366947055,0.11426876873672008,4.215523353102803
1783246184141547800,0.9405478515625,4.67361315805018,1.9077771566063164,3.6869793712258336
1783246184151559700,0.9505595703125,5.380497691079974,2.860771708679199,4.100293630379438
1783246184161570600,0.960570556640625,6.271922798946499,2.513997667881846,4.838942544199526
1783246184171582700,0.970582763671875,7.147893732571601,0.8089014306977391,5.983820727348327
1783246184181594600,0.9805947265625,8.099947204402088,-0.7629976115263998,7.332296360242366
1783246184191606800,0.990606689453125,8.34556564053595,-0.5474689375014975,6.792243726879358
1783246184201617700,1.00061767578125,7.954582455655932,-0.42382491257824,6.29637159602642
1783246184211629600,1.010629638671875,6.2012523489177225,0.8939767651107162,2.129614904180169
1783246184221641500,1.020641357421875,3.4651597438305615,2.6240476498797536,-1.4255977432802318
1783246184231653600,1.030653564453125,1.521350904378295,3.9336996311217542,-1.960300540047884
1783246184241665500,1.04066552734375,0.7499988676130771,3.7267958333075044,-0.32251725915819407
1783246184251676700,1.0506767578125,-0.7695803509175777,3.4426430838569995,1.4010627292215823
1783246184261688800,1.060688720703125,-1.5948644688785074,3.857208804376423,0.6373746512129902
1783246184271700700,1.07070068359375,-3.2782161995053287,4.900680622971057,0.29067046078145503
1783246184281712600,1.080712646484375,-4.408820065847039,5.504387690120935,0.8330448150902986
1783246184291724800,1.090724853515625,-4.570121803915501,5.693778627598285,0.43114290744140743
1783246184301735700,1.100735595703125,-6.24894582798481,6.573073152688146,-0.3590177285596728
1783246184311747600,1.11074755859375,-8.386941607019304,8.754122476029396,-4.140325196516514
1783246184321759700,1.120759765625,-9.493701656436919,11.033698224574326,-10.66684527234435
1783246184331771600,1.130771728515625,-9.907740722733735,12.235377030092478,-16.063069524866343
1783246184341782500,1.140782470703125,-8.005002729338408,11.255919418507814,-17.711305518448352
1783246184351794700,1.150794677734375,-5.254434439653158,9.710037299463153,-15.498738190293311
1783246184361806600,1.160806640625,-6.173107619929313,8.045608295971155,-10.982784029895067
1783246184371818500,1.170818603515625,-9.99368999043703,6.549800998172164,-6.210829155558347
1783246184381830400,1.180830322265625,-16.018326712298393,6.486815257427096,-1.5794097101151943
1783246184391841500,1.190841552734375,-17.57480679772496,6.385832086721062,0.8088868176504969
1783246184401853400,1.200853515625,-14.630416894638538,6.824883429199457,1.3325406893983482
1783246184411865600,1.210865478515625,-10.699357548892497,5.975704056388139,1.1248816893026232
1783246184421877500,1.22087744140625,-5.656296745944023,4.417586725148558,0.9647066171765327
1783246184431888400,1.230888427734375,-1.9027549445301293,2.7822929229870437,1.7984633799284695
1783246184441900500,1.240900634765625,0.7481915259301662,1.3963859695822,3.3359365670681
1783246184451912400,1.250912353515625,2.509899000391364,0.41799920209944247,4.9701902125269175
1783246184461924400,1.26092431640625,4.434893249258399,-0.5440756052687764,6.4860004339128725
1783246184471936500,1.2709365234375,6.155610541683435,-0.37346360254138705,7.2262576597124335
1783246184481947400,1.280947509765625,7.053952881592512,-0.03710340373069048,7.522661111187935
1783246184491959300,1.290959228515625,7.741924624359608,-0.12485533694177865,6.989415235230326
1783246184501971500,1.300971435546875,6.921097485807538,-0.6917582755684852,5.532042005243897
1783246184511983400,1.3109833984375,4.2800773660779,-0.2436260932728648,5.26300820673108
1783246184521994200,1.320994140625,1.6248597941696643,-0.38201369648277755,5.449469520497321
1783246184532006400,1.33100634765625,0.18501403756737708,-1.006735786871612,5.225405913567543
1783246184542018300,1.341018310546875,-0.6462579956967384,-1.2229045488983392,5.339321046561002
1783246184552030200,1.3510302734375,-0.8768208284527063,-0.8443611588746309,5.837261800381541
1783246184562042400,1.36104248046875,-0.6330366220086813,-0.6551198590010404,6.687003483250737
1783246184572053500,1.371053466796875,-0.43004627131111917,-0.852756208384782,6.86622549341321
1783246184582065400,1.3810654296875,-0.6006664573449642,-0.9974721378333866,6.351099796035886
1783246184592077600,1.39107763671875,-1.04081553193219,-0.5611842687189579,5.935684180688858
1783246184602089500,1.40108935546875,-1.3681950633645057,-0.013852584263682365,5.999934826803207
1783246184612100400,1.411100341796875,-1.92858862009719,0.7238062225405126,6.702216834473609
1783246184622112500,1.421112548828125,-2.694333192244172,1.8466928655683994,7.573725527992844
1783246184632124400,1.43112451171875,-3.0623914286106824,2.896590625557303,8.451614277938008
1783246184642136300,1.44113623046875,-2.7571535132944582,3.646892275509238,9.159994602483511
1783246184652148500,1.4511484375,-2.116392580644041,4.1189042228251695,9.479540444615482
1783246184662159400,1.461159423828125,-1.5163053114265204,4.077851496946812,9.487321015489101
1783246184672171300,1.471171142578125,-0.9921649713359773,3.784168118084967,9.35861806320846
1783246184682183400,1.481183349609375,-0.7901863549642264,3.39393750513792,8.936559941107035
1783246184692195300,1.4911953125,-0.5092423384271562,3.0435359214931723,8.30611976533234
1783246184702206500,1.50120654296875,-0.35061303443834185,2.6660975701019165,7.523632586568594
1783246184712218400,1.51121826171875,-0.656500791965425,2.1712784554332494,6.865563230112195
1783246184722230500,1.52123046875,-1.105130840780586,1.2813174287699163,6.674326957029104
1783246184732242400,1.531242431640625,-1.5081009621828794,0.17440766868330537,6.398874523645639
1783246184742254600,1.541254638671875,-2.2154314854145047,-0.8712009427443146,5.892139637994766
1783246184752265500,1.551265380859375,-2.8728692659690975,-1.668653489319235,5.173823025846481
1783246184762277400,1.56127734375,-3.4125217940986152,-2.281782318678498,4.887184012538194
1783246184772289500,1.57128955078125,-3.694198216563463,-2.704260712018609,4.983628370770812
1783246184782301400,1.581301513671875,-3.7293472713559863,-2.7438872044861315,5.17608220295012
1783246184792313300,1.591313232421875,-3.6829181131362914,-2.6812749732285734,5.74733252313137
1783246184802324200,1.60132421875,-3.3277626129627227,-2.787303444625437,6.397672162118554
1783246184812336400,1.61133642578125,-3.1200533439844844,-2.839112250056863,6.551216125667095
1783246184822348300,1.621348388671875,-2.813527726945281,-2.8218647626578806,5.777384547045827
1783246184832360400,1.6313603515625,-1.9287980250641703,-2.2888429047144947,4.479475318306684
1783246184842371600,1.64137158203125,-0.47974575643837447,-0.2500003775451332,1.9565935022234915
1783246184852383500,1.651383544921875,0.8832868095964193,3.147472096785903,-1.8679390672147274
1783246184862395400,1.6613955078125,1.4637652691110967,6.668350220707058,-6.092891927441954
1783246184872407600,1.671407470703125,2.1492413956701752,9.768278476029634,-9.550917581608891
1783246184882419500,1.68141943359375,3.944192968085408,12.164039640587568,-11.462642599058151
1783246184892430300,1.691430419921875,5.961293838241696,13.881356769180297,-12.357648488020896
1783246184902442500,1.7014423828125,6.312454715821147,14.16667943919301,-13.94530346391201
1783246184912454400,1.711454345703125,2.9393443101346493,11.590940477669239,-17.996871349567172
1783246184922466300,1.72146630859375,-3.136710464274883,7.332813077592849,-25.00960374749899
1783246184932478500,1.731478515625,-8.311496782195567,4.349105017335713,-33.15605492892265
1783246184942489300,1.7414892578125,-11.358721621334553,4.977323133146762,-38.34650175731182
1783246184952501200,1.751501220703125,-10.794725802326202,9.163155696862935,-38.014074806296826
1783246184962513400,1.761513427734375,-7.674692916607857,13.68284144500494,-31.90801184711456
1783246184972525300,1.771525390625,-4.801535773608088,15.07359320809245,-22.664794187021254
1783246184982536200,1.7815361328125,-4.555695511417091,12.416860555446148,-14.29486041342616
1783246184992548400,1.79154833984375,-6.696789548727869,8.07200647355318,-9.34873379805386
1783246185002560300,1.801560302734375,-9.416389284175635,4.4528141058743,-7.228349079033732
1783246185012572400,1.811572509765625,-10.930656367772817,2.091261938779801,-5.7851657024413345
1783246185022584300,1.821584228515625,-10.860870299363135,0.25000585743784903,-4.344949358960986
1783246185032595500,1.831595458984375,-9.39998643090725,-1.5761929400257766,-2.4609978991001844
1783246185042607400,1.841607421875,-7.511464594390988,-3.637996436870098,-0.08757131594717502
1783246185052619500,1.85161962890625,-5.9954082892894744,-5.815860700434446,2.230339716210961
1783246185062631400,1.86163134765625,-5.1392579084217545,-7.2046133986592285,4.066628676664829
1783246185072643300,1.871643310546875,-4.900329325315356,-7.6628528412103645,5.1994309298336505
1783246185082654500,1.881654541015625,-4.581444577440619,-7.980036630386113,5.99772884119153
1783246185092666400,1.891666259765625,-3.946441623795032,-8.655202667593956,6.263353708043694
1783246185102678300,1.90167822265625,-3.083483901000023,-9.0405791185081,6.288212839490175
1783246185112690400,1.9116904296875,-2.3143390188902617,-8.88263078252077,6.683185386267304
1783246185122701300,1.921701416015625,-1.823088118097186,-8.81953924331367,7.681099861040711
1783246185132713200,1.931713134765625,-1.6974011526368558,-8.857161994743347,9.017147974038124
1783246185142725400,1.941725341796875,-1.72917766225636,-8.62742384930849,10.119674331408739
1783246185152737300,1.9517373046875,-2.10025305448696,-8.19858351972103,10.728943708860873
1783246185162749200,1.961749267578125,-2.6174247246086595,-7.628325717708468,10.380914699566363
1783246185172760600,1.971760498046875,-2.7823358853459355,-7.161274607670307,9.16452640069425
1783246185182772500,1.9817724609375,-2.2478742038577795,-7.093639579814672,7.5017071704864495
1783246185192784400,1.991784423828125,-1.6330314101874828,-7.3041340955972665,5.863977373349666
1783246185202796500,2.001796630859375,-1.1873586037427186,-7.230213119339942,4.810374913623929
1783246185212807400,2.011807373046875,-0.9849760827451943,-6.747431356206536,4.482033186095952
1783246185222819300,2.0218193359375,-0.9858061038285493,-6.181391464149952,4.697448791667819
1783246185232831500,2.03183154296875,-0.871041660529375,-5.587116826733946,5.274989151903987
1783246185242843400,2.041843505859375,-0.8049000861018896,-4.821104105170071,6.022991292741894
1783246185252855300,2.051855224609375,-1.0301906044781208,-4.087325719995796,6.743180713024735
1783246185262866400,2.061866455078125,-1.2494628854781389,-3.3963761304616926,7.31507576085031
1783246185272878300,2.07187841796875,-1.5594886195927857,-2.6813649895995852,7.495678411716223
1783246185282890200,2.08189013671875,-1.8511106820106504,-2.161359703487158,7.08954091232419
1783246185292902400,2.09190234375,-1.7199959924131631,-2.409528847017139,6.2177610006481405
1783246185302913500,2.10191357421875,-1.1879694291174412,-3.3541642976760864,5.3771057105541225
1783246185312925400,2.111925537109375,-0.8882879788845777,-3.9590006611168382,4.808599720644951
1783246185322937600,2.1219375,-0.6455839688926934,-3.665465458554029,4.562667980778217
1783246185332949500,2.131949462890625,-0.23998886928167193,-3.016057547459006,4.546576093155146
1783246185342961400,2.14196142578125,0.027961810169555245,-2.4681521547690033,4.794031097066402
1783246185352972500,2.15197265625,0.1698152993917465,-2.09189366081208,5.152784329470991
1783246185362984400,2.161984375,0.4894388829350471,-1.5809043325871228,5.544194799852371
1783246185372996400,2.171996337890625,0.7139222496468574,-0.7047527086328714,5.761220178708434
1783246185383008500,2.182008544921875,0.890041033096984,0.26936767010968177,5.412129093140363
1783246185393019400,2.192019287109375,1.4938387742049992,0.6754383513431995,4.2621734605968
1783246185403031600,2.202031494140625,2.367741230992973,1.3677403053343296,2.453499067777395
1783246185413043500,2.21204345703125,2.499669282799959,2.7283330770015715,-0.6871475669026375
1783246185423055400,2.222055419921875,2.0228638175971807,3.8926618105515836,-5.446744479447603
1783246185433067500,2.232067626953125,0.9349868939563631,4.690938094599545,-12.072808633089064
1783246185443078400,2.242078369140625,-0.6705810475051402,6.795464442491531,-19.200166942632197
1783246185453090300,2.25209033203125,-1.8911936860740184,11.113539238530397,-24.633052408075333
1783246185463102500,2.2621025390625,-1.6922487383097409,14.307974746543168,-27.46135743291378
1783246185473114400,2.2721142578125,-0.7476756853625178,14.656815072220564,-27.316414708971976
1783246185483126500,2.28212646484375,0.5840478424340486,14.32720200958252,-24.41431028842926
1783246185493137700,2.2921376953125,1.1490253659561276,13.741971679365633,-20.033178439974783
1783246185503149600,2.302149658203125,0.5909872863084078,11.479324853789805,-15.356839656352996
1783246185513161500,2.312161376953125,-0.6324304728090763,8.364145837843418,-11.211291172230244
1783246185523173600,2.322173583984375,-2.629578103739023,5.937887828212976,-8.643564252248407
1783246185533184500,2.3321845703125,-4.936059394866228,5.766950246793031,-8.124566681873798
1783246185543196400,2.342196533203125,-6.7900459245741365,6.542051991480588,-8.453111823019384
1783246185553208600,2.35220849609375,-8.14437145254016,5.911992339456081,-8.477523795220256
1783246185563220500,2.362220458984375,-9.056932871937752,4.123748740246891,-7.998285403782129
1783246185573232400,2.372232421875,-9.083067430147528,2.4555250206470487,-7.318335639429092
1783246185583243500,2.382243408203125,-7.950013832566142,1.127327694215253,-6.139902684941887
1783246185593255400,2.39225537109375,-5.652935745078325,-0.3256224951645359,-4.763672199159861
1783246185603267300,2.402267333984375,-2.9415222386956215,-1.3666801287569106,-3.0987568734556437
1783246185613279500,2.412279541015625,-0.4657774368405342,-1.432802267831564,-0.1666167956113815
1783246185623291400,2.42229150390625,1.0794657997786998,-1.3524299234777688,3.8891093787670132
1783246185633302500,2.432302490234375,2.7178409090816973,-2.2221710228025913,5.992651684057712
1783246185643314700,2.442314697265625,4.261547437652945,-2.8447411958545445,8.24312233414948
1783246185653326600,2.45232666015625,5.153986690998077,-3.1026062423601743,10.493797566902638
1783246185663338500,2.46233837890625,5.918377656579017,-3.1623008326053617,11.686708544075488
1783246185673349600,2.472349609375,6.68821110547483,-2.8637419566616416,12.174247730869054
1783246185683361500,2.482361572265625,7.256126143753528,-2.3240252772547305,12.317666021722555
1783246185693373400,2.49237353515625,7.571804204541444,-1.8601020899787544,12.178165196573733
1783246185703385600,2.502385498046875,7.485770765686035,-1.5861796426415442,11.651713218539953
1783246185713397500,2.5123974609375,7.085967145490646,-1.4126492682494223,10.825863283389806
1783246185723408400,2.522408447265625,6.668537852233648,-1.3238006258428097,9.818954185777901
1783246185733420500,2.532420654296875,6.145795834633708,-1.3189634149447083,8.819079224586487
1783246185743432400,2.542432373046875,5.426003304713964,-1.3040626368023454,7.8072502062290905
1783246185753444400,2.5524443359375,5.40512301377058,-1.0522075713012367,7.59333506834805
1783246185763455700,2.562455810546875,5.68106936815083,-0.7390570562295615,8.184868882623315
1783246185773467600,2.572467529296875,5.874084925866127,-0.47236824994031335,8.716772111800312
1783246185783479600,2.5824794921875,6.069480656716228,-0.2595851848291233,8.930015634030104
1783246185793491700,2.59249169921875,6.177032099896669,0.061441475011711,9.101039140167831
1783246185803503600,2.602503662109375,6.3373343055337665,0.4161308509442955,9.363913247007131
1783246185813514500,2.612514404296875,6.748478234910965,0.7798228549253196,9.59243500238955
1783246185823526700,2.622526611328125,7.020308386144041,1.1392748101837933,9.628181438553332
1783246185833538600,2.63253857421875,7.133484098947048,1.4964721914485095,9.721143799889088
1783246185843550500,2.642550537109375,7.124722115820646,1.8223410991221665,9.664511227563024
1783246185853561600,2.6525615234375,6.317791400673985,2.063053496905416,9.5382556684345
1783246185863573500,2.662573486328125,5.01237165017426,1.7845228251203893,9.270201528608798
1783246185873585400,2.67258544921875,3.667321900075674,1.041312521668896,8.377481704756617
1783246185883597600,2.68259765625,2.3859663312524555,0.45872108858823774,7.561151877623796
1783246185893609500,2.692609375,1.331552847404778,-0.11082754224166273,7.164173251721262
1783246185903620600,2.70262060546875,0.3648322600573301,-0.5779623850405216,6.646814680725336
1783246185913632500,2.712632568359375,-0.9618833764493465,-0.8674242006845772,5.259083142241836
1783246185923644400,2.72264453125,-2.217396648007631,-1.207275164220482,3.2612077815592286
1783246185933656600,2.732656494140625,-3.0364483013197776,-1.1191932684026658,1.3779384587436914
1783246185943668500,2.74266845703125,-3.9871559114992614,-0.6147074768528342,-1.454825883591175
1783246185953679600,2.7526796875,-4.953787943780422,1.2251442175839096,-4.668203992483019
1783246185963691500,2.76269140625,-5.6184056989669795,5.1673979612350465,-7.886470457938313
1783246185973703700,2.77270361328125,-5.044075532948971,9.741630707600713,-11.691333281266688
1783246185983715600,2.782715576171875,-3.0136434720546004,13.455960442566871,-14.249173013484477
1783246185993726500,2.7927265625,-0.9454016127258539,13.874501496458052,-15.2347482311666
1783246186003738400,2.80273828125,-0.7244833180844783,10.70735614643097,-15.34246977021694
1783246186013750500,2.81275048828125,-3.6503523528352377,9.859496624046564,-17.829786936444044
1783246186023762400,2.822762451171875,-7.169440378469228,11.89096153512001,-21.883489496040344
1783246186033774600,2.832774658203125,-9.579111410436033,11.586733089107275,-23.85201192098856
1783246186043785500,2.842785400390625,-11.235703144431113,10.207692806601523,-23.19673950177431
1783246186053797400,2.85279736328125,-10.734791265845297,10.102564206653833,-20.487459500288963
1783246186063809500,2.8628095703125,-8.642897312772273,10.415222627359627,-17.743316275215147
1783246186073821400,2.872821533203125,-6.705071054860949,10.695954462450741,-16.066341678404807
1783246186083833300,2.882833251953125,-5.8145525404453275,9.949234762638806,-13.885109399712086
1783246186093844500,2.892844482421875,-5.52114417913258,8.228473046550155,-10.762902092564106
1783246186103856600,2.902856689453125,-5.076458045637607,6.161604813662171,-7.58386055303812
1783246186113868500,2.91286865234375,-4.410073865300417,4.025110086840391,-4.717434764119982
1783246186123880700,2.922880615234375,-3.868564895649254,1.9431211494490503,-2.3006308115333316
1783246186133891600,2.9328916015625,-3.290398804730177,-0.06781359929293394,-0.23936522095799445
1783246186143903500,2.942903564453125,-2.8660943650066852,-1.965239165493846,1.9163170214146374
1783246186153915400,2.952915283203125,-2.682328281673789,-3.699906949599087,4.052221965649724
1783246186163927600,2.962927490234375,-2.5272078625887633,-4.97206945040226,5.985851356393098
1783246186173939500,2.972939453125,-2.5062849015474318,-5.657471634942293,7.39101918284595
1783246186183950300,2.982950439453125,-2.641107798013091,-5.722202173528075,8.18789787505567
1783246186193962500,2.99296240234375,-2.872487865436077,-5.897647003239393,8.771261242356896
1783246186203974400,3.002974365234375,-3.0325644456237555,-6.181688401269913,9.47301718032658
1783246186213986600,3.012986572265625,-3.260383605694771,-6.413067884171008,9.997213488388061
1783246186223997700,3.022997802734375,-3.576898117306828,-6.880327668523788,10.423020149368048
1783246186234009600,3.033009521484375,-3.9277410149782894,-7.517361835736036,10.682609827709197
1783246186244021500,3.043021484375,-4.201117226609587,-7.811954438397287,10.655894839262961
1783246186254033700,3.05303369140625,-4.473415579876304,-7.614125927442312,10.238588295602797
1783246186264045600,3.063045654296875,-4.696670793032646,-7.127981409877538,9.426371749007702
1783246186274056400,3.073056396484375,-5.064039293569326,-6.39098347813487,8.47402952336371
1783246186284068600,3.083068603515625,-5.569356129115819,-5.647763895398378,7.558712667778134
1783246186294080500,3.09308056640625,-5.890112516081333,-5.040667770332098,6.960749112716317
1783246186304092400,3.103092529296875,-6.0321326305747025,-4.545453226605058,6.655581924548745
1783246186314103600,3.113103515625,-6.236446411895751,-4.149761133381724,6.502019256299734
1783246186324115500,3.123115478515625,-6.471278081077337,-3.8335502808913584,6.493002421629429
1783246186334127400,3.13312744140625,-6.757054340076446,-3.3308491808012124,6.499226410710811
1783246186344139500,3.143139404296875,-6.556930411660671,-2.884420587553084,6.588092442643642
1783246186354151400,3.1531513671875,-5.9071454839468,-2.669026609291136,6.539368451485037
1783246186364162600,3.16316259765625,-5.116793563157319,-2.4589199237823487,6.20791531393826
1783246186374174700,3.1731748046875,-4.278427845305204,-2.4486375992208718,5.901952591478825
1783246186384186600,3.1831865234375,-3.487904075080156,-2.6282030159935355,5.615173877438902
1783246186394198500,3.193198486328125,-2.8174861091822385,-2.82182852230072,5.375495937269926
1783246186404210400,3.20321044921875,-2.4848341172397137,-2.9324200638294218,5.140557300582528
1783246186414221300,3.21322119140625,-2.3488889387458562,-3.1071342411786316,4.810414076590538
1783246186424233500,3.2232333984375,-2.2954519475907085,-3.4944536428540944,4.6604053014308215
1783246186434245400,3.233245361328125,-2.2431799085617063,-4.106906911039352,4.632348835247755
1783246186444257500,3.243257568359375,-2.179924703225493,-4.532290962693095,4.4252299333781
1783246186454268400,3.253268310546875,-1.9959850168913602,-4.666730997321009,3.48472661408782
1783246186464280300,3.2632802734375,-1.6296002666950224,-4.416200823748111,2.185445512473583
1783246186474292200,3.273292236328125,-1.3539210388183593,-4.109724306547641,0.45902562449276446
1783246186484304400,3.283304443359375,-1.0771769581891595,-3.994434670330584,-2.065579362121224
1783246186494316300,3.29331640625,-0.6996130807220935,-3.479125433079898,-5.181067590147257
1783246186504327400,3.303327392578125,-0.4302198012471199,-1.9980732213422654,-8.407325638878344
1783246186514339300,3.31333935546875,0.03482303770855069,0.37757863664478064,-12.345747622346877
1783246186524351200,3.323351318359375,0.6684466658249497,4.257825202259421,-16.75233890622854
1783246186534363400,3.33336328125,1.1733300783902405,11.287879906392098,-21.339610582387447
1783246186544375300,3.343375244140625,1.0237573565602303,19.50522424068451,-22.183099050080774
1783246186554386400,3.353386474609375,1.4448895959883927,22.50024893698692,-17.487499101150036
1783246186564398300,3.3633984375,4.563405647403002,21.7799846979022,-12.032944240212439
1783246186574410500,3.373410400390625,8.250389694803953,20.314041207969186,-9.717952310371398
1783246186584422400,3.38342236328125,7.977285870373248,16.048568705826998,-11.523563808488845
1783246186594433300,3.393433349609375,3.439133029909432,11.111319224393368,-14.475956985288857
1783246186604445400,3.403445556640625,-2.2588819200843573,8.892181870198248,-16.484405762434005
1783246186614457300,3.413457275390625,-5.941542259067297,8.639171570247411,-18.89122140496969
1783246186624469200,3.42346923828125,-7.590843251532315,8.465266371193527,-20.198803886461256
1783246186634481400,3.4334814453125,-8.536984284448623,7.8739307098388664,-18.45007338247299
1783246186644492300,3.4434921875,-9.028426908421515,7.191098668047785,-14.794896678221225
1783246186654504200,3.453504150390625,-8.340141861921548,6.39885464990139,-10.85806459429264
1783246186664516400,3.463516357421875,-7.105895834797621,5.147271703529357,-7.354009594878554
1783246186674528300,3.4735283203125,-6.486418367063999,3.4978421162486075,-4.3836926388531925
1783246186684539400,3.483539306640625,-6.505113715183734,1.611275067061931,-1.478947932934761
1783246186694551600,3.493551513671875,-6.633686319082975,-0.7331843648038804,1.5037217241853476
1783246186704563500,3.5035634765625,-6.9412027007251975,-3.2325276305198667,4.466456846779584
1783246186714575400,3.513575439453125,-7.011256480160355,-5.140526905444264,7.343379479792714
1783246186724587500,3.52358740234375,-6.289055720055103,-5.959488250124454,9.755023273137212
1783246186734598400,3.533598388671875,-4.962210904210806,-5.912418455913663,11.275163048160076
1783246186744610300,3.5436103515625,-3.4911271287798877,-5.700972338494658,11.706486426734923
1783246186754622500,3.55362255859375,-2.044087076759338,-5.634495833024382,11.434831047546863
1783246186764634400,3.56363427734375,-1.210155541962385,-5.941064120161533,10.623272672599553
1783246186774646300,3.573646240234375,-0.24100305129289626,-6.510663166004419,9.846423207461834
1783246186784657400,3.583657470703125,1.1799994731515646,-7.106575049233436,9.579017886933684
1783246186794669300,3.59366943359375,2.9146789476945996,-6.890831526881456,10.144239448344706
1783246186804681200,3.60368115234375,5.180500019392371,-4.896035719774663,12.43927346278429
1783246186814693400,3.613693359375,6.040431087842583,-4.7590895475447175,12.330907780611515
1783246186824704500,3.62370458984375,6.178178931844234,-5.3342357061207295,12.10148060082197
1783246186834716400,3.63371630859375,5.846002156198025,-5.60622660087347,10.872960550129413
1783246186844728600,3.643728515625,5.550467888772487,-5.498173053389787,9.390615960493683
1783246186854740500,3.653740478515625,5.278610849532485,-4.8681379512846465,8.716669820469617
1783246186864752400,3.66375244140625,4.462206788119674,-4.473613440535963,7.847550652435421
1783246186874763500,3.673763427734375,3.293643485739827,-4.534900852930545,7.3107380239069455
1783246186884775400,3.683775390625,2.3188553272709247,-4.415594966809452,6.730914521169662
1783246186894787300,3.693787353515625,1.7745228246316314,-4.226294922485947,6.139663615489006
1783246186904799500,3.703799560546875,1.5724115217909216,-3.8691888727664945,5.798269514164328
1783246186914811400,3.713811279296875,1.3779153701290487,-3.739275083391368,5.397653408542275
1783246186924822300,3.723822265625,0.9278168561965227,-4.1574306450963014,5.178092373728751
1783246186934834400,3.73383447265625,-0.24087182612866162,-4.054950806091726,5.332419012087583
1783246186944846300,3.743846435546875,-2.208189843723178,-3.520202124355733,5.75574437764585
1783246186954858200,3.753858154296875,-2.9387393299788234,-3.28982392745167,6.814554342886805
1783246186964869400,3.763869384765625,-3.204936443760991,-3.3182255538105965,7.203782208532094
1783246186974881500,3.773881591796875,-3.4543747304439543,-3.374833283956349,6.97534520882368
1783246186984893400,3.7838935546875,-3.4974151230081914,-3.389138580423593,6.880653247216343
1783246186994905300,3.7939052734375,-3.612561259101331,-3.5852418750211594,6.229222890383005
1783246187004917500,3.80391748046875,-4.654653606036305,-4.309861971227824,4.96615701148808
1783246187014928400,3.813928466796875,-6.670149963605404,-6.145894618833065,3.6140129192143675
1783246187024940500,3.8239404296875,-6.68030252430737,-5.960618715459108,0.25268413673639295
1783246187034952400,3.833952392578125,-5.8724938572824,-3.8851948356717823,-3.536327037465572
1783246187044964400,3.84396435546875,-6.215898129385709,-1.6603393960908055,-7.327839965355396
1783246187054975500,3.8539755859375,-7.139138763707876,0.6101696872927248,-10.831090078127383
1783246187064987400,3.8639873046875,-7.8725272727817295,2.3152362599909306,-12.259997092086076
1783246187074999300,3.873999267578125,-7.137670444720983,4.288400957787037,-13.54514679249525
1783246187085011500,3.884011474609375,-5.131807592415809,7.360614107710123,-14.182053533935546
1783246187095023400,3.8940234375,-3.5553234143584964,10.384624075478314,-13.995315156793593
1783246187105034200,3.9040341796875,-2.3003759599894282,13.175298750102518,-13.2197224137187
1783246187115046400,3.91404638671875,-2.9637001682341095,14.984964492046831,-10.678374382096528
1783246187125058300,3.924058349609375,-5.679908507677912,14.088476255571841,-7.249171502310038
1783246187135070200,3.9340703125,-7.914794050624966,11.734774948108196,-4.3943753609091045
1783246187145082400,3.944082275390625,-7.57977591407299,10.038605821484326,-4.593093514180183
1783246187155093500,3.954093505859375,-6.929941301998496,7.872491032424569,-6.4586752046138045
1783246187165105400,3.96410546875,-5.921484390422702,6.440039477726817,-7.690260488095879
1783246187175117600,3.97411767578125,-5.348858690235018,6.663440236833691,-7.616433035340905
1783246187185129500,3.98412939453125,-5.784202994889021,7.432431389686465,-6.619232846316695
1783246187195140400,3.994140380859375,-6.7431544095397,7.310832716453075,-6.661947367927431
1783246187205152500,4.004152587890625,-8.090074045163393,6.236539935398102,-7.848398209175467
1783246187215164400,4.014164306640625,-10.083339281702042,5.331023758336902,-8.950651594823599
1783246187225176300,4.02417626953125,-11.443552114140987,4.724103574359416,-8.42674813222885
1783246187235188500,4.0341884765625,-11.950226209515332,3.720247142316401,-6.6289207121163605
1783246187245199400,4.044199462890625,-11.126292337119578,1.607834425088763,-4.818622517487406
1783246187255211300,4.054211181640625,-7.986606656426191,-0.8641463480576872,-3.061083853143453
1783246187265223400,4.064223388671875,-4.087566835275292,-3.600696341523528,-1.2176871065109967
1783246187275235300,4.0742353515625,-0.9178449127584696,-5.5253182499468325,0.10963409467339515
1783246187285246500,4.08424658203125,1.2471417490541934,-6.4249383547067636,0.9528840774357318
1783246187295258400,4.09425830078125,3.631189094942808,-7.093737779492139,1.5603788464307784
1783246187305270500,4.1042705078125,5.782493852883577,-7.621548186397552,2.2793261576980353
1783246187315282400,4.114282470703125,6.997350119882822,-8.453461951631308,2.735986222103238
1783246187325294600,4.124294677734375,7.626785502529144,-9.033506403642892,3.0981004553735256
1783246187335305500,4.134305419921875,7.605428241723775,-9.198964676868915,3.231422884148359
1783246187345317400,4.1443173828125,6.60182110826671,-9.129850224110484,2.9121961909681557
1783246187355329500,4.15432958984375,4.459011791470647,-9.206046744084357,2.6344734745651484
1783246187365341400,4.164341552734375,2.80082840436995,-9.239149387741088,3.306437500861287
1783246187375352300,4.174352294921875,2.3906483515888453,-8.602671100845933,3.435712115550041
1783246187385365000,4.184364990234375,2.5715216360896824,-8.170388521850109,2.709583368346095
1783246187395377200,4.194377197265625,3.930232831794023,-7.500665552479028,2.111374898612499
1783246187405389000,4.20438916015625,4.991013804847002,-5.705234087592363,1.4729694430470466
1783246187415401000,4.21440087890625,5.152815893653035,-4.765666295586526,2.217341118428111
1783246187425412000,4.224412109375,5.499337420994043,-4.795473112568259,3.763550569730997
1783246187435424000,4.234424072265625,5.514405226266383,-4.569610347262024,3.358362918409705
1783246187445436000,4.244435791015625,4.848357146015763,-4.196368570777774,2.571346864044666
1783246187455448000,4.254447998046875,3.825782277238369,-4.601732747709751,2.5748563334703443
1783246187465460000,4.2644599609375,1.7465934919595718,-4.327017396429181,3.118741092342138
1783246187475471000,4.27447119140625,0.5860322942495346,-2.6463375153601167,3.565501109501719
1783246187485483300,4.284483154296875,1.1722171487122774,-1.45083447586745,3.296469064554572
1783246187495495200,4.2944951171875,2.288708903071284,-1.7694583808489144,3.187648039829731
1783246187505507000,4.304507080078125,3.4920290460556744,-1.9910963680669664,2.8246529320716856
1783246187515518000,4.31451806640625,4.070453203389048,-1.9511442969068884,1.798306143540144
1783246187525530000,4.324530029296875,3.3273528631180525,-1.8754042885288595,0.44995442928671836
1783246187535542000,4.3345419921875,1.1803238828003406,-1.3933863493748009,-0.62483285728693
1783246187545554200,4.34455419921875,-2.038844499930739,-0.18833282499285414,-1.1261983248591423
1783246187555566000,4.354566162109375,-5.550348061785102,1.8601881608270108,-1.2160121590361
1783246187565577000,4.364576904296875,-7.74570648098588,3.352986193807423,-2.09569714474827
1783246187575589000,4.374589111328125,-8.447005907359719,3.9392049505397675,-3.728271751078963
1783246187585601000,4.38460107421875,-8.772351375681161,4.589653018337488,-4.7338668434828515
1783246187595613000,4.394613037109375,-8.264538631665706,5.204584074813127,-6.6289563679516315
1783246187605624000,4.4046240234375,-6.637680941677093,4.760895720183849,-9.153215902128816
1783246187615636200,4.41463623046875,-7.071012737464905,4.6270244253546,-9.923907429158687
1783246187625648000,4.424648193359375,-8.554753749895095,5.067605461618304,-10.34401500171423
1783246187635660300,4.434660400390625,-9.591896657729148,5.134533217987418,-10.54917984690666
1783246187645672200,4.444672119140625,-9.759325354245304,5.158635978108644,-9.874412453627587
1783246187655683000,4.45468310546875,-8.941720684871077,5.680577200719714,-9.11392843235731
1783246187665695000,4.464695068359375,-7.6207304402738805,6.251992356073856,-7.840012658146024
1783246187675707100,4.47470703125,-6.767186442512274,5.907551142138242,-5.093714300864935
1783246187685719000,4.484718994140625,-6.2234863925576205,5.268853425627946,-0.6481627333395182
1783246187695731200,4.494731201171875,-5.3356882430166,4.256344608312845,2.8419764073163267
1783246187705742000,4.5047421875,-4.894919575226306,2.4384163571968673,3.6664752201184627
1783246187715754000,4.51475390625,-5.678950476300716,0.32959669602513314,2.744921515969932
1783246187725766100,4.52476611328125,-6.1715270727396,-1.3041209428608416,2.13780537102893
1783246187735778000,4.534778076171875,-4.88745347712934,-1.1974796002626418,2.245698321123421
1783246187745789000,4.544788818359375,-0.9858341608792542,-0.13063187451660632,4.35850997454077
1783246187755801000,4.554801025390625,3.384103508865833,-1.0210212095946074,9.29326793141961
1783246187765813000,4.56481298828125,6.0933385021656745,-0.6566121433854103,7.790696546313166
1783246187775825000,4.574824951171875,9.393346846762299,0.7608511010169983,4.0375323460400105
1783246187785837000,4.584837158203125,10.250814155447483,0.13083470361232757,1.2160356860421597
1783246187795848200,4.59484814453125,8.164207202866672,-0.03605038754642009,-0.8741239905841648
1783246187805860000,4.604860107421875,5.606194452169537,1.190409223484993,-2.690759425410628
1783246187815872000,4.6148720703125,3.256116011378169,2.2452648981422185,-4.482682589915394
1783246187825884200,4.62488427734375,0.32942893824279307,2.025113203959167,-5.126645679607987
1783246187835895000,4.63489501953125,-2.587034847041964,1.5197329477876425,-4.489261383783817
1783246187845907000,4.644906982421875,-4.464150323402881,1.749099629561603,-3.1826445324540136
1783246187855919000,4.654919189453125,-4.3042514378696675,2.582206696233153,-1.1700136473186313
1783246187865931000,4.664930908203125,-1.8846978943139314,3.281582461068034,1.3288506027087568
1783246187875943000,4.67494287109375,1.9364035316318273,3.256091461458802,2.7432617660641667
1783246187885954000,4.6849541015625,6.109919050088524,2.559420863929391,2.932755287133157
1783246187895966000,4.694966064453125,9.322588718450069,1.5218071237131952,2.249957001481205
1783246187905977900,4.704977783203125,10.819753860598802,0.6359928414657712,1.4219056107640267
1783246187915990000,4.714989990234375,10.852789868760109,0.4424161427363753,0.8444988137796521
1783246187926001200,4.725001220703125,9.839133050453663,0.790268334159255,0.2351794597059488
1783246187936013000,4.735012939453125,8.348477144068479,1.439836988773942,0.2725163799315691
1783246187946025200,4.745025146484375,6.867459419122338,2.551793145529926,0.8648056887492537
1783246187956037000,4.755037109375,5.981899403896928,3.6447172695577144,1.9727806669145822
1783246187966049000,4.765049072265625,5.647820009499788,4.327823744376004,3.2300761457145213
1783246187976060200,4.77506005859375,5.750469067591428,4.45284245518595,3.9554938220396636
1783246187986072000,4.785072021484375,5.646728707131743,4.2683579944506285,4.120731730513274
1783246187996084000,4.795083984375,5.297687305924296,4.204382365885377,4.2655347537234425
1783246188006096100,4.80509619140625,5.056457460138201,4.434228647869825,4.068238742209971
1783246188016107000,4.81510693359375,5.097871420544386,4.545975789174437,3.661825640746951
1783246188026119000,4.825118896484375,5.388365940237045,4.374872495798766,3.454707615660131
1783246188036131000,4.835131103515625,5.664579421120882,4.144499851852655,3.3210634075850245
1783246188046143000,4.84514306640625,5.959347964870929,4.214263708430528,2.8404642491877077
1783246188056155000,4.85515478515625,6.454100151783227,4.248805152718723,2.172836206269264
1783246188066166300,4.865166259765625,6.824101338911056,4.063388671830296,2.0321537701204417
1783246188076178200,4.87517822265625,7.067170675083995,4.003459103785455,2.2669325400710103
1783246188086190000,4.885190185546875,7.355754977241158,3.987291520577669,2.181384692775458
1783246188096202200,4.8952021484375,7.226119128024577,4.053352430984377,1.6311157858245073
1783246188106214100,4.905214111328125,6.226637550064921,4.010194841781258,0.7030110525973141
1783246188116225000,4.91522509765625,4.337848587045073,3.353865022468567,-0.2695832490891218
1783246188126237200,4.9252373046875,2.5211422789394855,2.443487961372733,-1.404054896774888
1783246188136249000,4.9352490234375,0.8779670758783816,1.7258295208722352,-2.1098937201440333
1783246188146261000,4.945260986328125,-1.3366636145472526,0.6495370904326438,-2.3809403197839853
1783246188156272000,4.955272216796875,-3.093636461701989,-1.8982342522352933,-3.0625100865542887
1783246188166284000,4.965283935546875,-4.294228641027212,-5.889392385113239,-4.235895694524049
1783246188176296000,4.9752958984375,-5.609316968104243,-9.981060810488461,-5.230767148339748
1783246188186308000,4.98530810546875,-7.391613641607761,-12.5230681828022,-5.591972450071573
1783246188196320000,4.995320068359375,-9.401231462532282,-13.463609496015309,-4.686099714657664
1783246188206331100,5.0053310546875,-12.919313233733176,-12.170835292077063,-2.995968406893313
1783246188216343000,5.015343017578125,-17.430247520142792,-9.681121001580356,0.013446633811295032
1783246188226355200,5.025355224609375,-20.561191091454027,-8.261141390442848,3.2056688496887684
1783246188236367000,5.0353671875,-21.955423097872732,-7.907446610471606,4.918387544575333
1783246188246378000,5.0453779296875,-21.522734276163575,-7.727705544871092,5.761663830822706
1783246188256390100,5.05539013671875,-17.645704626768826,-7.894954793167114,6.083564711648226
1783246188266402000,5.065402099609375,-11.045803672909736,-8.7118872623682,5.846529394942522
1783246188276414200,5.075414306640625,-2.37989724047184,-9.436469364652037,5.996599544900655
1783246188286426000,5.085426025390625,5.858913075697422,-8.447968614912032,5.7850078815311194
1783246188296437000,5.09543701171875,10.450402661812305,-6.325998088005185,3.9440854160577055
1783246188306449200,5.10544921875,10.921630180752278,-4.967738727721572,1.0683196979947387
1783246188316461000,5.1154609375,8.545726393830776,-3.6223517084926367,-1.6610887531533836
1783246188326473000,5.125472900390625,5.680684168225526,-1.5029787968635557,-3.680820556335151
1783246188336483800,5.13548388671875,2.5243834528177973,0.7897048550575971,-4.540647872149944
1783246188346496000,5.14549609375,-0.9759060565829276,2.75011937687397,-4.4080911670506
1783246188356508000,5.1555078125,-4.307292120739818,4.436971224576235,-2.767819868737459
1783246188366520000,5.16552001953125,-7.221025604277849,5.643502146300674,0.018901757412031293
1783246188376532000,5.175531982421875,-9.140511903378368,6.038838850215077,2.433532676808536
1783246188386542800,5.18554296875,-9.08481924225092,5.606588419923186,3.5453456257015463
1783246188396554800,5.1955546875,-6.409215884917974,4.947331899508834,3.2421316174283623
1783246188406567000,5.20556689453125,-2.5900334443360564,3.8688714773803947,2.432600364394486
1783246188416578800,5.215578857421875,1.2265297536581754,2.7085569479078053,1.8534749269239603
1783246188426589700,5.225589599609375,4.988787945491075,1.9169938977628944,1.3215974167101083
1783246188436601900,5.235601806640625,7.748041645935177,1.473696003755927,0.43946226136684413
1783246188446613800,5.24561376953125,9.438221176755428,1.0725456451267004,-0.4954787476211786
1783246188456625700,5.255625732421875,10.2778588142395,1.1343477290451527,-0.562049361115694
1783246188466637800,5.265637939453125,10.187940642905234,1.8326117332458496,-0.0724377519622445
1783246188476648700,5.275648681640625,9.644043609073757,2.7526328209996223,0.3436426109038293
1783246188486660600,5.28566064453125,9.301973800444602,3.535485910466313,0.6106368664130568
1783246188496672800,5.2956728515625,9.146724786543846,4.043523695409298,0.7940284173451364
1783246188506684700,5.3056845703125,9.115137808147072,4.3711546443194145,1.0615835946727543
1783246188516695800,5.31569580078125,9.149035986095667,4.6120483900189395,1.2570865122243762
1783246188526708000,5.3257080078125,9.209549199247359,4.732402031627297,1.433125654567033
1783246188536720000,5.335719970703125,9.220667390111089,4.777206218993664,1.687026619747281
1783246188546731800,5.345731689453125,9.272247939744592,4.867101009452343,2.1250597250938412
1783246188556744000,5.355743896484375,9.37809140996337,5.133077758482099,2.2711944352991877
1783246188566754800,5.3657548828125,9.316177097842097,5.222050173398852,1.9511362597309052
1783246188576766700,5.3757666015625,8.932616756439208,4.83607224946022,1.6071524341739714
1783246188586779000,5.38577880859375,8.436825289607048,4.548697907614708,1.522092954917252
1783246188596790800,5.395790771484375,7.904531599807739,4.510096082019806,1.5528981352865696
1783246188606802700,5.405802734375,7.30106944732964,4.537721171048283,1.6423394828893243
1783246188616813600,5.4158134765625,6.514538546133041,4.634358421504497,1.497918883125484
1783246188626825700,5.42582568359375,5.568977943453192,4.651168102008104,1.3376745451554655
1783246188636837600,5.435837646484375,5.18913633031249,4.570126480090618,1.383120245295763
1783246188646849800,5.445849853515625,5.373171878236532,4.2052895438581706,1.2826577374629675
1783246188656861000,5.45586083984375,5.117998262771963,3.5913474984198808,0.7182458849996328
1783246188666872800,5.465872802734375,4.388645292824506,2.9328496874183414,-0.169063750372082
1783246188676885000,5.475885009765625,3.493497365042567,2.1094792941242457,-1.0994534527312965
1783246188686897000,5.48589697265625,1.855751785814762,1.081093693241477,-1.9250117845237253
1783246188696908800,5.49590869140625,-0.4243371729493141,-0.20333762976527212,-2.8074896158248186
1783246188706919700,5.505919677734375,-2.9351807607144114,-1.6543880864709615,-3.8356662501320242
1783246188716931800,5.515931884765625,-5.526416566577553,-3.1309827342778442,-4.948431969705224
1783246188726943700,5.52594384765625,-8.381929331815241,-4.8696419261068105,-5.906832764735817
1783246188736956000,5.535955810546875,-11.86451425769925,-6.736200352618098,-6.299755393245816
1783246188746966800,5.545966796875,-15.342537574756145,-8.180421255564688,-6.37043168849349
1783246188756978700,5.555978759765625,-16.79557715945244,-8.968954144233464,-5.248488682991266
1783246188766990600,5.565990478515625,-16.06118970246911,-9.31842633807361,-3.182788032577932
1783246188777002800,5.576002685546875,-15.081936673545837,-9.698128835004567,-0.46633865091986954
1783246188787014700,5.5860146484375,-14.655303498613833,-9.722510996589063,2.5972712866351007
1783246188797025800,5.59602587890625,-14.556402394878864,-9.47268341832757,4.938291099441051
1783246188807038000,5.606037841796875,-14.710447293686865,-9.797984462985395,6.026285658112168
1783246188817049900,5.6160498046875,-14.923267037546633,-9.69528805862069,6.772337833926081
1783246188827061800,5.626061767578125,-13.658777847850322,-8.479261578798294,5.867139052250981
1783246188837073000,5.636072998046875,-10.425953280210495,-8.001326086652279,2.7159982038244603
1783246188847084800,5.646084716796875,-6.721136054477095,-7.890586076563596,-0.43351738148778673
1783246188857096700,5.6560966796875,-2.8673616084635256,-6.186724057349562,-2.30663005194813
1783246188867108900,5.66610888671875,-0.08156009283363819,-3.6532641486287116,-3.8442888247877356
1783246188877120800,5.676120849609375,1.0281693277835846,-1.4840338578969239,-4.482480345341563
1783246188887131600,5.686131591796875,1.3120850536078215,0.4666051198363304,-3.8884623130351303
1783246188897143800,5.696143798828125,0.9164742089271545,2.2251000619918107,-3.220732563307881
1783246188907155700,5.70615576171875,-0.6828454857945442,3.6305110495507713,-2.24407744192332
1783246188917167600,5.716167724609375,-2.801720384773612,4.642714161917567,-0.7642362134106456
1783246188927178800,5.7261787109375,-3.8378736970484253,5.1331531618058674,0.2963622426822781
1783246188937190700,5.736190673828125,-4.095969337439537,5.0854246114254,0.5797362628452479
1783246188947202600,5.74620263671875,-3.595902677506208,4.558792016127705,-0.35978681323602796
1783246188957214700,5.756214599609375,-2.015793879210949,3.088198070040345,-0.8142660264708101
1783246188967226600,5.7662265625,1.140542492032051,2.0398937167227267,-0.4898698216982186
1783246188977237800,5.77623779296875,4.250215311777591,1.9198732525914906,0.26671339274123307
1783246188987250000,5.78625,6.360172160285711,1.9844155751287935,1.4194237308204174
1783246188997261800,5.79626171875,7.804401831060647,2.169125076791644,2.1621303955987097
1783246189007273700,5.806273681640625,8.759316537541151,2.36753226441741,2.1983352430544794
1783246189017284900,5.816284912109375,9.144629860091209,2.4222797536492346,1.9017440139219164
1783246189027296800,5.826296875,9.095823451346158,2.412113164421916,1.5938164211302994
1783246189037308700,5.83630859375,8.832810228297113,2.530563018235564,1.5955651644937694
1783246189047320800,5.84632080078125,8.775321915924549,2.922573208075762,1.7948202011205254
1783246189057332700,5.856332763671875,8.734424088346957,3.413486839738488,2.0068325741201636
1783246189067343600,5.866343505859375,8.556213885575533,3.6077246327251196,2.168000748936832
1783246189077355800,5.876355712890625,8.586931679922342,3.5360564038306475,2.1180482388965785
1783246189087367700,5.88636767578125,8.640787773272395,3.5458529907017944,1.8012343059465288
1783246189097379600,5.896379638671875,8.4860735969007,3.5794384494394063,1.5137421829402447
1783246189107391000,5.906390869140625,8.315791264519095,3.682283322364092,1.438416454451531
1783246189117403000,5.91640283203125,8.004299549505115,3.9848581559509038,1.4487483172431588
1783246189127414800,5.926414794921875,7.290317751690745,4.309952864381671,1.6308092040933668
1783246189137427000,5.936427001953125,6.4998986108839505,4.5897085479170086,1.7291642182528972
1783246189147438800,5.94643896484375,5.839337437611818,4.801186229518056,1.7326373011909424
1783246189157449700,5.95644970703125,5.467968469262122,4.9308822844892735,1.7153661406554281
1783246189167462000,5.9664619140625,5.566151780116558,4.868866850081086,1.4966682985424995
1783246189177473800,5.976473876953125,5.947001693516969,4.511342867210507,0.9009081718090921
1783246189187485700,5.986485595703125,6.076761461374163,3.914507439395785,0.3061473583113402
1783246189197496600,5.99649658203125,5.979325754016638,3.342940892872214,0.11124218745715915
1783246189207508700,6.0065087890625,5.597864430719613,3.1017665766656397,0.25709238163270054
1783246189217520600,6.016520751953125,4.975285489839315,3.1374802796036003,0.4909308019932359
1783246189227532800,6.02653271484375,4.263499740764498,3.1641607812583445,0.6386478129539639
1783246189237544700,6.036544677734375,3.568849835407734,2.8583786760628223,0.5889353952798992
1783246189247555800,6.046555908203125,2.7756168062239883,1.7063783859491348,0.07898425099626183
1783246189257568000,6.056568115234375,1.724712499541044,-0.4419260211318731,-1.0408504571150987
1783246189267580000,6.066579833984375,-0.1557692383825779,-3.287899389129877,-2.1693343356281516
1783246189277591800,6.076591796875,-2.511870008203387,-6.597504998633265,-2.7554303427636624
1783246189287602700,6.086602783203125,-4.809688100403547,-9.567842412924765,-2.471584175044298
1783246189297614800,6.09661474609375,-7.62850867305994,-11.808001512360573,-1.3519757499694824
1783246189307626800,6.106626708984375,-9.773919112265109,-12.8215063549757,-0.3627867257043719
1783246189317639000,6.116638916015625,-11.099673210263251,-12.299762116241455,-0.07180741816945374
1783246189327650800,6.12665087890625,-13.116668866479396,-10.995618961548805,-0.6538606527201831
1783246189337661700,6.13666162109375,-16.729261982023715,-8.990106237855553,-1.4289837324567138
1783246189347673600,6.146673583984375,-21.328862393879888,-7.02072164312005,-0.9083354722656309
1783246189357685800,6.156685791015625,-25.313244164490698,-4.524623789066076,0.7181747194595635
1783246189367697700,6.16669775390625,-27.17792978286743,-2.3397499390006065,2.8520103100746867
1783246189377709800,6.176709716796875,-25.08009474930763,-2.013527687844634,4.632087846224009
1783246189387720700,6.186720703125,-18.594151014018056,-3.3275931016147133,5.334958759698272
1783246189397732600,6.196732666015625,-9.838229379612207,-5.74520778606236,5.761143606340885
1783246189407744800,6.206744873046875,-0.9277309314787388,-8.042787393331528,6.12419482820034
1783246189417756700,6.216756591796875,7.322820091366768,-8.8009420948714,5.864256190291047
1783246189427767800,6.226767822265625,13.026105382978916,-8.21216196321845,4.742030276194215
1783246189437779700,6.23677978515625,13.235453066813944,-6.640429363602399,2.149775064155459
1783246189447791600,6.24679150390625,7.802948125120997,-3.909212840119004,-0.7765076659627258
1783246189457803800,6.2568037109375,1.1607207721859216,-0.24177111305594443,-3.045729632145166
1783246189467815700,6.266815673828125,-4.441877116796374,2.71919758438766,-4.474064983695746
1783246189477826600,6.27682666015625,-7.927689188033342,3.9945471907943486,-4.224165801502764
1783246189487838700,6.286838623046875,-8.412707331916689,4.363686792656779,-2.7843185835957525
1783246189497850600,6.2968505859375,-6.717077134475112,4.749064997136593,-1.2959075335279107
1783246189507862800,6.30686279296875,-4.65824549304843,4.895401805785298,-0.0393826737742871
1783246189517873700,6.316873779296875,-2.26098386079967,4.234617345151305,0.5919919333063066
1783246189527885600,6.326885498046875,0.6285714592933654,3.1840193279385565,0.11228709340021013
1783246189537897500,6.3368974609375,3.8674861605018376,2.1714590726971625,-0.7770290594883262
1783246189547909600,6.34690966796875,6.5669865262508385,1.2207219441622494,-1.4390038989506662
1783246189557921500,6.356921630859375,7.920684277707338,0.6065010817825793,-1.39078128144294
1783246189567932700,6.3669326171875,7.871739921796322,0.5808078375995159,-0.48048744165115054
1783246189577944800,6.37694482421875,6.683702688139677,1.2456424504071473,0.6175804019406438
1783246189587956700,6.386956787109375,5.328905451008677,2.2135966712027786,1.2140729346018284
1783246189597968600,6.39696875,4.2387399780392645,2.925101265248656,1.5213415520280598
1783246189607979800,6.406979736328125,3.6064585583120583,3.4002614474624395,1.5840560746163128
1783246189617991700,6.41699169921875,3.638100481766462,3.8368554599165914,1.3343527072563766
1783246189628003600,6.427003662109375,4.393606714624166,4.064512122902274,0.8592878021106123
1783246189638015700,6.437015625,6.037440673854947,3.681874157041311,0.5875669564709067
1783246189648027600,6.447027587890625,7.844605831155181,3.2527450736403463,0.612149389867857
1783246189658038500,6.45703857421875,9.614243514093756,3.1054543252676723,0.5492302115529776
1783246189668050700,6.46705078125,10.522118821501731,3.065198887246847,0.790441644899547
1783246189678062600,6.4770625,10.489730463594197,3.3684383222222327,1.233742753776908
1783246189688074500,6.487074462890625,9.735770291134715,3.874749429503083,1.4261521622925997
1783246189698086000,6.4970859375,8.730515974992514,4.314499275639653,1.186473564536497
1783246189708097800,6.507097900390625,7.922275930812955,4.401435216292739,0.9860659968737512
1783246189718109700,6.517109619140625,7.8155504170626395,4.467010973531007,1.2410890248864888
1783246189728121900,6.527121826171875,6.900364494380354,5.095283742138743,1.4396614860765635
1783246189738133800,6.5371337890625,6.1913195684462785,5.649529151505232,1.2977315340846776
1783246189748144600,6.54714453125,5.342132596850395,5.589715026533604,0.804214734186232
1783246189758156800,6.55715673828125,5.376894698151946,5.207356462135911,0.19882351334169507
1783246189768168700,6.567168701171875,5.789618005675077,5.31491199696958,0.009017419192194938
1783246189778180600,6.5771806640625,5.587918790766596,5.927926990690827,0.6581018704865127
1783246189788191700,6.587191650390625,5.188799645704031,5.7183174410492175,1.4108277519106864
