time,seconds_elapsed,z,y,x
1783246269448855000,0.05185498046875,0.7766413753449917,-0.16023586240261792,0.4524828517857939
1783246269458867200,0.0618671875,0.8190560372263193,-0.039324879172444344,0.34317638163156805
1783246269468878000,0.071878173828125,0.550085367077589,0.15458265894651413,0.14854874907713383
1783246269478890200,0.08189013671875,0.06643558893799781,0.34851825411617754,-0.06903108532391489
1783246269488902100,0.091902099609375,-0.46585225564241406,0.6332613706752658,0.19793383449297397
1783246269498913000,0.1019130859375,-0.4004524394929409,0.4412319013878703,0.11882177413227035
1783246269508925000,0.111925048828125,-0.26227555642426015,0.2535910224482417,0.11856431050617247
1783246269518937000,0.12193701171875,-0.0923825156211853,0.507870903943479,0.7330595693804324
1783246269528949000,0.131948974609375,-0.3546972350120544,0.09341331997364759,1.0222937868136912
1783246269538960000,0.1419599609375,-0.8516191671788692,0.19510843834131955,0.9198549374066293
1783246269548972000,0.151971923828125,-1.0524491980373858,0.7425906371831893,0.7878174338757992
1783246269558984000,0.16198388671875,-0.9465256483197212,0.47724166466295714,0.3545951263444498
1783246269568995800,0.171995849609375,-1.1695067207098007,0.13653934499472378,-0.09847751716119237
1783246269579007200,0.18200732421875,-0.6742541830599308,-0.2840884520426392,-0.03861386309256777
1783246269589019100,0.19201904296875,-0.3225076145470142,-0.39010318717509507,-0.27004578856695444
1783246269599031000,0.202031005859375,-0.11156769308447838,-0.2511108960703015,-0.4636699796998873
1783246269609042200,0.212042236328125,0.2157616425305605,-0.0025619594424962995,-0.4002137353662401
1783246269619054000,0.22205419921875,0.6901204452335834,0.027165070301294326,-0.28204496351629493
1783246269629066000,0.23206591796875,0.9106734136939049,-0.25168372752219437,-0.28801958094649016
1783246269639078100,0.242078125,1.327432844865322,-0.42796150092631574,-0.2487769732300192
1783246269649089000,0.252089111328125,1.6773843466550111,-0.3804585759952664,-0.1770603020839393
1783246269659101000,0.262100830078125,1.6571645654469727,-0.310385507337749,-0.029251813447475433
1783246269669113000,0.272113037109375,1.5037410134077072,-0.2737254634603858,0.1669061339467764
1783246269679125000,0.282125,1.4685744229584932,-0.1924009329482913,0.2457796911101788
1783246269689136000,0.29213623046875,1.2860329129844903,-0.12378040118664502,0.26227760225087404
1783246269699148300,0.302148193359375,1.0979220784455537,0.006458090098202228,0.23112558120526372
1783246269709160200,0.31216015625,0.9674971246778964,0.04142126692980528,0.12044570380598306
1783246269719171000,0.322171142578125,0.8302648289829492,-0.1227142332598567,-0.12532247952949255
1783246269729183000,0.332182861328125,0.2873462847948074,-0.7054606377065181,-0.9870279007084667
1783246269739195100,0.342195068359375,-0.5789356139868498,-1.5206088538393376,-2.4527824439406394
1783246269749207000,0.35220703125,-0.9109212509751319,-1.7987065410345793,-3.404389341047406
1783246269759218000,0.362218017578125,-0.1337222417473793,-1.1518988755658268,-2.883812392526865
1783246269769230000,0.37222998046875,0.908565627759695,-0.046704760290682316,-1.1129347925297914
1783246269779242000,0.382241943359375,1.5372347022086381,0.8806655211821198,0.1991100021328777
1783246269789254000,0.39225390625,2.060786282625794,1.1466758802205324,0.35575646174140274
1783246269799265000,0.40226513671875,2.2675836974561214,0.5177791344955563,-0.013764138795249164
1783246269809277200,0.412277099609375,2.245937098315358,0.17660510566234588,-0.4588286406159401
1783246269819289000,0.4222890625,2.52732535148859,0.3804246737256646,0.5938049740776419
1783246269829301000,0.432301025390625,2.3450948071599007,1.314333124795556,1.261856356974691
1783246269839312100,0.44231201171875,2.1656933487772942,1.8974451476842165,0.35111258145831525
1783246269849324000,0.452323974609375,2.1073200702637434,1.8721409028187392,-0.4394750843157991
1783246269859336200,0.462336181640625,2.11989605872035,1.1897560202732682,-1.0769235679499805
1783246269869347000,0.47234716796875,2.202002679520845,0.5757175287231803,-1.29660326070711
1783246269879359000,0.48235888671875,2.4884628291308877,0.5331929767265916,-1.3056238947696983
1783246269889371100,0.49237109375,2.577147659277916,0.8881143758833407,-0.9900921105846762
1783246269899383000,0.502383056640625,2.34666249486804,1.35177525896132,-0.677385905214399
1783246269909394000,0.512393798828125,1.8961603685706854,1.6608257183030246,-0.42235611866731193
1783246269919406000,0.522406005859375,1.6883891402721405,1.5818521348312495,0.1589990140840411
1783246269929418000,0.53241796875,1.491346226736903,1.3549541812583803,0.5161525927396491
1783246269939430000,0.542429931640625,1.6991829214870928,1.2842980520159006,0.4778810585450381
1783246269949441000,0.55244091796875,2.364570492002368,1.345487849254906,0.09074084936138242
1783246269959453200,0.562453125,2.973247164258361,1.476361423572898,-0.26311542304819446
1783246269969465000,0.572465087890625,3.285724383178353,1.5606535717189312,-0.3250546321487054
1783246269979477200,0.582477294921875,3.4029309589326378,1.5669716688245534,-0.3562739097442478
1783246269989488000,0.592488037109375,2.674422623115778,1.4921239331111311,-0.3894654372608289
1783246269999500000,0.6025,1.6354396403729914,1.4393167642921207,-0.20014862446561454
1783246270009512200,0.61251220703125,1.2059025606930256,1.2723559775486588,0.14635631706677377
1783246270019523000,0.622523193359375,1.6306161657392977,0.7950430012151598,0.34110381314121185
1783246270029535000,0.632534912109375,2.0231068325728176,0.37359132057428357,0.19843480628505347
1783246270039547000,0.642546875,1.578461031088233,0.14735855291187763,-0.34868703481182456
1783246270049559000,0.65255908203125,0.5783820717573166,-0.15574059680998326,-1.1369386223211884
1783246270059570200,0.662570068359375,0.6537099922031164,-0.6548936490297317,-1.4111664823457597
1783246270069582000,0.67258203125,1.3306266724705695,-1.3391943020686505,-0.7008357543848455
1783246270079594200,0.68259423828125,1.1381313392370938,-1.501064779935777,-0.3641306876592338
1783246270089606100,0.692606201171875,-1.0051309820234775,-1.8212565187558531,-0.5277411410614847
1783246270099617000,0.702616943359375,-2.975340921667218,-2.814644456015527,-0.7342968560904264
1783246270109629200,0.712629150390625,-5.738624900540709,-3.6129879600808024,-1.029465943465382
1783246270119641000,0.72264111328125,-8.505324825337528,-3.775268772314489,-0.9127592800572514
1783246270129652000,0.73265185546875,-11.529958477962017,-3.369956033308804,0.1929734721392393
1783246270139664100,0.7426640625,-15.172694218313692,-3.2355364569470284,1.4013129045903683
1783246270149676000,0.752676025390625,-18.639253892070055,-3.513570138995349,1.9026278110191226
1783246270159688000,0.76268798828125,-20.176276412832735,-3.605226093907654,1.887766341973841
1783246270169699000,0.772698974609375,-20.177176576542852,-4.090274632929265,2.4968600705981254
1783246270179711000,0.7827109375,-19.182395139098166,-5.441104427734017,2.749619318397343
1783246270189723100,0.79272314453125,-17.04971441760659,-6.314266733679175,1.805051526147127
1783246270199735000,0.802735107421875,-15.256350991165638,-6.077724168926477,-0.548716416811943
1783246270209746200,0.81274609375,-13.908138393121957,-6.457914741635322,-0.44324411799311636
1783246270219758000,0.822758056640625,-11.413845542663335,-5.650048206943273,1.2710188837260008
1783246270229770200,0.832770263671875,-10.661737720072269,-4.334674048662185,3.0217697876259684
1783246270239781000,0.842781005859375,-10.057087234592437,-3.51300841345936,4.441252262896299
1783246270249793000,0.85279296875,-8.473183720189333,-2.74598826841861,5.611806446832418
1783246270259805000,0.862804931640625,-5.979711538463831,-1.991210934357345,6.318172508946061
1783246270269817000,0.872817138671875,-3.7417438115924595,-1.5064569943681358,6.206432381904125
1783246270279828000,0.882827880859375,-1.6065233424901961,-1.4741086762100457,5.47894111417532
1783246270289839900,0.89283984375,1.061568908560276,-1.4256465508580207,3.9868887849956747
1783246270299852000,0.90285205078125,3.8767683681100604,-0.9273460238143801,2.4547160423517225
1783246270309864000,0.912864013671875,6.514692859911918,-0.46413463806957006,0.9634002107530831
1783246270319875000,0.922875,8.714793505203723,-0.13049918804764746,-0.41193829462528225
1783246270329887200,0.93288720703125,10.286722504174708,0.019188100072741507,-2.0080600700885056
1783246270339899100,0.942899169921875,11.297518672353029,0.3264870395720005,-3.696791740188002
1783246270349911000,0.9529111328125,11.798286758553981,0.9797320446118711,-5.0924493954956525
1783246270359922200,0.962922119140625,11.957556114012002,1.6112202681347727,-6.11455255510807
1783246270369934000,0.97293408203125,11.699027927422522,2.0056059549346563,-6.626128451049327
1783246270379946000,0.982946044921875,11.03115672339797,2.2792305883690713,-6.624149844452738
1783246270389956900,0.992956787109375,10.103508794027567,2.785911113484204,-6.598802052706479
1783246270399969000,1.002968994140625,9.019744420272112,3.2980589640945195,-6.722305682778358
1783246270409981000,1.01298095703125,7.930641023576259,3.736775960052013,-6.871738119354844
1783246270419993000,1.0229931640625,7.1430240807086225,4.075317010033131,-6.969308851268887
1783246270430004200,1.033004150390625,7.004483625024557,4.221085955666005,-6.899554347041249
1783246270440016100,1.04301611328125,7.262402739804982,4.341316263155639,-6.644537383443117
1783246270450027500,1.053027587890625,7.6917200392544265,4.4311029170647265,-6.299680574443936
1783246270460039700,1.063039794921875,8.273127596312762,4.547079951024055,-6.056119070839881
1783246270470050600,1.073050537109375,8.72722044057846,4.487106543837488,-6.028099429535866
1783246270480062500,1.0830625,8.964216594317556,4.170286035016179,-5.892371108663082
1783246270490074600,1.09307470703125,8.798796899536251,3.86828344835937,-5.583240862083435
1783246270500085500,1.10308544921875,8.195252913993597,3.6390567595779895,-5.057013340455294
1783246270510097400,1.113097412109375,7.328362527924775,3.5046602718308564,-4.3371261179894205
1783246270520109600,1.123109619140625,6.168090668550134,3.363077379710972,-3.6060496852502224
1783246270530121500,1.13312158203125,5.166659710088372,3.1826164754033086,-3.047593672451377
1783246270540132600,1.143132568359375,4.8783343511283395,3.037570875608921,-2.946612547571957
1783246270550144800,1.153144775390625,5.074136909213662,3.0367212730422612,-3.0906235436215996
1783246270560156700,1.16315673828125,5.375941342949867,2.882008557975292,-3.460896825689077
1783246270570168600,1.17316845703125,5.660202521210908,2.496688805684447,-3.853751065137982
1783246270580179500,1.183179443359375,5.881958435720205,2.243525360998511,-3.9202211408674716
1783246270590191600,1.193191650390625,5.999184300696849,2.0654921222291884,-3.7621956479907035
1783246270600203500,1.20320361328125,5.918624324816465,1.7727710125282405,-3.6239141355037687
1783246270610214400,1.21321435546875,5.806558619081974,1.4455528822027146,-3.7649440699160097
1783246270620226600,1.2232265625,5.666788329342007,1.2061200028359889,-3.9918595591455697
1783246270630238500,1.233238525390625,5.596401372429728,1.0323451521635054,-4.048739384230971
1783246270640250600,1.243250732421875,5.345960630705952,0.9166136173978447,-4.11448348377347
1783246270650261800,1.25326171875,4.608412079343199,0.7758033170856535,-4.2094589384973045
1783246270660273700,1.263273681640625,3.519113452336192,0.7130364797882736,-3.8669390480130907
1783246270670285600,1.27328564453125,2.002324156785011,0.46694399640187617,-2.8088065436422824
1783246270680297700,1.283297607421875,0.4743658169656992,0.06753814335241913,-0.8208686396062373
1783246270690308600,1.29330859375,-1.0700631806612013,-0.37220775726139543,1.1056570566117763
1783246270700320500,1.303320556640625,-2.766118910038471,-1.2442496808744967,2.938031473970413
1783246270710332700,1.313332763671875,-4.063313268506526,-2.4044950906336306,4.794603343996405
1783246270720343600,1.323343505859375,-5.157925784012675,-3.243588538238406,5.850564934068918
1783246270730355500,1.33335546875,-6.899672420462966,-3.277296162050962,6.397001715511084
1783246270740367600,1.34336767578125,-9.59433528305292,-3.365914648963511,6.099790454784035
1783246270750379500,1.353379638671875,-12.1906131747365,-3.701914490029216,5.443554743495583
1783246270760390400,1.363390380859375,-14.980444968795776,-4.489213452988863,5.517202163508534
1783246270770402600,1.373402587890625,-18.215334067749975,-6.068565295436978,6.037107496377826
1783246270780414500,1.38341455078125,-22.53167750995159,-8.809137676286698,8.130059434071184
1783246270790425600,1.393425537109375,-28.589989706921575,-10.99551608569622,14.793089336538314
1783246270800437500,1.4034375,-35.06138819950819,-11.049258197277783,24.673912826251982
1783246270810449700,1.41344970703125,-37.879040897428986,-8.224240523546934,33.876160178053375
1783246270820461600,1.423461669921875,-32.92084098242521,-5.0455081961005925,36.262980495786664
1783246270830472400,1.433472412109375,-21.85581822978258,-4.866111998414993,28.094064969098568
1783246270840484600,1.443484619140625,-12.058929745340347,-6.008859307014942,17.351169891774653
1783246270850496500,1.45349658203125,-7.229036476776003,-5.12296611431241,11.74239243737459
1783246270860508700,1.4635087890625,-5.300836709865927,-3.665915248148143,9.400205042093992
1783246270870519600,1.47351953125,-3.3830870252996683,-2.5551728510960934,7.459995688438415
1783246270880531500,1.483531494140625,-0.4750479540109634,-1.1326952856630086,4.827038755916059
1783246270890543400,1.49354345703125,2.8764135144472123,0.37483722898215055,1.1561074331715702
1783246270900554800,1.5035546875,5.961895311266184,1.9117948678150771,-2.2551436103388665
1783246270910566700,1.513566650390625,9.205028506952523,3.6204824074894186,-4.481987593388557
1783246270920578600,1.52357861328125,12.466274866956471,4.974634332454205,-5.770343980884552
1783246270930590700,1.5335908203125,15.275397052419185,5.916538166192174,-6.324917891553044
1783246270940601600,1.5436015625,17.49683274668455,6.5049348514854906,-6.070117201054096
1783246270950613500,1.553613525390625,18.89450407990217,6.368585768365859,-4.548139689210057
1783246270960625700,1.563625732421875,19.266858552157878,5.654139860171079,-3.3418881689488886
1783246270970637600,1.573637451171875,18.12567542413473,5.350000261485576,-2.515769645990431
1783246270980648400,1.5836484375,16.07318058451414,6.024245676717162,-1.37807172973454
1783246270990660600,1.59366064453125,13.783870208418369,5.547251264813542,-2.8742995910331604
1783246271000672500,1.603672607421875,10.879459264498948,4.7081472958147526,-5.288488100424408
1783246271010683600,1.61368359375,7.278163203516602,4.828385202088952,-7.101375142502785
1783246271020695800,1.62369580078125,4.720775306719541,5.501883598345517,-7.394093183463811
1783246271030707700,1.633707763671875,3.5426954034537075,5.650125363832712,-7.489724471747874
1783246271040719600,1.6437197265625,3.371287281912565,5.364318125173449,-7.742313915938139
1783246271050730500,1.65373046875,3.9542520052850243,5.16474189376831,-7.407179459530115
1783246271060742700,1.66374267578125,5.061310745388269,4.220925504407286,-7.2416253247141835
1783246271070754600,1.673754638671875,5.983972118517756,3.0670608817264435,-6.689685854202509
1783246271080766700,1.6837666015625,6.3813464657396075,2.4120563196681437,-5.084793327784538
1783246271090777600,1.693777587890625,5.721583749368786,1.7058460326381026,-3.440396766234934
1783246271100789500,1.70378955078125,4.791121347099542,0.9995260016232729,-2.21850811638087
1783246271110801400,1.713801513671875,4.471531665825844,0.910945508633554,-0.9328273778349161
1783246271120812500,1.7238125,3.968279946115613,1.2566267857581377,-0.1502472600907087
1783246271130824400,1.733824462890625,3.0577918258607384,1.3206577977724372,-0.13814268853813408
1783246271140836400,1.74383642578125,2.540540806892514,1.2668249391674995,-0.6481187480673194
1783246271150848500,1.7538486328125,2.731194896173477,1.4167895829245447,-1.3452315364062786
1783246271160859600,1.763859619140625,3.2069401847988366,1.5163921129271387,-1.9769234658077357
1783246271170871600,1.77387158203125,3.6724756295770407,1.4303594047240913,-2.6258508999094365
1783246271180883700,1.7838837890625,4.006346934181452,1.286900927990675,-3.2027772199004887
1783246271190895600,1.7938955078125,4.262579703310132,1.1390391747970134,-3.529995496356487
1783246271200906500,1.803906494140625,4.492106251820922,1.0199489772532135,-3.6027114807382223
1783246271210918700,1.813918701171875,4.7412131145924326,0.9404580188438296,-3.657410454653203
1783246271220930600,1.8239306640625,4.9143327162265775,0.8942547783344984,-3.7242780052676796
1783246271230941400,1.83394140625,5.019872819584608,0.8955535129081458,-3.727404612855613
1783246271240953600,1.84395361328125,5.192711850711703,0.9050076430171727,-3.596848433923721
1783246271250965500,1.853965576171875,5.3403468824774025,0.8708009836412965,-3.6245340209677814
1783246271260977400,1.863977294921875,5.435830286723375,0.9131191263455897,-3.6607387222930785
1783246271270988500,1.873988525390625,5.449952335578203,0.984957962566614,-3.601052899876237
1783246271281000700,1.884000732421875,5.672206847259402,0.8332453060984611,-3.7425598041504617
1783246271291012600,1.8940126953125,5.745647931045293,0.5856223252091557,-3.796915079194307
1783246271301024800,1.904024658203125,5.356354014426469,0.2515238607853651,-3.301206029948592
1783246271311035600,1.91403564453125,4.804412205827236,0.12658552173525095,-2.3216034569352866
1783246271321047600,1.924047607421875,4.11916491958797,0.004349427381157875,-1.0713280860304832
1783246271331059500,1.9340595703125,2.519914198449254,-0.41492476309016346,0.237855400916934
1783246271341070600,1.944070556640625,0.2998831102848053,-0.538784366992861,1.5231623377144337
1783246271351082500,1.95408251953125,-1.5071850163817404,0.03540039920508861,2.6078409037053585
1783246271361094400,1.964094482421875,-3.4624311956495046,0.10729586098417639,2.93456818177402
1783246271371106600,1.9741064453125,-6.488602725365758,-0.9588754268050194,3.046565206186473
1783246271381117700,1.98411767578125,-9.815362883287667,-2.2200866177439686,4.014349915634096
1783246271391129600,1.994129638671875,-13.19014209896922,-3.100036976394057,5.814620344984531
1783246271401141800,2.004141845703125,-18.008332654780148,-4.644899689263105,7.702927661967277
1783246271411152600,2.014152587890625,-24.304041402983664,-7.284101945915817,9.5490184699893
1783246271421164500,2.02416455078125,-31.4544439035058,-9.399173360958695,12.314196299785374
1783246271431176700,2.0341767578125,-37.518575600409505,-8.367541910022497,18.106748605346677
1783246271441188600,2.044188720703125,-39.34254108586311,-4.936515906462073,24.417504116034507
1783246271451200000,2.054199951171875,-37.02436000459194,-2.6971675388872622,26.864228575110435
1783246271461212000,2.0642119140625,-30.333321566736696,-2.65681273214519,23.344569763851165
1783246271471224000,2.07422412109375,-21.1191780254364,-3.9161484846010803,16.70828933662176
1783246271481236000,2.084236083984375,-13.587821566617489,-5.531521780762076,11.024838041770458
1783246271491246800,2.094246826171875,-9.577093640872835,-6.364774685645103,7.274709263670444
1783246271501259000,2.104259033203125,-8.569265674850344,-5.456536390143633,5.0598634691894055
1783246271511271000,2.11427099609375,-8.7955919660151,-3.1021982460811732,3.4245477474570274
1783246271521282000,2.124281982421875,-8.373529167738557,-0.5721592517197132,1.3834589757308362
1783246271531294200,2.134294189453125,-6.15699995021522,1.526650764352083,-0.8932567072078585
1783246271541306000,2.14430615234375,-2.4129028534948826,2.8576699432715773,-2.918378386734426
1783246271551318000,2.154318115234375,2.0105214917659757,3.319369755409658,-3.9228281084954735
1783246271561329200,2.1643291015625,6.392399774673581,3.659078972387314,-3.783025085529685
1783246271571341000,2.174341064453125,9.707686352422833,4.377454036724568,-2.3978859016269443
1783246271581353000,2.18435302734375,12.199411398220061,4.299672585646808,-2.074263603836298
1783246271591365000,2.194365234375,13.719701395368576,4.679056518147886,-2.4817998641103505
1783246271601376000,2.2043759765625,14.710923094505072,5.194894455447793,-3.8734786789149043
1783246271611388000,2.214387939453125,15.633684420877694,5.3483554168879985,-5.730579541251063
1783246271621400000,2.224400146484375,16.057333027040958,5.695888751620054,-7.653413981735706
1783246271631411200,2.2344111328125,15.655254447650908,6.648422700443864,-9.040582041117549
1783246271641423000,2.244423095703125,14.513095168071985,7.762356587013602,-9.971252533179522
1783246271651435300,2.254435302734375,12.692349229186773,8.212304586559533,-10.874211426973343
1783246271661447200,2.264447265625,10.176077186632156,8.047478766018152,-11.599253547984361
1783246271671458000,2.2744580078125,9.991910705804825,7.795650953850149,-11.810495082741975
1783246271681470000,2.284469970703125,11.043490135270357,8.529915661236643,-10.905796651804447
1783246271691482000,2.294482177734375,11.2240173828125,8.536644092708826,-10.332312873482703
1783246271701493000,2.304492919921875,11.089483824682235,7.5173232572913165,-10.29716206512451
1783246271711505000,2.3145048828125,10.882810913014412,6.915990518057346,-9.92380922948122
1783246271721517000,2.32451708984375,10.652812070816754,6.625878275680542,-9.290065920507907
1783246271731529000,2.334529052734375,9.934209042942523,6.267468157625198,-8.542838855695724
1783246271741539800,2.344539794921875,8.858450280988215,5.859529161769151,-7.730719339734315
1783246271751552000,2.354552001953125,7.442344296413659,5.345181463027,-6.876043123072385
1783246271761564000,2.36456396484375,5.848376484113931,4.889613577772677,-5.942568094983697
1783246271771575800,2.374575927734375,4.414910199415684,4.592461646017432,-5.073028655710816
1783246271781587200,2.384587158203125,3.2444846102952956,4.240756870819628,-4.52595883706212
1783246271791599000,2.39459912109375,2.6424445995748043,3.827680512075126,-4.4326317340672015
1783246271801611000,2.404611083984375,2.644288766136765,3.542524723061919,-4.600141094604134
1783246271811622100,2.4146220703125,3.0009990945369003,3.380105086879432,-4.91507330546081
1783246271821634000,2.424634033203125,3.319080709335208,3.1187846392229197,-5.222863827869296
1783246271831646000,2.43464599609375,3.51236573164165,2.8202833386853334,-5.549212335753441
1783246271841658000,2.444658203125,3.5281834784984585,2.6193144838780165,-5.734211175751685
1783246271851669000,2.4546689453125,3.40952962654531,2.4555668139621614,-5.773409213674068
1783246271861681000,2.464680908203125,3.2534996913999317,2.096391556753218,-5.652266467514634
1783246271871693000,2.474693115234375,3.088539430823922,1.7204022351264951,-5.391911650019884
1783246271881705000,2.484705078125,2.8107863192826508,1.5591396600246428,-5.2123079470634455
1783246271891716000,2.494716064453125,2.3357833734571933,1.2837108997777105,-5.0346027712047094
1783246271901728000,2.50472802734375,1.8427163631528616,0.902728007647395,-4.714181315281987
1783246271911740200,2.514740234375,1.5033856240987777,0.4493029796406626,-4.341894063043594
1783246271921751000,2.5247509765625,1.3048895891457795,-0.1843140726044774,-3.5841532030016183
1783246271931763000,2.534762939453125,0.9802338566541671,-0.841280874646455,-1.879912998124957
1783246271941775000,2.544775146484375,0.36829905938506124,-1.375930333791673,0.7622118679761886
1783246271951787000,2.554787109375,-0.3805690506324172,-1.6405648744322359,3.64082727638185
1783246271961798000,2.5647978515625,-1.158640458780527,-2.061916017308086,5.948017592561245
1783246271971810000,2.57481005859375,-2.0947645400732755,-3.0231793621629475,7.971382199287414
1783246271981822000,2.584822021484375,-3.5189836884766814,-4.237530017727614,9.847821383821964
1783246271991833900,2.594833740234375,-6.886317848849296,-4.974914902961254,12.036397595536709
1783246272001845200,2.60484521484375,-13.83401984846592,-4.028381948117912,15.692743343567848
1783246272011857200,2.614857177734375,-22.623531617784497,-3.2230262272030115,19.600439349383116
1783246272021869000,2.624869140625,-29.449704502272603,-3.693706049132347,23.400157795560357
1783246272031880200,2.634880126953125,-32.55116362042427,-4.400103090906143,26.17780347726345
1783246272041892000,2.64489208984375,-33.19405820410251,-5.236655037334561,27.769709096336364
1783246272051904000,2.654904052734375,-31.38356010298729,-6.022024493536353,29.968640697848794
1783246272061916200,2.664916259765625,-26.321955927610396,-6.771503721189498,30.470777734315394
1783246272071927000,2.674927001953125,-20.741520770597457,-7.404448573261499,28.104158493089674
1783246272081939000,2.68493896484375,-15.665892746043204,-7.043016477036476,23.891504557943342
1783246272091951000,2.694951171875,-11.410818888318538,-6.632486880165338,18.343650651061534
1783246272101962000,2.7049619140625,-8.083064458662271,-6.104336281520128,12.909040846043824
1783246272111974000,2.714973876953125,-5.312099277636409,-5.498275344720483,8.151538275429607
1783246272121985800,2.72498583984375,-2.908406151035428,-4.7309074091553684,4.672252391090989
1783246272131998000,2.734998046875,-0.7322159581631421,-3.231563461662829,2.727143574956059
1783246272142009000,2.745009033203125,1.1359949117302894,-1.3152008475407957,1.460493407833576
1783246272152021000,2.75502099609375,2.8252725252747535,0.6317462899371982,-0.2509311555892229
1783246272162033200,2.765033203125,4.686622861748933,2.5906036454394457,-2.1249615254163743
1783246272172044000,2.7750439453125,6.741203275471926,3.8424037416934964,-3.9385704520285127
1783246272182056000,2.785055908203125,8.819150536257029,4.524210824351012,-5.103381708398461
1783246272192068000,2.795068115234375,10.816374155032634,4.922939216530323,-5.73172286606729
1783246272202080000,2.805080078125,12.819432471311092,4.799093348892033,-6.257539468806982
1783246272212091000,2.8150908203125,15.339436101609467,4.233443332935869,-7.073633733618259
1783246272222103000,2.82510302734375,18.401352313923834,3.5727889284223315,-7.559345704984665
1783246272232115000,2.835114990234375,21.02600523622036,3.3335818206354975,-7.426486217546462
1783246272242126800,2.845126953125,21.57802770884037,3.59961994446367,-6.670163992130756
1783246272252138200,2.85513818359375,19.30631728684306,4.071893757586181,-5.641188024139404
1783246272262150100,2.865150146484375,15.655579441821574,4.253421706603468,-4.9512727460891
1783246272272162000,2.875162109375,12.224447639799118,4.1399852970376605,-4.900207160240411
1783246272282173000,2.8851728515625,9.0528891495049,4.092209984906018,-4.96292928161323
1783246272292185000,2.89518505859375,5.806763201743364,4.2059313488930465,-5.013804313325882
1783246272302197000,2.905197021484375,3.4436616132497786,4.261619333845377,-4.964469496792555
1783246272312209200,2.915209228515625,3.529494561097026,4.348163060310482,-4.864812313993275
1783246272322220000,2.925219970703125,4.6278515238285065,4.646097374615073,-4.579574984176457
1783246272332232000,2.93523193359375,5.46306900678277,4.559891794063151,-4.634468019358813
1783246272342243800,2.945243896484375,6.297970263394713,3.9515389469340443,-5.243994878703355
1783246272352256000,2.955256103515625,7.086330718106031,3.4720676235228773,-5.849837788838148
1783246272362267100,2.96526708984375,7.846887220090627,3.2429160458043214,-6.275337575826049
1783246272372279000,2.975279052734375,8.418907355600595,3.185631731571257,-6.324853009623289
1783246272382291200,2.985291259765625,8.645510125619172,3.1562010544255372,-5.84707416934371
1783246272392302000,2.995302001953125,8.544443952804803,3.2079619290620087,-5.280756629389524
1783246272402314000,3.00531396484375,8.095665581560134,3.283161546953022,-4.918909522622823
1783246272412326100,3.015326171875,7.420895265671611,3.209543353034556,-4.7180292228817935
1783246272422338000,3.025338134765625,6.695481973260641,3.067728113463521,-4.498741159790754
1783246272432349000,3.035348876953125,6.036045420104265,3.020018852305412,-4.242248862943053
1783246272442361000,3.045361083984375,5.636128402662277,2.953182865872979,-3.9979210511416197
1783246272452373000,3.055373046875,5.404520956224203,2.765166139358282,-3.7957805222064254
1783246272462385000,3.065385009765625,5.26979801300168,2.550812025538087,-3.6865281203269955
1783246272472395800,3.075395751953125,5.07805788204968,2.478881930837035,-3.6570986122250555
1783246272482408000,3.085407958984375,4.744038108885288,2.4564213849648833,-3.7191415191620587
1783246272492419800,3.095419921875,4.311063455972075,2.3009653041847047,-4.004184787711501
1783246272502431000,3.105430908203125,3.8667555081397293,2.074368233254552,-4.193509089693427
1783246272512443000,3.11544287109375,3.3479864858239887,1.8330914795868098,-3.9417748010277744
1783246272522455000,3.125455078125,2.9442332512199876,1.629599389912188,-3.5432319945484396
1783246272532467000,3.135467041015625,2.7447376838356257,1.4163501685939728,-3.1979005537748333
1783246272542477800,3.145477783203125,2.51344938634932,1.0376685391433536,-2.687220729890466
1783246272552490000,3.155489990234375,1.8653619102030992,0.5394004530645906,-1.9632932921230792
1783246272562502000,3.165501953125,0.8577315125793218,-0.03182823980674147,-1.1122247445642948
1783246272572512800,3.1755126953125,-0.5520569594115019,-0.5897665123417973,0.21975509608089921
1783246272582525000,3.18552490234375,-2.554713124629855,-0.9691745563708245,2.0777502769082785
1783246272592536800,3.195536865234375,-4.789903203481435,-1.1971131050378083,4.519872210624814
1783246272602548700,3.205548828125,-7.100938504651189,-1.7501336487844585,7.219971711310744
1783246272612560100,3.21556005859375,-9.606442484953998,-3.2855276915624736,9.545058918708563
1783246272622572000,3.225572021484375,-12.34846448009014,-5.6562429699301715,10.658979945796727
1783246272632584000,3.235583984375,-16.786629298365114,-8.019650263372062,10.545665701305866
1783246272642596000,3.24559619140625,-24.529072978162763,-9.459564993557333,10.596707321757078
1783246272652607000,3.25560693359375,-33.395559266090395,-10.022116458976269,12.386147437274456
1783246272662619000,3.265618896484375,-41.175512884593005,-10.379274531143903,17.25826598262787
1783246272672631000,3.275631103515625,-43.7942223883152,-9.632418637731671,24.827008461511134
1783246272682642000,3.285641845703125,-40.13505924477577,-9.014495413702726,30.5644625647068
1783246272692653800,3.29565380859375,-34.10646414067745,-8.744110785102844,30.182533623898028
1783246272702666000,3.305666015625,-26.933737580144403,-7.601951505523919,23.258231204569338
1783246272712678000,3.315677978515625,-20.802290004336832,-7.291850368085504,14.966697013950347
1783246272722689000,3.32568896484375,-16.826992872935534,-7.643965769910812,8.533720314216612
1783246272732701000,3.335700927734375,-14.080199425613879,-7.354214762061834,4.869216978693008
1783246272742713000,3.345713134765625,-11.201079574817419,-5.906070548191666,3.4804952601283787
1783246272752724000,3.355723876953125,-7.760583732122182,-3.376067209665477,3.3817397023439404
1783246272762735900,3.36573583984375,-3.9695740775793786,-0.9676964466422796,3.304165464276075
1783246272772748000,3.375748046875,0.21829379135668275,0.46149756756424903,2.565072898341715
1783246272782760000,3.385760009765625,4.303495651066303,1.2911863502249121,1.6032605413019656
1783246272792770800,3.395770751953125,7.422650584906339,1.8754174402713775,0.9781681562960147
1783246272802783000,3.405782958984375,9.868928469258547,2.369366494107246,0.6338685427881777
1783246272812795000,3.415794921875,11.592171480768918,3.199841166448593,0.7968889213427901
1783246272822806800,3.425806884765625,12.9904740976274,4.144961624145507,0.8037175983190536
1783246272832818000,3.43581787109375,14.148933354622125,4.996343475437164,0.9477817127954214
1783246272842829800,3.445829833984375,14.625354935073851,6.18327888533175,1.217781506796181
1783246272852841700,3.455841796875,14.470864630585908,7.126043719813227,0.8476596889633685
1783246272862853000,3.46585302734375,13.484306247085332,7.6214143308848135,-0.09241882904358208
1783246272872865000,3.475864990234375,11.374667378485203,7.89565154325962,-0.9647659461483359
1783246272882877000,3.485876953125,8.781163043168187,7.857557667186856,-1.9749783230893312
1783246272892889000,3.49588916015625,8.207043889552354,8.04294930589497,-2.2252559832058845
1783246272902900000,3.50589990234375,7.994200764816999,8.641219734948873,-1.9751063333831727
1783246272912912000,3.515911865234375,7.871562227141856,8.690701850998401,-2.349505755469948
1783246272922924000,3.525924072265625,8.230391447392105,8.486619540345668,-2.7079399850532413
1783246272932936000,3.53593603515625,8.791554673323034,8.556001119607686,-2.38789276927039
1783246272942946800,3.54594677734375,9.53219768356979,8.7603622472018,-1.6578614616699516
1783246272952959000,3.555958984375,10.438803409433364,8.885772003155946,-1.0186762539036571
1783246272962971000,3.565970947265625,11.172287195575237,8.930317247325181,-0.353762730640918
1783246272972982000,3.57598193359375,11.583339355015754,8.883208290147781,0.11009710907526314
1783246272982994000,3.585993896484375,11.479380967891215,8.792118736946582,0.5182800697550177
1783246272993006000,3.596006103515625,10.632897410035133,8.70539965391457,1.1327062454484402
1783246273003018000,3.60601806640625,9.360057740622759,8.849818646243214,1.706145892367512
1783246273013028900,3.61602880859375,7.934148154914379,9.055359923532604,1.6746534603863954
1783246273023041000,3.626041015625,6.151046594768762,9.130162358799577,0.9180082866266369
1783246273033053000,3.636052978515625,4.331326491799951,8.981726532045005,-0.24523396686092017
1783246273043064800,3.64606494140625,4.083946891212463,8.888755402880907,-1.3867197310924528
1783246273053076000,3.656075927734375,4.518731223896146,9.302434403693676,-1.8491008034929632
1783246273063087900,3.666087890625,5.013044434869289,9.238692876145244,-2.193980408845842
1783246273073099800,3.676099853515625,5.830757825314998,8.655662686321138,-2.45431038416028
1783246273083111200,3.686111083984375,6.528579930967092,8.13442698163092,-2.067629280388355
1783246273093123000,3.696123046875,6.684110684418678,7.591121483951807,-1.1297912347845733
1783246273103135000,3.706135009765625,6.6193433209538455,7.131588494458795,-0.32336605800725515
1783246273113147100,3.716147216796875,6.696427729678153,6.903664704969525,-0.04730776768513024
1783246273123158000,3.726157958984375,6.700819827157258,6.748013540008664,-0.06606697482131421
1783246273133170000,3.736169921875,6.286652166044711,6.406451680901646,-0.18359153048358856
1783246273143182000,3.74618212890625,5.11830338319838,6.025418812149763,-0.31478608038425443
1783246273153193000,3.75619287109375,3.4831624335110187,5.702790201571584,-0.22227387396879492
1783246273163204900,3.766204833984375,1.524748730123043,4.943659348475933,0.05385667787194252
1783246273173217000,3.776217041015625,-0.6269371360898017,3.699561789423227,0.32746512735653666
1783246273183229000,3.78622900390625,-3.1791970223486423,2.155523252418637,0.4531857028255239
1783246273193239800,3.79623974609375,-6.044063891386985,0.14749650007784365,0.30517423896286633
1783246273203251700,3.806251708984375,-8.641028011769055,-2.389154898160696,-0.1963617263380438
1783246273213264000,3.816263916015625,-11.188321800053119,-5.146572030827403,-0.812336958104372
1783246273223275800,3.82627587890625,-13.990795633542536,-7.884224140316247,-0.769962701298669
1783246273233287000,3.836286865234375,-16.510012497377396,-10.972490599417686,-0.08341105446256697
1783246273243299000,3.846299072265625,-17.940417056417463,-14.141896880114079,1.5736352183669804
1783246273253311000,3.85631103515625,-17.92477525064945,-15.923426076376437,4.104606232881546
1783246273263321900,3.86632177734375,-16.396642138785122,-16.40973659815788,6.028707916823029
1783246273273334000,3.876333984375,-14.064462927299736,-17.297751605319977,5.86732726829946
1783246273283346000,3.886345947265625,-11.960756955879926,-17.832057219463586,4.17462903265655
1783246273293357800,3.89635791015625,-10.36572414469719,-17.141688936948775,1.7062886618390678
1783246273303369000,3.906368896484375,-11.002827285492419,-15.912060632753372,-0.41796888002641497
1783246273313380900,3.916380859375,-13.132132977592944,-14.386315877330302,-2.1408727957755325
1783246273323392800,3.926392822265625,-14.37305892087221,-13.313804718995094,-3.6060292269840835
1783246273333404000,3.93640380859375,-13.495754692816734,-12.069612467396258,-4.078130898410081
1783246273343416000,3.946416015625,-10.05045875636339,-10.278892248940467,-4.047044563011825
1783246273353428000,3.956427978515625,-5.122509602716565,-8.600423614180087,-3.7101805063322186
1783246273363440000,3.966440185546875,-0.8099953634142876,-7.058563005736469,-1.9278652742587028
1783246273373451000,3.976450927734375,2.3389070584356784,-4.922464584755898,0.88527155367285
1783246273383463000,3.986462890625,4.946827457118034,-2.530580553892255,2.503903559368849
1783246273393475000,3.99647509765625,6.871230169832706,-0.03699614396393299,2.730137203814089
1783246273403487000,4.006487060546875,7.5484940561026335,2.1213409968316554,1.0388316646385938
1783246273413497900,4.016497802734375,6.199705703997612,3.544002978920936,-1.6497295931406317
1783246273423509800,4.026509765625,2.7871961848586797,3.618291034924984,-4.823023090533912
1783246273433522000,4.03652197265625,0.5376268675208091,3.4015129088282583,-6.130921506106853
1783246273443533000,4.046532958984375,1.610692152607441,4.654821948340535,-3.486251339437067
1783246273453545200,4.056545166015625,2.980982726946473,5.949216446956992,0.21588296735528856
1783246273463557000,4.06655712890625,4.282816435652971,5.806979474842548,2.4418024925038218
1783246273473569300,4.0765693359375,5.741218424165249,5.738993733853102,3.8156653723716736
1783246273483580200,4.086580078125,7.59987995994687,5.631832166773081,4.098440403728187
1783246273493592000,4.096592041015625,9.238787568691372,5.63136688734889,3.712867261198163
1783246273503604200,4.106604248046875,9.951475819563866,6.076494919392466,3.219918032054603
1783246273513616100,4.1166162109375,9.776994866448641,6.577515519049763,2.245423888096213
1783246273523627000,4.126626953125,8.975375117191671,6.745064627075195,0.8933132597006856
1783246273533639000,4.136638916015625,7.717067246478796,6.722422587156295,-0.1447717695553787
1783246273543651000,4.146651123046875,6.25338468721509,6.623249096220731,-0.9719685710035264
1783246273553662000,4.156661865234375,4.765773555353284,6.424276091405749,-1.779597205286473
1783246273563673900,4.166673828125,3.277604789608717,6.285053498676419,-2.3892775016270575
1783246273573686000,4.17668603515625,2.3630010507285593,6.2616942503988735,-2.488201547846198
1783246273583698000,4.186697998046875,2.1074632781267164,6.21673691829741,-1.518757965275645
1783246273593709000,4.196708984375,2.3752701651930805,6.076053605365753,-0.21190651973867788
1783246273603721200,4.20672119140625,3.2395781335532665,5.932016305831074,0.6473596733283251
1783246273613733000,4.216733154296875,4.330744307997823,5.758867478102445,0.876517461591959
1783246273623745000,4.2267451171875,5.41911062259078,5.459807374638319,0.6412913132000714
1783246273633756200,4.236756103515625,6.311885976022482,5.185266210880875,0.43492169532775876
1783246273643768000,4.24676806640625,6.925148807024955,4.9093116731941695,0.3237440244741738
1783246273653780000,4.256780029296875,7.193674071493745,4.716874207627773,0.30182087341435254
1783246273663791000,4.266791015625,7.105642736819386,4.746889991185069,0.38529052619636056
1783246273673803000,4.276802978515625,6.6424763592600815,4.804094225919246,0.3613298779595643
1783246273683815000,4.28681494140625,5.915256894209981,4.67172807495594,0.28553587437197564
1783246273693827000,4.2968271484375,5.262129670330882,4.524581703490019,0.10635689963363111
1783246273703838200,4.306838134765625,4.796517653185129,4.621806982967257,-0.15451719249486923
1783246273713850000,4.31685009765625,4.492562178894877,4.749831889855861,-0.36158991713523864
1783246273723862300,4.3268623046875,4.379896169179678,4.628525477567315,-0.4763002190943807
1783246273733873200,4.336873046875,4.424388221856951,4.581948435309529,-0.4271463120859116
1783246273743885000,4.346885009765625,4.416090933632851,4.564851170036197,-0.20030732215866445
1783246273753897000,4.35689697265625,4.228389264416695,4.395364371946454,0.23126776615492997
1783246273763909000,4.3669091796875,4.0231712277323,4.076482546681166,0.5751319108549505
1783246273773920000,4.376919921875,3.8406191963642833,3.6756858237951993,0.7121457414936274
1783246273783932000,4.386931884765625,3.339910146874189,3.1143238604217767,0.5386659282449633
1783246273793944000,4.396944091796875,2.2842671212315557,1.9612451274216174,0.09353577730953692
1783246273803956000,4.4069560546875,0.29456746821999547,0.39358196920156474,-0.38778117396831513
1783246273813967000,4.416967041015625,-2.660988556525111,-1.0821949324816464,-0.8070042187742889
1783246273823979300,4.426979248046875,-5.87208410743773,-2.267084515762329,-0.5128424087457358
1783246273833991200,4.4369912109375,-8.800883642682432,-3.678603172546625,0.31682847293205557
1783246273844002000,4.447001953125,-10.930116269546746,-5.610219469901919,1.5039109631471335
1783246273854014200,4.45701416015625,-12.604695495653152,-7.8291212617754935,3.571674829700589
1783246273864026000,4.467026123046875,-14.297183303415775,-9.709456284704803,6.387998324844241
1783246273874038000,4.4770380859375,-14.722041869890688,-10.878080961883068,8.470926881173252
1783246273884049200,4.487049072265625,-13.383215524351597,-12.471307600426673,8.560828685894608
1783246273894061000,4.49706103515625,-11.076371829652786,-15.037689535540341,6.445940226203203
1783246273904073000,4.507072998046875,-7.790621727511287,-16.506902840924262,3.3279216029167173
1783246273914083800,4.517083740234375,-5.730135889136791,-18.08281594109535,0.13846782883927225
1783246273924096000,4.527095947265625,-9.00523834053576,-18.781116185653207,-2.075002147243917
1783246273934108000,4.53710791015625,-16.000639079916475,-16.923540691542623,-2.0474637135855853
1783246273944120000,4.5471201171875,-21.094214264571665,-14.537176300883292,-0.8430698038898408
1783246273954131200,4.557131103515625,-23.330749328291414,-11.93131926447153,-0.4021124816596508
1783246273964143000,4.56714306640625,-21.98287926007509,-9.657404610428214,-1.0686693882152438
1783246273974155000,4.577155029296875,-17.71431113000512,-7.8405439885437485,-1.83068982527256
1783246273984167200,4.587167236328125,-11.885727726119756,-5.4914165648669,-1.563367506852746
1783246273994178000,4.597177978515625,-6.570926203787327,-3.3852632002949714,-1.0983978792637585
1783246274004190000,4.60718994140625,-1.5989339102745055,-1.9502736515522001,-1.7158192912504076
1783246274014202000,4.6172021484375,2.7532641046404835,-0.7472995455265045,-3.1122929391160605
1783246274024213000,4.627212890625,6.265771875101327,0.16854104167222975,-4.505120631694793
1783246274034225000,4.637224853515625,8.710718218588829,0.8951239623844623,-5.242934555995464
1783246274044237000,4.647237060546875,9.930987158286571,1.607664913740754,-5.104822554856539
1783246274054249000,4.6572490234375,10.564292075842618,2.4663036042928694,-3.856709330421686
1783246274064260000,4.667260009765625,10.638912140280008,3.882738674691319,-1.8857739991128444
1783246274074272300,4.677272216796875,9.601475217935443,5.40178480925858,-0.5145888870868831
1783246274084284200,4.6872841796875,7.831212096574902,6.159972244024276,0.023430559948086738
1783246274094295000,4.697294921875,5.530438077178597,6.192452371868491,0.35226756017971783
1783246274104307200,4.70730712890625,3.708085287618637,5.914582355949283,0.5807368547225371
1783246274114319000,4.717319091796875,3.50826238797605,5.657839299210906,0.36254714479483663
1783246274124331000,4.7273310546875,4.482465732294321,5.656578485494852,0.04491488119922578
1783246274134342000,4.737341796875,5.783030443978309,5.5547676317930215,-0.5827698583874851
1783246274144354000,4.74735400390625,7.051104506424069,5.201363359200954,-1.5459338492318988
1783246274154366000,4.757365966796875,8.149885247525573,4.865342183086276,-2.3922496493056413
1783246274164378000,4.767378173828125,8.953197187653183,4.873796123176813,-2.676565188102424
1783246274174389200,4.77738916015625,9.06687734284699,5.075684138655662,-2.512635439617932
1783246274184401200,4.787401123046875,8.742225702008604,4.902817634999752,-2.2290841631919145
1783246274194413300,4.797413330078125,8.474274438035488,4.704879233929515,-1.8038722532346843
1783246274204424200,4.807424072265625,8.281119764110446,4.630028283345699,-1.185021466032043
1783246274214436000,4.81743603515625,8.120763782459496,4.55451214685142,-0.49859651431553065
1783246274224448000,4.827447998046875,7.900757926487922,4.3936254193246365,0.06022424014247953
1783246274234460200,4.837460205078125,7.663040472736954,4.267953213042021,0.49841911192201077
1783246274244471000,4.847470947265625,7.379641464263201,4.327039608260989,0.7898709323395043
1783246274254483000,4.85748291015625,7.115875377020239,4.390953569766879,0.6747863171752542
1783246274264495000,4.8674951171875,6.976527112084627,4.3238188926488155,0.2053207664065063
1783246274274506000,4.877506103515625,6.786627640563249,4.361537505668402,-0.4000819256801158
1783246274284518000,4.887517822265625,6.534103662824631,4.4676089394241565,-0.9954545144006609
1783246274294530000,4.897530029296875,6.299754808723926,4.426306038177013,-1.4609262462928891
1783246274304542000,4.9075419921875,6.120676006424427,4.428243143719435,-1.7417489745378494
1783246274314553000,4.917552978515625,6.031175183719396,4.542455213832855,-1.717200808736682
1783246274324565200,4.927565185546875,5.908776884540915,4.762122047108411,-1.2822095553040505
1783246274334577200,4.9375771484375,5.482654581740499,5.001845579984784,-0.5186217958647757
1783246274344589000,4.947589111328125,4.815323475942015,5.0699172456920145,0.2765479735352099
1783246274354600000,4.957599853515625,4.323721277493238,5.145839040377735,0.9019389761615544
1783246274364612000,4.967612060546875,4.153511425825953,5.233855177482963,1.3755905804432929
1783246274374624000,4.9776240234375,4.173610211002827,5.288420295885205,1.6238358579494059
1783246274384635000,4.987634765625,4.105134640669823,5.324418660983443,1.675336766475439
1783246274394647000,4.99764697265625,3.6079946818381545,5.262924620100856,1.6526126012310385
1783246274404659000,5.007658935546875,2.3088743237435816,4.765954757139086,1.5441713696040211
1783246274414671000,5.017671142578125,0.35879181084930895,3.7734780895054336,1.7348438713245093
1783246274424682200,5.02768212890625,-2.288891858422756,2.6017764890998603,2.599083596754074
1783246274434694100,5.037694091796875,-5.736477367118001,1.5799258429437875,3.5795360645949836
1783246274444706000,5.0477060546875,-9.151725371310114,0.09730652801990508,3.8639749375104904
1783246274454718200,5.05771826171875,-11.664534121668337,-1.8118804953843355,3.691547994315624
1783246274464729000,5.06772900390625,-13.310727795767784,-3.9366812772810458,3.3093545573517678
1783246274474741200,5.0777412109375,-14.596386030220984,-6.798218125113844,2.4028242348119617
1783246274484753200,5.087753173828125,-15.33958223208189,-9.744519999301433,1.4642043911807239
1783246274494764000,5.097763916015625,-14.460038116145133,-11.812860058307647,0.8062674289323389
1783246274504776200,5.107776123046875,-12.25558745895028,-14.431361472237109,-0.4433022779211402
1783246274514788000,5.1177880859375,-9.114142367368936,-16.761055296647548,-1.4097197906687855
1783246274524800000,5.127800048828125,-5.429598114335537,-16.774184827333688,-0.8066711874276399
1783246274534811100,5.13781103515625,-3.694513273862004,-16.200442690336704,0.3821030187340453
1783246274544823300,5.1478232421875,-5.464693393114209,-15.705193659818171,0.7486464300908148
1783246274554835200,5.157835205078125,-8.546214469608664,-14.92804608851671,-0.25618787054102865
1783246274564846000,5.16784619140625,-9.615236032262445,-13.934728293883799,-2.4817186155676842
1783246274574858200,5.177858154296875,-8.626998901894687,-12.55706748303771,-4.92937714062333
1783246274584870100,5.1878701171875,-6.494756571820378,-10.208324090242385,-6.247074773415923
1783246274594882300,5.19788232421875,-3.722837451070547,-6.917912426030635,-6.273557706671953
1783246274604893200,5.20789306640625,-0.8464858959436417,-3.978572792071104,-6.2877662647664545
1783246274614905000,5.217905029296875,1.5875059228092432,-1.752878271317482,-6.540737986272573
1783246274624917200,5.227917236328125,3.563308567893505,0.10504150618612766,-6.581347060036659
1783246274634928000,5.23792822265625,5.139214653801917,2.0366636487603187,-6.1925038097947835
1783246274644940000,5.24793994140625,5.8045385114312165,3.648272331690788,-5.62942744371891
1783246274654952000,5.257951904296875,4.212126111879945,4.850439212986827,-4.673199901074171
1783246274664964000,5.267964111328125,-0.02388064180314541,6.130376147183775,-3.262085148915648
1783246274674975200,5.277975341796875,-3.9602310796946285,7.1312933109045025,-1.9827645930513738
1783246274684987100,5.287987060546875,-5.150500602447987,7.5078680312037465,-0.45817755629606544
1783246274694999300,5.297999267578125,-3.8398125561565157,7.636680289077758,1.3120815464764832
1783246274705011200,5.30801123046875,-1.4810212320774794,7.831515463435649,2.571306239773333
1783246274715022000,5.31802197265625,0.9890344182252884,7.496189283847809,2.6910274286970495
1783246274725034200,5.3280341796875,3.5179695429980753,6.637105772137642,1.5685012164793908
1783246274735046100,5.338046142578125,6.207367616927623,5.953827740144729,0.09414981755465268
1783246274745057000,5.34805712890625,8.731405617308615,5.506179834234715,-1.035999948344007
1783246274755069200,5.358069091796875,11.021342600870131,5.542070062783361,-1.6860557288885116
1783246274765081000,5.3680810546875,12.474981905025244,5.87919014005065,-1.8464581800296902
1783246274775093000,5.378093017578125,12.46422553321123,5.814724974402785,-1.8326959043979643
1783246274785104100,5.388104248046875,11.610735895985364,5.907144314903021,-1.5324002677895128
1783246274795116300,5.3981162109375,10.531429086160658,6.016170506811141,-1.364050218644738
1783246274805128200,5.408128173828125,9.035074675872922,5.4984618072032925,-1.468020588468015
1783246274815139000,5.41813916015625,7.38325965476036,5.051783038586378,-1.4771071273736656
1783246274825151200,5.428151123046875,6.538704434618354,5.070685307455062,-0.9293021263182163
1783246274835163100,5.4381630859375,7.0092468939036126,5.39490206400752,-0.44667496922463173
1783246274845175300,5.44817529296875,7.725553919795155,5.489772304791212,-0.35193566134423016
1783246274855186200,5.458186279296875,8.026932821595668,5.086687178707122,-0.654601241954416
1783246274865198000,5.468197998046875,8.241542956003546,4.332580875775218,-1.3034011041536926
1783246274875210000,5.4782099609375,8.428473640847205,3.7249011056020853,-1.9610816074229775
1783246274885222100,5.48822216796875,8.69044349232316,3.3298388347148893,-2.448578124118596
1783246274895233300,5.4982333984375,9.080513654011487,3.0112466400459406,-2.684622237829864
1783246274905245200,5.5082451171875,9.508179094600678,2.883241606901586,-2.5512191450342536
1783246274915257000,5.518257080078125,9.627155018115044,3.034863077954948,-2.121496187393367
1783246274925268200,5.528268310546875,9.649846157872677,3.1758006579086184,-1.6975328161925076
1783246274935280000,5.538280029296875,9.609091538158058,3.0226436478510497,-1.2436898550346493
1783246274945292300,5.548292236328125,9.706716046085953,2.825715008345246,-0.7368512167483567
1783246274955304200,5.55830419921875,8.80663124642372,2.374069411101192,-1.0255006930962205
1783246274965315000,5.568315185546875,7.179502922800183,1.6709233339473604,-0.8570698338001966
1783246274975327200,5.5783271484375,5.281811106878519,1.1713809901490806,0.02597498373389244
1783246274985339100,5.588339111328125,4.203330226483941,0.7733084315299987,0.9534797052413224
1783246274995350000,5.59835009765625,4.626317738389969,0.4546161374874413,1.090042138850689
1783246275005362000,5.60836181640625,4.918136784684658,0.41777021564915773,1.0694050090134144
1783246275015374000,5.6183740234375,3.985392993479967,0.3639014089480042,1.348845050728321
1783246275025386000,5.628385986328125,1.6502286287039518,-0.0880950475603342,1.672856640097499
1783246275035397000,5.638397216796875,-1.8776999982506035,-0.5659606893405318,2.0630665025174615
1783246275045409300,5.6484091796875,-6.559530365025997,-0.9930006915077566,2.9113708460599184
1783246275055421200,5.658421142578125,-11.386951690518856,-1.4830297954209148,4.767055996379256
1783246275065432000,5.66843212890625,-15.462306109952925,-1.6693461477585136,7.927251965659856
1783246275075444200,5.6784443359375,-17.82680587480664,-1.8049983346551655,10.456430251538753
1783246275085456100,5.6884560546875,-18.38374183843136,-2.4363155855253336,10.914632284688949
1783246275095468000,5.698468017578125,-18.52740095230341,-4.053098163962364,9.966151995170115
1783246275105479200,5.708479248046875,-20.19949128420353,-7.455888837641477,7.641645218008756
1783246275115491000,5.718490966796875,-23.862746080970762,-10.224259325999022,6.678775753131508
1783246275125503000,5.7285029296875,-28.150796325623986,-8.958785216918587,9.169564394861458
1783246275135515100,5.73851513671875,-32.53172709854841,-6.796061239340901,12.38224166200757
1783246275145526300,5.7485263671875,-35.28350184141397,-5.94463204177618,14.04459502826929
1783246275155538200,5.7585380859375,-34.25034771095514,-4.755875846195221,14.985103608256578
1783246275165550300,5.76855029296875,-29.669510451757905,-3.5844869650006292,15.056692342174053
1783246275175561200,5.778561279296875,-22.650471062636374,-3.666018416261673,13.406755389893053
1783246275185573000,5.788572998046875,-15.090766461211443,-4.473881443822384,10.78048100387454
1783246275195585300,5.798585205078125,-8.609301917162536,-4.840388651354611,8.214331708472967
1783246275205597200,5.80859716796875,-3.2411446522176264,-4.286830347469449,6.354031173312664
1783246275215608000,5.818608154296875,1.2878262261420488,-3.1362747032061216,4.703734740069509
1783246275225620200,5.8286201171875,4.497098653280735,-1.5059218645781278,3.3847406377255913
1783246275235632000,5.838632080078125,6.732009330669045,-0.12880349004566669,2.0380618251204488
1783246275245643300,5.848643310546875,8.40181652006805,0.6855123669162392,0.7866334847882389
1783246275255655200,5.8586552734375,9.74967139071524,1.2528095655575393,0.010006430229544639
1783246275265667300,5.868667236328125,10.811031624960899,1.43115888453871,-0.39997430058717726
1783246275275679200,5.87867919921875,11.03205104188919,1.6980074479669331,-0.3295350289657712
1783246275285690000,5.888690185546875,10.442233383882044,2.2381951058864593,-0.23367007805630563
1783246275295702300,5.898702392578125,9.381042660984397,2.532586633017659,-0.3011841098807752
1783246275305714200,5.908714111328125,8.36164116154611,2.730004809606075,-0.18073928285762667
1783246275315725000,5.91872509765625,7.658231026628613,3.085904406145215,0.07032850472331047
1783246275325737200,5.9287373046875,6.832367647475004,3.2962440236270427,0.25118805295974017
1783246275335749000,5.9387490234375,6.071139529839158,3.0673738931983707,0.2150260217323899
1783246275345761000,5.948760986328125,5.943842352703213,2.681742006218433,-0.15298494142629204
1783246275355772200,5.958772216796875,5.435393648871779,2.5745330928653476,-0.5469754183635115
1783246275365784000,5.9687841796875,5.295943677127361,2.4727970579653977,-0.8618078951727598
1783246275375796000,5.9787958984375,5.847316745927929,1.8934557857871055,-1.5777971603520213
1783246275385807000,5.98880712890625,6.61183747536838,1.0824892392531036,-1.9998088129632174
1783246275395819300,5.9988193359375,7.309668348848819,-0.03381502970978618,-2.087432297489047
1783246275405831200,6.0088310546875,7.628528546804189,-0.5677687616758048,-1.6922890703201292
1783246275415843300,6.01884326171875,8.159435750681162,-0.2937546905323863,-0.44994978964421894
1783246275425854200,6.028854248046875,8.98720291762948,-0.2022168090417981,0.658477644996345
1783246275435866000,6.0388662109375,9.681868605077266,-0.6757540662288666,1.2994310314789415
1783246275445878300,6.048878173828125,9.646469374915958,-0.749471336607635,1.9399824130319059
1783246275455890400,6.058890380859375,9.196907744339107,-0.7130663634698837,2.2540786114558578
1783246275465901300,6.0689013671875,8.61179373397827,-1.165898028693348,2.2193857759982345
1783246275475913200,6.078913330078125,8.259405944952368,-1.3723542288705706,1.8551419833533465
1783246275485925400,6.08892529296875,7.683999674135446,-1.5445292431309818,1.3011191306963563
1783246275495936500,6.0989365234375,7.399226454699039,-1.5214325913123785,1.0104106759920715
1783246275505948400,6.108948486328125,7.260788290345668,-1.6252765582770108,0.6528606818974018
1783246275515960600,6.118960693359375,6.710750269541144,-1.3776336305782197,0.5756374492242932
1783246275525972500,6.128972412109375,5.423927667483687,-0.8023893453899771,0.9222826029449701
1783246275535983400,6.1389833984375,4.496228300186991,-0.9565622544918209,0.6079160631470382
1783246275545995500,6.14899560546875,4.101112545546889,-1.676513409039378,0.29738902844674886
1783246275556007400,6.15900732421875,4.174420358341932,-1.562591261783242,0.192390776880458
1783246275566018300,6.169018310546875,4.814654198378324,-1.1522480543296783,0.10416465028636157
1783246275576030500,6.179030517578125,5.297051930630206,-0.8452177757039666,0.24484708643518388
1783246275586042400,6.18904248046875,5.460240505358576,-0.4896924193046987,0.11168119992893188
1783246275596054300,6.19905419921875,5.684366656130552,-0.2051130419399589,-0.250313608212769
1783246275606065400,6.2090654296875,5.6888452628493305,-0.1420448105432093,-0.3946427303008735
1783246275616077300,6.219077392578125,4.639166114047169,-0.5446760553799569,-0.41750908049494023
1783246275626089200,6.229089111328125,1.4803636449515818,-1.073505868460983,0.1557275181327015
1783246275636100400,6.239100341796875,-1.8499959987670183,-0.5420329935252666,1.569991893428564
1783246275646112500,6.249112548828125,-3.9291824459582565,0.44042409213632344,3.2771471089690922
1783246275656124400,6.25912451171875,-5.852186397790908,0.6102329617872834,3.9645112412318584
1783246275666136600,6.269136474609375,-9.251173587533831,0.18144129364714026,3.7847844964176414
1783246275676147500,6.2791474609375,-13.28994102832675,1.9774990737386047,4.445221751049161
1783246275686159400,6.289159423828125,-18.49080637487769,5.094721432080864,5.067816474020481
1783246275696171300,6.299171142578125,-21.316631857860088,6.8587278311342,4.463606133523583
1783246275706182400,6.309182373046875,-19.89629276576042,6.327977863645553,3.012102380092442
1783246275716194300,6.3191943359375,-16.879640759539605,4.301569943700731,1.2147189774204046
1783246275726206200,6.329206298828125,-13.72221016331911,1.6928373518526554,-1.0446446617662906
1783246275736218400,6.33921826171875,-10.560986020034552,-1.0379477944761515,-2.228151850777864
1783246275746229500,6.3492294921875,-8.851345417419076,-2.969268323755264,-0.7763370586361735
1783246275756241400,6.359241455078125,-8.71205911180377,-3.93540526599586,1.3097840831890701
1783246275766253600,6.369253662109375,-9.485267590090633,-5.141183908048272,1.6189738048709927
1783246275776265500,6.379265380859375,-10.826703825867176,-6.5702043192535635,-0.15406214220374823
1783246275786276400,6.3892763671875,-10.664481465822458,-5.147745750781893,-0.7644253062419593
1783246275796288500,6.39928857421875,-8.435501347526907,-3.262067613258958,-0.37931444746144116
1783246275806300400,6.409300537109375,-5.268845242321491,-1.628368094551563,-1.9059157466486096
1783246275816311300,6.419311279296875,-2.094972629866004,-2.094052592411637,-2.9031565599441524
1783246275826323500,6.429323486328125,-1.1892916176319122,-2.461251581600308,-3.1834149323046206
1783246275836335400,6.43933544921875,-1.1125649363040924,-2.3448960697174073,-3.067041300243139
1783246275846347300,6.44934716796875,-0.7121306169897318,-2.569388715714216,-1.8803145646631716
1783246275856358400,6.4593583984375,0.48514556965529915,-1.359527772784233,-1.3802220396362244
1783246275866370600,6.46937060546875,1.8281138373047112,-0.3010536153689027,-1.3513354062393308
1783246275876382500,6.479382568359375,1.5086036510080099,-0.29580460879951714,-0.6473328583866358
1783246275886393300,6.489393310546875,0.4101636861681938,-0.7976569831058382,0.29544238789100197
1783246275896405500,6.499405517578125,1.1962959434360265,-1.1404524756610392,0.043774186731502414
1783246275906417400,6.50941748046875,1.5305074397802352,0.08285685464590788,1.0035725005351006
1783246275916429600,6.5194296875,2.2109207299917935,1.166924887523055,1.4178925757303833
1783246275926440400,6.5294404296875,2.8631372687667604,1.7173396326854824,1.4309300442188977
1783246275936452400,6.539452392578125,3.198825851926207,1.855460986174643,1.3571511067807673
1783246275946464300,6.54946435546875,3.4938621067017315,1.6508900152221322,1.3092241112187504
1783246275956475400,6.559475341796875,4.057868447104096,1.818720278276503,1.1240128705788404
1783246275966487300,6.5694873046875,4.6536996663123364,2.2955954477146268,0.9630683484502136
1783246275976499200,6.579499267578125,4.984404615840315,2.4506170826002953,0.8078976604826748
1783246275986511400,6.589511474609375,5.083533683112264,2.259863332337141,0.5221155197320506
1783246275996522500,6.5995224609375,5.176242361947894,1.8893316915944218,0.07194726503156125
1783246276006534400,6.609534423828125,5.536821640735864,1.6095216475233434,-0.42880993444919585
1783246276016546600,6.619546630859375,5.954079669079184,1.5721020174503326,-0.8715003640823066
1783246276026557400,6.629557373046875,6.093461836284399,1.8682985481768846,-1.2181157071866093
1783246276036569300,6.6395693359375,6.180918585941195,2.424916824154556,-1.3995071703426538
1783246276046581500,6.64958154296875,6.3728247211098665,3.0161992940172553,-1.3751312923684715
1783246276056593400,6.659593505859375,6.71392831505537,3.5781507477164265,-1.2214029121637344
1783246276066604300,6.669604248046875,7.174481295245886,3.873544729888439,-0.7717549915429204
1783246276076616200,6.6796162109375,6.973468893557786,3.7280268364071842,-0.21431465859264134
1783246276086628400,6.68962841796875,6.556532936775684,3.615475977504253,0.047956440852209924
1783246276096640300,6.69964013671875,5.797596144947409,3.29486864362061,0.5054847759919241
1783246276106651400,6.7096513671875,5.024799170070886,3.008575667271018,0.6610486645281315
1783246276116663600,6.71966357421875,4.772151858213544,2.963217937675118,0.47272835195697843
1783246276126675500,6.729675537109375,4.92609621925652,3.0783892082095146,0.43553076713681216
1783246276136686300,6.739686279296875,5.007086987769603,3.27155557257235,0.4021528502026573
1783246276146698500,6.749698486328125,5.213556485819816,3.492647470214963,0.4581378088075667
1783246276156710400,6.75971044921875,5.664996185228229,3.951496569097042,0.4854037822000682
1783246276166722300,6.769722412109375,5.654982740736007,4.531105552300811,0.2844964848542586
1783246276176733400,6.7797333984375,6.216832195365429,4.757288051080703,0.09104237132491544
1783246276186745300,6.789745361328125,6.62030485946238,4.6860266494214535,-0.11386015140321105
1783246276196757200,6.79975732421875,6.644765346980095,4.261328826466203,-0.11647234319560229
1783246276206768600,6.8097685546875,6.2233449382603165,3.6229116804629564,-0.0033078641726635395
1783246276216780500,6.819780517578125,5.438174804022908,3.1912258983165023,0.42197862712442874
1783246276226792400,6.82979248046875,4.432707137390971,2.8838860422849653,1.1266880080722272
1783246276236804600,6.8398046875,3.533281678420305,2.608436531510949,1.6729864039570093
1783246276246815500,6.8498154296875,2.437667292395234,2.5990321588277814,2.260935053221881
1783246276256827400,6.859827392578125,0.7793518033474683,2.2393846079319712,3.1817987292796373
1783246276266839600,6.869839599609375,-0.651879269644618,0.8127303413361311,3.65028308699131
1783246276276850400,6.879850341796875,-2.337858426165581,-1.622263932457566,2.7937290937587616
1783246276286862300,6.8898623046875,-5.089072612538933,-4.475086727958917,0.8854693412672727
1783246276296874200,6.899874267578125,-9.250236598944664,-7.271615389308333,-1.0546256652936339
1783246276306886400,6.909886474609375,-14.202279160362481,-8.96349587882757,-1.6922139592573047
1783246276316897300,6.919897216796875,-18.305773632609842,-9.422292955261469,-0.47337242201417684
1783246276326909200,6.9299091796875,-20.320440553617477,-9.041936962857841,1.1558669024139643
1783246276336921300,6.93992138671875,-20.30055511893034,-8.767826007211207,0.9662905253671109
1783246276346932500,6.949932373046875,-18.85311993011236,-9.518248653194307,-0.8017877262350172
1783246276356944400,6.9599443359375,-16.807538815402985,-10.629719949042796,-2.8187954382151363
1783246276366956500,6.96995654296875,-14.918565143465996,-10.863465576553343,-4.014225412471593
1783246276376968400,6.979968505859375,-13.484725933802126,-9.959869553899765,-4.229990854394436
1783246276386979300,6.989979248046875,-11.453849051749705,-8.375469195890426,-3.856761645130813
1783246276396991500,6.999991455078125,-8.318173191219568,-6.188310449758172,-3.035649844418466
1783246276407003400,7.01000341796875,-4.705670092046261,-4.684667636027932,-1.946275229565799
1783246276417014300,7.02001416015625,-1.4745195950984955,-3.999116982927918,-0.1773600156828761
1783246276427026400,7.0300263671875,1.2605161944121122,-2.609707282099128,2.2424285056725144
1783246276437038300,7.040038330078125,3.205533240610361,-0.5262701917260885,3.8611587110459804
1783246276447050200,7.05005029296875,4.043455890870094,0.9281605550676584,3.2701825306534764
1783246276457061000,7.06006103515625,3.2213720302551985,1.7841881863385438,1.1545707981888205
1783246276467073000,7.070072998046875,1.108898815011978,2.658512521800399,-0.6118032067786902
1783246276477085000,7.0800849609375,-1.6705635607242584,3.3753485400021073,-0.7861273618970066
1783246276487095800,7.090095703125,-4.407462806019186,4.023176488429308,-0.04194415829274803
1783246276497108000,7.10010791015625,-5.708536051747203,4.226897564554214,0.14467954296097157
1783246276507119900,7.110119873046875,-5.5281566882431505,3.2986139676287767,0.12691511901579797
1783246276517132000,7.120132080078125,-3.818042622897029,2.1678590023785826,0.4828195378605276
1783246276527143000,7.130142822265625,-0.5967717149287461,2.216386009660363,1.1482025052659213
1783246276537154800,7.14015478515625,3.465318733784556,3.0738439659953114,1.148994020969793
1783246276547166700,7.150166748046875,7.625180405420064,3.1705519436001777,0.3478770701358095
1783246276557179000,7.160178955078125,10.592836617803574,3.0416163516074417,-0.285645874085091
1783246276567190000,7.17018994140625,12.135683314675092,3.272531724128127,-0.45889385133925825
1783246276577202000,7.180201904296875,12.712138802284002,3.736023095858097,-0.515303830423206
1783246276587214000,7.190214111328125,12.265544204819202,3.571768353202939,-1.2149301359530538
1783246276597225000,7.200224853515625,10.444040725564957,3.215870802490413,-1.6559233332142234
1783246276607236900,7.21023681640625,8.344515254700184,3.3156796687200663,-1.7297236057013272
1783246276617249000,7.2202490234375,6.573557136812806,3.206461461371183,-1.5954162575423716
1783246276627261000,7.230260986328125,5.128002354913949,2.9093437241464852,-1.38657593870759
1783246276637271800,7.240271728515625,4.381289084842801,2.889474948333204,-0.9339265712484717
1783246276647284000,7.250283935546875,3.974370664206147,3.041168315578997,-0.1332829004820436
1783246276657296000,7.2602958984375,3.984019951561093,3.3041891374126076,0.7006907929562032
1783246276667307000,7.27030712890625,4.22776207242906,3.4648329960942266,1.48924004823789
1783246276677319200,7.280319091796875,4.722697214692831,3.3495769698858258,1.847935559105873
1783246276687331000,7.2903310546875,5.661623493924736,2.988343903364241,1.9481343014359473
1783246276697343000,7.300343017578125,6.746582630422711,2.6291207153603433,2.0191814758226276
1783246276707353900,7.310353759765625,7.6090370798707,2.554492467616498,1.8975896707214415
1783246276717366000,7.320365966796875,8.347267183756827,2.593600196906924,1.464375948355347
1783246276727378000,7.3303779296875,8.633636732473969,2.7690479492276907,0.6699598468668758
1783246276737388800,7.340388916015625,8.638861773645877,2.846993358695507,0.04371083917170763
1783246276747401000,7.35040087890625,7.988149794214963,3.1972198780342933,-0.11766849417760968
1783246276757412900,7.360412841796875,6.320417073002457,3.558093755854666,-0.24700674868710337
1783246276767425000,7.370425048828125,6.063766370722651,2.903200691346824,-0.31638496694825585
1783246276777436000,7.380435791015625,6.998283601340651,3.1735324207156896,-0.2626516231950372
1783246276787447800,7.39044775390625,6.67920303863287,3.8618911169737573,-0.3677648063778877
1783246276797460000,7.4004599609375,5.601145936608314,3.9430601646631955,-0.23322452624589204
1783246276807471000,7.41047119140625,5.051120775285363,3.653860360956192,-0.2301862545285374
1783246276817483000,7.42048291015625,4.59022701883316,3.516274429517984,-0.17574395878836513
1783246276827495000,7.430494873046875,3.8663130250692364,3.552504265284538,0.11366327712424099
1783246276837507000,7.440507080078125,2.892047721430659,3.7198546358674762,0.3168966427974403
1783246276847518000,7.45051806640625,1.518984175246954,2.5320874513238665,0.06560922111645341
