time,seconds_elapsed,z,y,x
1783246281006969600,0.061969482421875,0.7974532842636108,0.28359973430633545,0.3322959840297699
1783246281016981800,0.071981689453125,0.7793301939964294,0.21462920308113098,0.25621160864830017
1783246281026993000,0.081992919921875,0.7053688168525696,0.0752129778265953,0.15021072328090668
1783246281037004800,0.0920048828125,0.6382318735122681,0.1823948323726654,-0.000049606431275606155
1783246281047016700,0.1020166015625,0.5812498927116394,0.1707690954208374,-0.1500273495912552
1783246281057028900,0.11202880859375,0.46921631693840027,0.10747828334569931,-0.23295071721076965
1783246281067039700,0.122039794921875,0.3283860683441162,0.15661875903606415,-0.23304475843906403
1783246281077051600,0.1320517578125,0.15252262353897095,0.29025590419769287,-0.20539209246635437
1783246281087063800,0.142063720703125,0.15076854825019836,0.3102521598339081,-0.17808720469474792
1783246281097074700,0.15207470703125,0.25344541668891907,0.2320692092180252,-0.052451517432928085
1783246281107086600,0.162086669921875,0.4110904037952423,0.10357173532247543,0.16169530153274536
1783246281117098800,0.1720986328125,0.6238104104995728,-0.05348845198750496,0.3586224913597107
1783246281127110700,0.182110595703125,0.8472966551780701,-0.1939186155796051,0.4363996088504791
1783246281137121800,0.192121826171875,1.0096917152404785,-0.2838914096355438,0.3964311480522156
1783246281147134000,0.202134033203125,1.0848479270935059,-0.3385314643383026,0.31284213066101074
1783246281157145900,0.212145751953125,1.0860085487365723,-0.38479483127593994,0.23153156042099
1783246281167156700,0.22215673828125,1.0497827529907227,-0.4375510811805725,0.1540466845035553
1783246281177169000,0.2321689453125,0.9793135523796082,-0.44802340865135193,0.0716996118426323
1783246281187180800,0.242180908203125,0.8927081227302551,-0.3364374339580536,-0.004655155818909407
1783246281197192700,0.252192626953125,0.7664335370063782,-0.05488911643624306,-0.08783446252346039
1783246281207203600,0.26220361328125,0.5968594551086426,0.2975669205188751,-0.1591189205646515
1783246281217215700,0.2722158203125,0.4084019064903259,0.5439497828483582,-0.17664358019828796
1783246281227227600,0.2822275390625,0.21144291758537292,0.6305447816848755,-0.1385684460401535
1783246281237238500,0.292238525390625,0.014175660908222198,0.5063650608062744,-0.1031995415687561
1783246281247250700,0.302250732421875,-0.21137982606887817,0.011092652566730976,-0.11470608413219452
1783246281257262600,0.3122626953125,-0.45267578959465027,-0.6661691665649414,0.014727544039487839
1783246281267273700,0.322273681640625,-0.6127114295959473,-1.441707968711853,0.20181317627429962
1783246281277286000,0.332285888671875,-0.6936891078948975,-1.8839263916015625,0.26502251625061035
1783246281287297800,0.3422978515625,-0.8149352669715881,-2.0733206272125244,0.2167239785194397
1783246281297309700,0.352309814453125,-0.9467255473136902,-1.8420544862747192,0.09359938651323318
1783246281307320800,0.36232080078125,-1.0956586599349976,-1.3659335374832153,-0.06613872200250626
1783246281317332700,0.372332763671875,-1.1843507289886475,-0.9516122937202454,-0.24520939588546753
1783246281327344600,0.3823447265625,-1.2512887716293335,-0.5720993876457214,-0.42984989285469055
1783246281337355500,0.39235546875,-1.338236689567566,-0.09180789440870285,-0.6064375042915344
1783246281347367700,0.40236767578125,-1.4737484455108643,0.498683363199234,-0.7856305241584778
1783246281357379600,0.412379638671875,-1.6628810167312622,1.0581088066101074,-0.9681041836738586
1783246281367391700,0.422391845703125,-1.8766717910766602,1.5204086303710938,-1.0802686214447021
1783246281377403000,0.43240283203125,-2.061066150665283,1.9528977870941162,-0.9780195355415344
1783246281387414800,0.442414794921875,-2.2365126609802246,1.8096328973770142,-0.5117850303649902
1783246281397427000,0.452427001953125,-2.4026122093200684,1.129033088684082,0.2866054177284241
1783246281407437800,0.462437744140625,-2.4176785945892334,0.29726505279541016,1.2732174396514893
1783246281417449700,0.47244970703125,-2.0199267864227295,-0.26479560136795044,2.1660807132720947
1783246281427461600,0.482461669921875,-0.8098803162574768,0.24810777604579926,2.5312883853912354
1783246281437473800,0.492473876953125,0.7672902941703796,1.4002909660339355,2.228677988052368
1783246281447484700,0.502484619140625,1.581945538520813,2.261390447616577,1.878662109375
1783246281457492000,0.512491943359375,1.545335054397583,3.2091925144195557,1.5790042877197266
1783246281467503900,0.52250390625,1.0345789194107056,4.518826484680176,1.1405668258666992
1783246281477515000,0.532514892578125,0.04199541360139847,5.809895038604736,0.5406227111816406
1783246281487527000,0.54252685546875,-1.0437496900558472,6.3715128898620605,0.009150430560112
1783246281497538800,0.552538818359375,-1.5019474029541016,2.447406768798828,-1.74030601978302
1783246281507551000,0.562551025390625,-1.6967843770980835,0.5124443769454956,-1.6746938228607178
1783246281517561900,0.572561767578125,-1.620849609375,-0.9745870232582092,-1.5303723812103271
1783246281527573800,0.58257373046875,-1.4335874319076538,-1.8376518487930298,-1.1366106271743774
1783246281537586000,0.5925859375,-1.4277971982955933,-2.97168231010437,-0.4122864603996277
1783246281547597000,0.60259716796875,-1.5731290578842163,-3.367753505706787,0.20835012197494507
1783246281557609000,0.61260888671875,-1.8206841945648193,-3.130059003829956,0.6719843745231628
1783246281567621000,0.62262109375,-2.006953001022339,-2.623295545578003,1.104239821434021
1783246281577633000,0.632633056640625,-1.9862488508224487,-1.9062496423721313,1.477176308631897
1783246281587644000,0.642643798828125,-1.8829771280288696,-0.9395119547843933,1.798802375793457
1783246281597656000,0.652656005859375,-1.7220699787139893,0.020983433350920677,1.9576107263565063
1783246281607668000,0.66266796875,-1.5221035480499268,0.6407499313354492,1.926128625869751
1783246281617678800,0.672678955078125,-1.3016523122787476,0.7855215072631836,1.6718223094940186
1783246281627690800,0.682690673828125,-1.073732852935791,0.5137641429901123,1.2413424253463745
1783246281637703000,0.692702880859375,-0.8873373866081238,0.12258520722389221,0.6713753342628479
1783246281647713800,0.7027138671875,-0.7510820627212524,-0.27747058868408203,0.04512966796755791
1783246281657725700,0.7127255859375,-0.6558106541633606,-0.5889999270439148,-0.5247125029563904
1783246281667737900,0.72273779296875,-0.6105397343635559,-0.6821651458740234,-0.9579487442970276
1783246281677749800,0.732749755859375,-0.5936864614486694,-0.5381209254264832,-1.2145378589630127
1783246281687761000,0.742760986328125,-0.6848182082176208,-0.2387731671333313,-1.2733420133590698
1783246281697773000,0.75277294921875,-0.8366098403930664,0.15288275480270386,-1.1715840101242065
1783246281707785000,0.762784912109375,-0.9024374485015869,0.5323258638381958,-0.8845990896224976
1783246281717795800,0.7727958984375,-0.852456271648407,0.925622820854187,-0.49985697865486145
1783246281727808000,0.78280810546875,-0.7866151332855225,1.2420765161514282,-0.15199048817157745
1783246281737820000,0.79281982421875,-0.7165703177452087,1.2927134037017822,0.09598203748464584
1783246281747831800,0.802831787109375,-0.604225218296051,0.9658340811729431,0.2201998382806778
1783246281757842700,0.8128427734375,-0.4597935080528259,0.38243567943573,0.16187500953674316
1783246281767854800,0.822854736328125,-0.3056783974170685,-0.2588707208633423,-0.09354440122842789
1783246281777866800,0.83286669921875,-0.1884005218744278,-0.8717408180236816,-0.4518357217311859
1783246281787878000,0.8428779296875,-0.1843077689409256,-1.4196370840072632,-0.8386748433113098
1783246281797890000,0.85289013671875,-0.3117496371269226,-1.849180817604065,-1.1982916593551636
1783246281807902000,0.86290185546875,-0.45460981130599976,-2.121500015258789,-1.4436330795288086
1783246281817914000,0.8729140625,-0.5045981407165527,-2.1272079944610596,-1.4845101833343506
1783246281827925000,0.882925048828125,-0.5012162327766418,-1.8311859369277954,-1.3015080690383911
1783246281837937000,0.89293701171875,-0.4958358407020569,-1.278214693069458,-0.9289239048957825
1783246281847948800,0.90294873046875,-0.5235794186592102,-0.5415355563163757,-0.4899994432926178
1783246281857960000,0.9129599609375,-0.5424631237983704,0.26685982942581177,-0.11765967309474945
1783246281867971800,0.922971923828125,-0.5210556387901306,0.9166778326034546,0.12092078477144241
1783246281877983700,0.932983642578125,-0.49305009841918945,1.2538777589797974,0.19229109585285187
1783246281887996000,0.942995849609375,-0.4564489722251892,1.3074431419372559,0.11103624850511551
1783246281898007000,0.953007080078125,-0.4026733636856079,1.1395914554595947,-0.05163255333900452
1783246281908019000,0.96301904296875,-0.3564772605895996,0.7307093143463135,-0.2312321662902832
1783246281918031000,0.973031005859375,-0.328164666891098,0.14591211080551147,-0.42751938104629517
1783246281928042000,0.9830419921875,-0.27564263343811035,-0.4510813057422638,-0.599414587020874
1783246281938054000,0.993053955078125,-0.12787263095378876,-0.8454669713973999,-0.7022461891174316
1783246281948066000,1.003066162109375,0.07145444303750992,-0.9257047176361084,-0.664132297039032
1783246281958078000,1.013077880859375,0.19762755930423737,-0.8830574154853821,-0.39104163646698
1783246281968088800,1.0230888671875,0.194499671459198,-0.911017894744873,0.09151808172464371
1783246281978100700,1.033100830078125,0.12338501960039139,-0.9568125605583191,0.6193837523460388
1783246281988113000,1.04311279296875,0.0809851661324501,-0.8624714016914368,1.0198287963867188
1783246281998123800,1.053123779296875,0.0003395848907530308,-0.6192030906677246,1.2940584421157837
1783246282008135700,1.0631357421875,-0.2032012939453125,-0.5065732002258301,1.4036448001861572
1783246282018147800,1.07314794921875,-0.5159392356872559,-0.6208457350730896,1.3846458196640015
1783246282028159700,1.08315966796875,-0.8468598127365112,-0.9274239540100098,1.4424824714660645
1783246282038171000,1.0931708984375,-1.1068922281265259,-1.3731197118759155,1.7038190364837646
1783246282048183000,1.10318310546875,-1.3740651607513428,-1.4591045379638672,2.028337240219116
1783246282058195000,1.11319482421875,-1.5044031143188477,-0.7498026490211487,2.092440605163574
1783246282068205800,1.123205810546875,-1.6224684715270996,1.0924822092056274,1.6576769351959229
1783246282078218000,1.133218017578125,-1.9667433500289917,3.7447614669799805,0.6834871768951416
1783246282088230000,1.14322998046875,-2.2866952419281006,5.527339458465576,-0.06083378568291664
1783246282098240800,1.15324072265625,-2.233617067337036,5.444875240325928,0.007576965261250734
1783246282108253000,1.1632529296875,-1.7133548259735107,3.8638408184051514,0.6721897721290588
1783246282118264800,1.173264892578125,-1.0374271869659424,1.575538158416748,1.4198939800262451
1783246282128276700,1.18327685546875,-0.6912133097648621,-0.20373733341693878,1.7765636444091797
1783246282138287900,1.193287841796875,-0.6633467674255371,-1.2977628707885742,1.596184253692627
1783246282148300000,1.203300048828125,-0.6381208300590515,-1.8708866834640503,1.142219066619873
1783246282158312000,1.21331201171875,-0.5173256993293762,-1.9705504179000854,0.6620529890060425
1783246282168322800,1.22332275390625,-0.5979743003845215,-1.6462457180023193,0.2673589587211609
1783246282178335000,1.2333349609375,-0.9244722127914429,-0.8622714877128601,-0.03970484063029289
1783246282188347000,1.243346923828125,-1.2888221740722656,0.37992286682128906,-0.3446127772331238
1783246282198359000,1.253359130859375,-1.4840565919876099,1.9208248853683472,-0.7418608665466309
1783246282208370000,1.263369873046875,-1.612068772315979,3.2455391883850098,-1.2913119792938232
1783246282218381800,1.2733818359375,-2.046004056930542,4.069997310638428,-2.0056097507476807
1783246282228393700,1.283393798828125,-2.5572454929351807,4.394546031951904,-2.731011390686035
1783246282238404900,1.29340478515625,-2.8504581451416016,4.374850749969482,-3.12357234954834
1783246282248417000,1.3034169921875,-2.7751293182373047,4.1500349044799805,-2.8472814559936523
1783246282258429000,1.313428955078125,-2.4722371101379395,3.5924365520477295,-2.0287036895751953
1783246282268441000,1.323441162109375,-2.1076464653015137,3.058335781097412,-0.9651753902435303
1783246282278452000,1.333451904296875,-1.7223432064056396,2.5852229595184326,0.038737013936042786
1783246282288464000,1.3434638671875,-1.3495301008224487,1.9026542901992798,0.7622506022453308
1783246282298476000,1.35347607421875,-1.0115458965301514,0.9942617416381836,1.1333050727844238
1783246282308487000,1.36348681640625,-0.7416135668754578,0.07799850404262543,1.1208997964859009
1783246282318498800,1.373498779296875,-0.5058441758155823,-0.7807460427284241,0.8156140446662903
1783246282328511000,1.383510986328125,-0.34056732058525085,-1.4560896158218384,0.3241428732872009
1783246282338523000,1.39352294921875,-0.26156866550445557,-1.9175703525543213,-0.3205186724662781
1783246282348533800,1.40353369140625,-0.19159862399101257,-2.177985668182373,-1.141570806503296
1783246282358545700,1.413545654296875,-0.10927019268274307,-2.4239420890808105,-2.0307037830352783
1783246282368557800,1.423557861328125,-0.06970284879207611,-2.579317331314087,-2.9078216552734375
1783246282378569000,1.43356884765625,-0.030044913291931152,-2.3909554481506348,-3.529360771179199
1783246282388580900,1.443580810546875,0.05667011812329292,-1.656973958015442,-3.7053492069244385
1783246282398593000,1.453593017578125,0.14440609514713287,-0.5752509236335754,-3.3096513748168945
1783246282408604000,1.46360400390625,0.19221937656402588,0.2763821482658386,-2.45491099357605
1783246282418615800,1.47361572265625,0.22142067551612854,1.0536696910858154,-1.5318799018859863
1783246282428628000,1.4836279296875,0.2691684663295746,1.7975285053253174,-0.6307313442230225
1783246282438639900,1.493639892578125,0.23633436858654022,2.3541486263275146,0.19606941938400269
1783246282448650800,1.503650634765625,0.047678641974925995,2.6688156127929688,0.7990132570266724
1783246282458663700,1.51366357421875,-0.21660521626472473,2.7672119140625,1.1248185634613037
1783246282468675600,1.523675537109375,-0.48294317722320557,2.6740617752075195,1.2212659120559692
1783246282478686500,1.5336865234375,-0.7129353880882263,2.458970785140991,1.1772880554199219
1783246282488698600,1.54369873046875,-0.8887970447540283,2.158297300338745,1.0535838603973389
1783246282498710500,1.55371044921875,-0.9658942222595215,1.7515926361083984,0.9050781726837158
1783246282508722400,1.563722412109375,-0.9417951107025146,1.309348225593567,0.7750957012176514
1783246282518733600,1.573733642578125,-0.8381083607673645,0.9205637574195862,0.6771657466888428
1783246282528745700,1.583745849609375,-0.6856575012207031,0.5878673791885376,0.5806261897087097
1783246282538757600,1.593757568359375,-0.47652295231819153,0.2532787621021271,0.44990384578704834
1783246282548768500,1.6037685546875,-0.24384939670562744,-0.09248093515634537,0.27906233072280884
1783246282558780700,1.61378076171875,-0.04242919757962227,-0.5007855892181396,0.08782606571912766
1783246282568792600,1.62379248046875,0.16207721829414368,-0.8969495892524719,-0.03213891759514809
1783246282578804500,1.633804443359375,0.38393399119377136,-1.2766350507736206,0.06336843222379684
1783246282588815600,1.643815673828125,0.5874726176261902,-1.7269706726074219,0.41828179359436035
1783246282598827500,1.65382763671875,0.8572670817375183,-2.2760496139526367,0.8595670461654663
1783246282608839400,1.66383935546875,1.0608222484588623,-2.7080554962158203,1.076668620109558
1783246282618850800,1.673850830078125,0.8661730885505676,-2.7216365337371826,0.8520365953445435
1783246282628862700,1.68386279296875,0.16927874088287354,-1.5744590759277344,0.45057493448257446
1783246282638874600,1.69387451171875,-1.0004268884658813,1.2578500509262085,0.5909059047698975
1783246282648886800,1.70388671875,-2.308433771133423,4.143599987030029,1.9169104099273682
1783246282658897700,1.713897705078125,-3.0229547023773193,4.715163707733154,4.114027976989746
1783246282668909600,1.72390966796875,-2.764920949935913,2.893709897994995,6.174379825592041
1783246282678921700,1.733921630859375,-1.6910679340362549,-0.021715231239795685,7.413773536682129
1783246282688932600,1.7439326171875,-0.5167799592018127,-2.719979763031006,7.445575714111328
1783246282698944500,1.753944580078125,0.21008512377738953,-4.314601421356201,6.433974742889404
1783246282708956700,1.763956787109375,0.49206146597862244,-4.879892826080322,4.94233512878418
1783246282718967600,1.773967529296875,0.5120905637741089,-4.74705696105957,3.4658381938934326
1783246282728979700,1.783979736328125,0.39163875579833984,-4.16010046005249,2.2465834617614746
1783246282738991600,1.79399169921875,0.11134185642004013,-3.285451650619507,1.2773053646087646
1783246282749003800,1.804003662109375,-0.2409379780292511,-2.5163912773132324,0.550897479057312
1783246282759014700,1.8140146484375,-0.7292605042457581,-1.9381564855575562,0.019160110503435135
1783246282769026600,1.824026611328125,-1.260938048362732,-1.7107281684875488,-0.28639188408851624
1783246282779038700,1.834038818359375,-1.6459256410598755,-1.73426353931427,-0.3473902642726898
1783246282789049600,1.844049560546875,-1.8160756826400757,-1.906546711921692,-0.27235206961631775
1783246282799061500,1.8540615234375,-1.7686735391616821,-2.2087910175323486,-0.1774388551712036
1783246282809073700,1.86407373046875,-1.5453928709030151,-2.4596753120422363,-0.11522463709115982
1783246282819085600,1.87408544921875,-1.1435396671295166,-2.4805667400360107,-0.08909743279218674
1783246282829096400,1.884096435546875,-0.5422415137290955,-2.025256633758545,-0.01616598293185234
1783246282839108600,1.894108642578125,0.2850111722946167,-1.087898850440979,0.14917024970054626
1783246282849120500,1.90412060546875,1.1106996536254883,-0.10959924757480621,0.23167334496974945
1783246282859131600,1.914131591796875,1.7243303060531616,0.4599315822124481,-0.06613250821828842
1783246282869143600,1.9241435546875,1.9297784566879272,0.27274495363235474,-0.8186843991279602
1783246282879155700,1.93415576171875,1.6115672588348389,-0.2824469208717346,-1.7069035768508911
1783246282889166600,1.94416650390625,0.9532518982887268,-0.7214435935020447,-2.407043933868408
1783246282899178500,1.954178466796875,0.1623855084180832,-0.893949568271637,-2.7937471866607666
1783246282909190700,1.964190673828125,-0.5585789084434509,-0.883586585521698,-2.870286703109741
1783246282919202600,1.97420263671875,-1.106569528579712,-0.5915113091468811,-2.627638578414917
1783246282929213400,1.98421337890625,-1.3309742212295532,-0.01180143654346466,-2.1390881538391113
1783246282939225600,1.9942255859375,-1.2441458702087402,0.7074392437934875,-1.5470110177993774
1783246282949237500,2.004237548828125,-0.9673351645469666,1.5432246923446655,-0.8911284804344177
1783246282959248600,2.01424853515625,-0.659841775894165,2.2240002155303955,-0.2884511649608612
1783246282969260800,2.0242607421875,-0.4049168825149536,2.4810171127319336,0.16055148839950562
1783246282979272700,2.034272705078125,-0.31148627400398254,2.444199800491333,0.46580833196640015
1783246282989284600,2.04428466796875,-0.3579336404800415,2.262376308441162,0.6510388255119324
1783246282999295700,2.054295654296875,-0.4897044599056244,1.9593182802200317,0.7089892625808716
1783246283009307600,2.0643076171875,-0.6731489300727844,1.5939639806747437,0.6358603835105896
1783246283019319600,2.074319580078125,-0.904504120349884,1.2631438970565796,0.46537646651268005
1783246283029330400,2.084330322265625,-1.1458675861358643,1.0310391187667847,0.19117501378059387
1783246283039342600,2.094342529296875,-1.3460265398025513,0.9191123843193054,-0.130510613322258
1783246283049354500,2.1043544921875,-1.4326434135437012,0.919447124004364,-0.38347163796424866
1783246283059366700,2.11436669921875,-1.3655327558517456,1.0766156911849976,-0.4685108959674835
1783246283069377500,2.12437744140625,-1.1567649841308594,1.3511574268341064,-0.3366565406322479
1783246283079389700,2.1343896484375,-0.8264017701148987,1.6586865186691284,-0.019336096942424774
1783246283089401600,2.144401611328125,-0.4352496564388275,1.9111456871032715,0.36920401453971863
1783246283099412700,2.154412841796875,-0.02078085020184517,2.0369949340820312,0.7413384318351746
1783246283109424600,2.164424560546875,0.42265069484710693,2.0265541076660156,1.031073808670044
1783246283119436500,2.1744365234375,0.852790355682373,1.8227205276489258,1.1650491952896118
1783246283129448700,2.18444873046875,1.2147589921951294,1.481411099433899,1.098201036453247
1783246283139459600,2.19445947265625,1.5261502265930176,1.069411039352417,0.8554405570030212
1783246283149471500,2.204471435546875,1.7999953031539917,0.5070310831069946,0.473310649394989
1783246283159483600,2.214483642578125,2.0102756023406982,-0.24487273395061493,-0.06704233586788177
1783246283169494500,2.22449462890625,2.0997345447540283,-1.2815660238265991,-0.8071308135986328
1783246283179506400,2.23450634765625,2.014874219894409,-2.489170789718628,-1.8252836465835571
1783246283189518600,2.2445185546875,1.7676923274993896,-3.0873188972473145,-3.1402313709259033
1783246283199529700,2.25452978515625,1.5870330333709717,-2.310387372970581,-4.407832145690918
1783246283209541600,2.264541748046875,1.373336911201477,-0.5128768086433411,-4.816102027893066
1783246283219553800,2.2745537109375,1.1100025177001953,0.773002564907074,-3.7071022987365723
1783246283229565700,2.284565673828125,1.0032635927200317,0.6718993186950684,-1.468202829360962
1783246283239576600,2.29457666015625,0.9080763459205627,-0.4600650668144226,1.042366623878479
1783246283249588500,2.30458837890625,0.8064470887184143,-1.884013295173645,2.8688366413116455
1783246283259600600,2.3146005859375,0.8660504817962646,-3.134791374206543,3.4607880115509033
1783246283269611500,2.324611572265625,0.9603506326675415,-4.25607967376709,2.9845452308654785
1783246283279623400,2.33462353515625,0.9059606194496155,-4.881216526031494,1.980074167251587
1783246283289635600,2.344635498046875,0.6103891730308533,-4.784296035766602,0.969318151473999
1783246283299647500,2.3546474609375,0.1044812798500061,-4.230783462524414,0.34410813450813293
1783246283309658600,2.36465869140625,-0.5223257541656494,-3.4780242443084717,0.21354348957538605
1783246283319670800,2.3746708984375,-1.1136574745178223,-2.7119686603546143,0.43948474526405334
1783246283329682700,2.3846826171875,-1.5516186952590942,-2.1621458530426025,0.7859888076782227
1783246283339693600,2.394693603515625,-1.8599133491516113,-1.7908926010131836,1.032515287399292
1783246283349705700,2.404705810546875,-2.1666831970214844,-1.4499448537826538,1.0581386089324951
1783246283359717600,2.414717529296875,-2.5095975399017334,-1.123049259185791,0.9329679012298584
1783246283369728500,2.424728515625,-2.7366561889648438,-0.7776704430580139,0.7946146726608276
1783246283379740700,2.43474072265625,-2.731559991836548,-0.3262057602405548,0.7249674201011658
1783246283389752600,2.444752685546875,-2.5327939987182617,0.22937308251857758,0.721844494342804
1783246283399764500,2.454764404296875,-2.239832639694214,0.8071416616439819,0.7383118867874146
1783246283409775600,2.464775634765625,-1.938525915145874,1.2817155122756958,0.7196938991546631
1783246283419787500,2.47478759765625,-1.6538978815078735,1.5607374906539917,0.6364234685897827
1783246283429799700,2.484799560546875,-1.406516671180725,1.6043957471847534,0.49804070591926575
1783246283439810600,2.494810546875,-1.2529691457748413,1.452688455581665,0.3296565115451813
1783246283449822700,2.50482275390625,-1.1867542266845703,1.1857283115386963,0.1650376319885254
1783246283459834400,2.51483447265625,-1.1554501056671143,0.8170749545097351,0.05489328131079674
1783246283469846300,2.52484619140625,-1.1239123344421387,0.3459189534187317,0.05403980612754822
1783246283479857200,2.534857177734375,-1.1136620044708252,-0.1797804832458496,0.14709891378879547
1783246283489869000,2.544869140625,-1.1212999820709229,-0.6444498300552368,0.3166358172893524
1783246283499881200,2.554881103515625,-1.1407825946807861,-0.9684734344482422,0.5062009692192078
1783246283509892400,2.564892333984375,-1.155624270439148,-1.1361678838729858,0.657672643661499
1783246283519904300,2.574904296875,-1.1414672136306763,-1.0981587171554565,0.774612545967102
1783246283529916200,2.584916259765625,-1.1121175289154053,-0.854570209980011,0.8768181204795837
1783246283539928300,2.59492822265625,-1.0560028553009033,-0.5014867186546326,0.9568937420845032
1783246283549939200,2.604939208984375,-0.9937006831169128,-0.13099312782287598,0.979953944683075
1783246283559951400,2.614951416015625,-0.9630737900733948,0.1662670373916626,0.9270073771476746
1783246283569963300,2.62496337890625,-0.9972795844078064,0.3334551155567169,0.8356599807739258
1783246283579974100,2.63497412109375,-1.134053111076355,0.4019809067249298,0.7418373227119446
1783246283589986300,2.644986328125,-1.4008288383483887,0.3990243673324585,0.679869532585144
1783246283599998200,2.654998291015625,-1.7337391376495361,0.35453519225120544,0.7014696598052979
1783246283610010000,2.665010009765625,-2.072049379348755,0.39444461464881897,0.8202488422393799
1783246283620021200,2.675021240234375,-2.3136932849884033,0.5164269804954529,1.0154330730438232
1783246283630033200,2.685033203125,-2.4510438442230225,0.6600133180618286,1.2301809787750244
1783246283640045000,2.695045166015625,-2.4943127632141113,0.7893334627151489,1.4080651998519897
1783246283650056200,2.70505615234375,-2.461413621902466,0.874239981174469,1.5301915407180786
1783246283660068400,2.715068359375,-2.398693799972534,0.8668854236602783,1.59788978099823
1783246283670080300,2.725080322265625,-2.367621898651123,0.7718027234077454,1.613723635673523
1783246283680091100,2.735091064453125,-2.3827600479125977,0.5936950445175171,1.6070393323898315
1783246283690103300,2.745103271484375,-2.4106552600860596,0.3954750597476959,1.636123776435852
1783246283700115200,2.755115234375,-2.40712571144104,0.2642478048801422,1.7199558019638062
1783246283710127000,2.765127197265625,-2.34267258644104,0.20393846929073334,1.8584858179092407
1783246283720138200,2.77513818359375,-2.2055561542510986,0.1747739315032959,2.0252456665039062
1783246283730150100,2.785150146484375,-2.004513740539551,0.05739191919565201,2.1928277015686035
1783246283740162000,2.795162109375,-1.7029237747192383,-0.12562024593353271,2.349292278289795
1783246283750173400,2.80517333984375,-1.3102364540100098,-0.3038631081581116,2.4561452865600586
1783246283760185300,2.815185302734375,-0.9144323468208313,-0.5932611227035522,2.478050708770752
1783246283770197200,2.825197265625,-0.6290838718414307,-1.1084588766098022,2.389892578125
1783246283780209400,2.83520947265625,-0.5181525349617004,-1.9611928462982178,2.198856830596924
1783246283790220300,2.84522021484375,-0.645649790763855,-3.0688316822052,1.844725251197815
1783246283800232200,2.855232177734375,-1.0626461505889893,-4.0391998291015625,1.2147579193115234
1783246283810244400,2.865244384765625,-1.4910860061645508,-4.528919696807861,0.4063725769519806
1783246283820255200,2.875255126953125,-1.8348731994628906,-3.9841108322143555,-0.19779106974601746
1783246283830267100,2.88526708984375,-2.055145502090454,-2.218729019165039,-0.096279576420784
1783246283840279300,2.895279296875,-2.207091808319092,-0.27116450667381287,1.0794708728790283
1783246283850291200,2.905291259765625,-2.3987557888031006,0.5889914631843567,2.9371674060821533
1783246283860302300,2.91530224609375,-2.8564326763153076,0.42606648802757263,4.725573539733887
1783246283870314200,2.925314208984375,-3.187965154647827,-1.3450242280960083,5.734949111938477
1783246283880326100,2.935326171875,-2.919813394546509,-3.8544416427612305,5.493141174316406
1783246283890337300,2.945337158203125,-2.3424313068389893,-5.797890663146973,4.407093524932861
1783246283900349200,2.95534912109375,-1.884267807006836,-6.718715667724609,3.1340510845184326
1783246283910361300,2.965361328125,-1.6608693599700928,-6.612122535705566,2.0287365913391113
1783246283920372200,2.975372314453125,-1.7694101333618164,-5.666388988494873,1.4788774251937866
1783246283930384100,2.985384033203125,-2.19730806350708,-4.15570068359375,1.5247882604599
1783246283940396300,2.995396240234375,-2.822462797164917,-2.349501371383667,1.9807283878326416
1783246283950408200,3.005408203125,-3.6585421562194824,-0.5745589137077332,2.593949556350708
1783246283960419000,3.015419189453125,-4.705975532531738,0.9448527693748474,3.142972469329834
1783246283970431200,3.02543115234375,-5.678372859954834,1.8948216438293457,3.5689196586608887
1783246283980443100,3.035443115234375,-6.276910781860352,2.1432225704193115,3.866567850112915
1783246283990454300,3.045454345703125,-6.355976104736328,1.692966103553772,3.9448792934417725
1783246284000466400,3.055466552734375,-5.887922286987305,0.7889549732208252,3.7110836505889893
1783246284010478300,3.065478271484375,-4.994020462036133,-0.16606393456459045,3.217491865158081
1783246284020490200,3.075490234375,-3.9602463245391846,-0.887894332408905,2.5995800495147705
1783246284030501000,3.085501220703125,-2.9906911849975586,-1.2372136116027832,1.9232447147369385
1783246284040513300,3.09551318359375,-2.1454312801361084,-1.4884299039840698,1.3052186965942383
1783246284050525200,3.105525146484375,-1.5434458255767822,-1.8993136882781982,0.8387735486030579
1783246284060536000,3.1155361328125,-1.3293492794036865,-2.3288495540618896,0.5158208012580872
1783246284070548200,3.12554833984375,-1.4704761505126953,-2.5438625812530518,0.3095303177833557
1783246284080560000,3.13556005859375,-1.8161307573318481,-2.50809645652771,0.17232266068458557
1783246284090572000,3.145572021484375,-2.23283052444458,-2.3300838470458984,0.04863389581441879
1783246284100583400,3.15558349609375,-2.6590795516967773,-2.0799150466918945,-0.10610374808311462
1783246284110595300,3.16559521484375,-3.0706870555877686,-1.8199148178100586,-0.31209638714790344
1783246284120607200,3.175607177734375,-3.441678285598755,-1.5682148933410645,-0.5537050366401672
1783246284130618400,3.185618408203125,-3.716050148010254,-1.382824420928955,-0.7996270656585693
1783246284140630300,3.19563037109375,-3.8685648441314697,-1.2475299835205078,-0.9811097383499146
1783246284150642200,3.20564208984375,-3.8677279949188232,-1.0773162841796875,-1.0198627710342407
1783246284160654300,3.215654296875,-3.7294533252716064,-0.7702581286430359,-0.8072524666786194
1783246284170665200,3.225665283203125,-3.5248894691467285,-0.400584876537323,-0.31197717785835266
1783246284180677000,3.235677001953125,-3.321718215942383,-0.13118696212768555,0.34925028681755066
1783246284190689300,3.245689208984375,-3.158421754837036,-0.001814073882997036,0.9507066011428833
1783246284200700200,3.2557001953125,-3.1057581901550293,-0.012466185726225376,1.356361985206604
1783246284210712300,3.26571240234375,-3.2097041606903076,-0.11106151342391968,1.509108543395996
1783246284220724200,3.27572412109375,-3.4808099269866943,-0.23462845385074615,1.4330986738204956
1783246284230735400,3.2857353515625,-3.843513250350952,-0.31626200675964355,1.2649964094161987
1783246284240747300,3.295747314453125,-4.187097549438477,-0.22240744531154633,1.1928889751434326
1783246284250759200,3.30575927734375,-4.4301910400390625,0.09757817536592484,1.3810322284698486
1783246284260771300,3.315771240234375,-4.52049446105957,0.4711757302284241,1.8026007413864136
1783246284270782200,3.3257822265625,-4.4183831214904785,0.7113676071166992,2.2925474643707275
1783246284280794000,3.335794189453125,-4.2157416343688965,0.697872519493103,2.687180995941162
1783246284290806300,3.34580615234375,-4.061789512634277,0.4214095175266266,2.8784379959106445
1783246284300817200,3.355817138671875,-4.002336025238037,-0.01780860126018524,2.8942534923553467
1783246284310829000,3.3658291015625,-3.9899466037750244,-0.5037506818771362,2.78257417678833
1783246284320841200,3.37584130859375,-4.0215020179748535,-0.8407691717147827,2.605126142501831
1783246284330853000,3.38585302734375,-4.087567329406738,-0.8980786800384521,2.4747917652130127
1783246284340864300,3.3958642578125,-4.213613033294678,-0.74769127368927,2.5048468112945557
1783246284350876400,3.40587646484375,-4.458267688751221,-0.5110931396484375,2.7690982818603516
1783246284360888300,3.415888427734375,-4.85352087020874,-0.48379069566726685,3.2653520107269287
1783246284370899200,3.425899169921875,-5.334721565246582,-0.7097173929214478,3.8335227966308594
1783246284380911000,3.4359111328125,-5.908295154571533,-0.6410552263259888,4.208104133605957
1783246284390923300,3.44592333984375,-6.529902935028076,-0.1467699110507965,4.278927803039551
1783246284400935200,3.45593505859375,-7.098660469055176,0.5639851689338684,4.138439655303955
1783246284410946000,3.465946044921875,-7.543003559112549,1.7873371839523315,3.89939284324646
1783246284420958200,3.475958251953125,-7.81290864944458,3.425708532333374,3.9186902046203613
1783246284430970000,3.48597021484375,-7.540661334991455,4.100467681884766,4.5139384269714355
1783246284440981200,3.495981201171875,-6.258800029754639,2.660820722579956,5.424755096435547
1783246284450993400,3.505993408203125,-4.368574619293213,-0.26492077112197876,5.976031303405762
1783246284461005000,3.516005126953125,-2.603276491165161,-3.213008165359497,5.742081165313721
1783246284471016000,3.526015869140625,-1.4042954444885254,-5.203568458557129,4.879764080047607
1783246284481027800,3.53602783203125,-0.8436635136604309,-6.030881404876709,3.9671998023986816
1783246284491039700,3.546039794921875,-0.8243281841278076,-5.788850784301758,3.4619967937469482
1783246284501052000,3.556052001953125,-1.2572344541549683,-4.70757532119751,3.504595994949341
1783246284511062800,3.566062744140625,-1.9244427680969238,-3.325472831726074,3.987118721008301
1783246284521074700,3.57607470703125,-2.592352867126465,-2.0195236206054688,4.6317667961120605
1783246284531086800,3.5860869140625,-3.1216139793395996,-0.9881940484046936,5.209153175354004
1783246284541098000,3.596097900390625,-3.4512336254119873,-0.3845768868923187,5.573174476623535
1783246284551110000,3.60610986328125,-3.585392475128174,-0.1650737076997757,5.657107830047607
1783246284561122000,3.6161220703125,-3.5501132011413574,-0.20612022280693054,5.467471122741699
1783246284571134000,3.626134033203125,-3.363389730453491,-0.39059486985206604,5.030364513397217
1783246284581144800,3.636144775390625,-3.092160224914551,-0.6223148703575134,4.387244701385498
1783246284591157000,3.646156982421875,-2.7573130130767822,-0.7662903070449829,3.569401741027832
1783246284601169000,3.6561689453125,-2.3531246185302734,-0.8347910642623901,2.669273853302002
1783246284611179800,3.6661796875,-1.987409234046936,-0.8165123462677002,1.8320162296295166
1783246284621191700,3.676191650390625,-1.7442413568496704,-0.7355508804321289,1.1940593719482422
1783246284631203800,3.686203857421875,-1.6001248359680176,-0.7030923366546631,0.8299552798271179
1783246284641215700,3.6962158203125,-1.5652943849563599,-0.7181378602981567,0.7565643787384033
1783246284651227000,3.706226806640625,-1.6663830280303955,-0.7961704134941101,1.0504878759384155
1783246284661238800,3.71623876953125,-1.9131848812103271,-1.1381810903549194,1.519917368888855
1783246284671251000,3.7262509765625,-2.2179532051086426,-1.3149398565292358,1.792921543121338
1783246284681261800,3.73626171875,-2.470508575439453,-1.4080168008804321,2.0460329055786133
1783246284691274000,3.74627392578125,-2.7741260528564453,-1.4584667682647705,2.243252754211426
1783246284701286000,3.756285888671875,-3.1063785552978516,-1.4547243118286133,2.292323112487793
1783246284711296800,3.766296875,-3.39482045173645,-1.4702906608581543,2.241717576980591
1783246284721309000,3.776308837890625,-3.6114821434020996,-1.4979918003082275,2.0833511352539062
1783246284731320800,3.78632080078125,-3.749171495437622,-1.5619219541549683,1.8309890031814575
1783246284741332700,3.796332763671875,-3.797969341278076,-1.6634600162506104,1.5272033214569092
1783246284751343900,3.80634375,-3.747051954269409,-1.7569234371185303,1.220038890838623
1783246284761355800,3.816355712890625,-3.6339030265808105,-1.7526732683181763,0.9678187370300293
1783246284771367700,3.82636767578125,-3.4831736087799072,-1.6008561849594116,0.8153853416442871
1783246284781378800,3.83637890625,-3.3483989238739014,-1.3045214414596558,0.7647333741188049
1783246284791391000,3.846390869140625,-3.2836687564849854,-0.9285361170768738,0.7765609622001648
1783246284801403000,3.85640283203125,-3.2685885429382324,-0.5475150346755981,0.8444643616676331
1783246284811415000,3.8664150390625,-3.236727714538574,-0.19261372089385986,1.0051548480987549
1783246284821426000,3.876426025390625,-3.1838111877441406,0.12650728225708008,1.2734142541885376
1783246284831437800,3.886437744140625,-3.1436960697174072,0.39134714007377625,1.6203066110610962
1783246284841449700,3.89644970703125,-3.147580146789551,0.5533144474029541,1.972607135772705
1783246284851460900,3.9064609375,-3.1890101432800293,0.6525002717971802,2.27738881111145
1783246284861472800,3.91647265625,-3.226670980453491,0.7977008819580078,2.5560624599456787
1783246284871484700,3.926484619140625,-3.19364595413208,0.9865469336509705,2.8713769912719727
1783246284881496800,3.936496826171875,-3.1454780101776123,1.1963298320770264,3.171783685684204
1783246284891508000,3.946508056640625,-3.1210622787475586,1.2588398456573486,3.3118042945861816
1783246284901520000,3.956519775390625,-3.1970081329345703,1.0504271984100342,3.1255621910095215
1783246284911532000,3.966531982421875,-3.297168254852295,0.25011512637138367,2.548842430114746
1783246284921543000,3.97654296875,-3.3417677879333496,-0.9135581851005554,1.8013310432434082
1783246284931554800,3.986554931640625,-3.697972297668457,-1.2958012819290161,1.441726803779602
1783246284941567000,3.99656689453125,-4.375779628753662,-0.5887130498886108,2.236987829208374
1783246284951577900,4.006577880859375,-4.9329118728637695,0.5050488710403442,4.196224689483643
1783246284961589800,4.01658984375,-4.896539211273193,0.6678252816200256,6.739680290222168
1783246284971602000,4.026601806640625,-4.08868932723999,0.017508644610643387,8.724970817565918
1783246284981613800,4.03661376953125,-2.9204680919647217,-1.020614504814148,9.287137031555176
1783246284991625000,4.046625,-1.5074915885925293,-2.4509057998657227,8.290229797363281
1783246285001636900,4.056636962890625,-0.11151230335235596,-3.8149123191833496,6.299149513244629
1783246285011648800,4.066648681640625,0.991511881351471,-4.5882697105407715,4.210496425628662
1783246285021660000,4.076659912109375,1.7291661500930786,-4.496649742126465,2.5701520442962646
1783246285031671800,4.086671875,2.001049518585205,-3.777751922607422,1.6995447874069214
1783246285041684000,4.09668408203125,1.7237924337387085,-2.9165337085723877,1.553959846496582
1783246285051695900,4.10669580078125,1.066056251525879,-2.128716468811035,1.8950750827789307
1783246285061706800,4.116706787109375,0.20225536823272705,-1.4610047340393066,2.41420841217041
1783246285071719000,4.126718994140625,-0.7063676714897156,-0.9541940093040466,2.893995761871338
1783246285081730800,4.136730712890625,-1.4898502826690674,-0.6164919137954712,3.2505664825439453
1783246285091741700,4.14674169921875,-2.0217978954315186,-0.47887933254241943,3.4150054454803467
1783246285101753900,4.15675390625,-2.2626636028289795,-0.5514843463897705,3.370683193206787
1783246285111765800,4.166765869140625,-2.260979175567627,-0.7679077386856079,3.1075804233551025
1783246285121777000,4.17677685546875,-2.077895402908325,-0.9795243740081787,2.6954915523529053
1783246285131789000,4.1867890625,-1.7953709363937378,-1.0740628242492676,2.1747219562530518
1783246285141801000,4.196801025390625,-1.4519128799438477,-1.119850754737854,1.603713870048523
1783246285151812900,4.206812744140625,-1.0437257289886475,-1.1826136112213135,1.0261986255645752
1783246285161823700,4.21682373046875,-0.6448265910148621,-1.295403242111206,0.4766007661819458
1783246285171836000,4.2268359375,-0.3195979595184326,-1.4966708421707153,-0.008520800620317459
1783246285181847800,4.236847900390625,-0.0998413935303688,-1.7336434125900269,-0.4296046495437622
1783246285191858700,4.246858642578125,0.037072617560625076,-2.0079798698425293,-0.7803581953048706
1783246285201870800,4.256870849609375,0.07780806720256805,-2.294532537460327,-1.062043309211731
1783246285211882800,4.2668828125,0.022529710084199905,-2.5463905334472656,-1.274315357208252
1783246285221894700,4.276894775390625,-0.08018175512552261,-2.725569486618042,-1.424863576889038
1783246285231906000,4.286906005859375,-0.19381655752658844,-2.7764699459075928,-1.5501164197921753
1783246285241918000,4.29691796875,-0.3142271339893341,-2.632202386856079,-1.6635606288909912
1783246285251929900,4.306929931640625,-0.4128008782863617,-2.3126416206359863,-1.738974690437317
1783246285261941000,4.31694091796875,-0.4686225950717926,-1.8343467712402344,-1.7227070331573486
1783246285271953000,4.326952880859375,-0.5237277746200562,-1.1888749599456787,-1.6043177843093872
1783246285281964800,4.33696484375,-0.6049872040748596,-0.39185500144958496,-1.3430033922195435
1783246285291977000,4.34697705078125,-0.759489119052887,0.4903499186038971,-0.9468086361885071
1783246285301987800,4.35698779296875,-1.0200355052947998,1.296913504600525,-0.46135562658309937
1783246285311999700,4.366999755859375,-1.387291669845581,1.8396083116531372,0.027117367833852768
1783246285322012000,4.377011962890625,-1.817589521408081,2.051070213317871,0.43430832028388977
1783246285332022800,4.387022705078125,-2.2722766399383545,1.8973743915557861,0.7386124134063721
1783246285342035000,4.397034912109375,-2.7064883708953857,1.4085288047790527,0.9402653574943542
1783246285352046800,4.407046875,-3.108607292175293,0.7080196142196655,1.0530829429626465
1783246285362058000,4.41705810546875,-3.4180908203125,-0.0010954963508993387,1.1006752252578735
1783246285372070000,4.42706982421875,-3.5729289054870605,-0.6545432806015015,1.1367595195770264
1783246285382081800,4.437081787109375,-3.520873546600342,-1.2118337154388428,1.1569808721542358
1783246285392094000,4.447093994140625,-3.1555137634277344,-1.6173598766326904,1.1570909023284912
1783246285402104800,4.457104736328125,-2.5270516872406006,-1.8346112966537476,1.0488145351409912
1783246285412116700,4.46711669921875,-1.7610961198806763,-1.9555965662002563,0.6990344524383545
1783246285422129000,4.47712890625,-1.0361429452896118,-2.0681309700012207,0.1348986178636551
1783246285432139800,4.487139892578125,-0.5560689568519592,-2.1300647258758545,-0.429559588432312
1783246285442151700,4.497151611328125,-0.35823073983192444,-2.1349074840545654,-0.6612482070922852
1783246285452163800,4.507163818359375,-0.28928542137145996,-2.2001266479492188,-0.26538750529289246
1783246285462176300,4.51717626953125,-0.26052674651145935,-2.2936394214630127,0.7324004173278809
1783246285472187400,4.5271875,-0.24615351855754852,-1.9540642499923706,1.8421025276184082
1783246285482199300,4.53719921875,-0.3744308054447174,-0.9609288573265076,2.632850170135498
1783246285492211500,4.54721142578125,-0.649570643901825,0.17424653470516205,3.219810962677002
1783246285502222300,4.557222412109375,-0.7216440439224243,0.49469777941703796,3.8253049850463867
1783246285512234200,4.567234130859375,-0.29108700156211853,-0.004894713871181011,4.426822185516357
1783246285522246100,4.57724609375,0.4490526020526886,-0.8592625856399536,4.848373889923096
1783246285532257300,4.58725732421875,1.1349149942398071,-1.7350075244903564,4.898514747619629
1783246285542269200,4.597269287109375,1.5600169897079468,-2.349785089492798,4.63599967956543
1783246285552281000,4.607281005859375,1.6835055351257324,-2.4423210620880127,4.348575115203857
1783246285562293200,4.617293212890625,1.529311180114746,-2.056621551513672,4.155534267425537
1783246285572304100,4.62730419921875,1.198805570602417,-1.535294771194458,4.027070999145508
1783246285582316300,4.63731640625,0.8636914491653442,-1.0965502262115479,3.905430316925049
1783246285592328200,4.647328125,0.6023451089859009,-0.7976975440979004,3.7605366706848145
1783246285602339300,4.65733935546875,0.38489168882369995,-0.7428617477416992,3.5162346363067627
1783246285612351200,4.667351318359375,0.14407207071781158,-0.916586697101593,3.1912028789520264
1783246285622363400,4.67736328125,-0.12714079022407532,-1.1125198602676392,2.830333948135376
1783246285632374300,4.687374267578125,-0.3916153609752655,-1.0582623481750488,2.4271087646484375
1783246285642386200,4.69738623046875,-0.5389768481254578,-0.7781793475151062,1.9650139808654785
1783246285652398300,4.7073984375,-0.510809600353241,-0.5242162346839905,1.4410133361816406
1783246285662410200,4.71741015625,-0.29971253871917725,-0.34468668699264526,0.8360151052474976
1783246285672421000,4.727421142578125,0.05560607463121414,-0.2995227575302124,0.15812145173549652
1783246285682433000,4.73743310546875,0.45967283844947815,-0.5002385377883911,-0.5736134648323059
1783246285692445200,4.747445068359375,0.8622313737869263,-0.9786731004714966,-1.293059229850769
1783246285702456300,4.757456298828125,1.226806402206421,-1.5078083276748657,-1.8729026317596436
1783246285712468200,4.76746826171875,1.5195555686950684,-1.8368436098098755,-2.1975581645965576
1783246285722480400,4.77748046875,1.6416831016540527,-1.9897092580795288,-2.262075424194336
1783246285732492300,4.7874921875,1.5741007328033447,-2.007946491241455,-2.2108237743377686
1783246285742503200,4.797503173828125,1.3907631635665894,-1.9344617128372192,-2.1679584980010986
1783246285752515300,4.807515380859375,1.1521855592727661,-1.805675745010376,-2.1502866744995117
1783246285762527200,4.81752734375,0.9141406416893005,-1.6520284414291382,-2.133681535720825
1783246285772538000,4.8275380859375,0.7221079468727112,-1.490850567817688,-2.105670690536499
1783246285782550300,4.83755029296875,0.5745805501937866,-1.3824816942214966,-2.055140972137451
1783246285792562200,4.847562255859375,0.43823498487472534,-1.3987596035003662,-2.0019471645355225
1783246285802574000,4.857573974609375,0.3022071123123169,-1.5118821859359741,-1.924666166305542
1783246285812585200,4.867585205078125,0.19562166929244995,-1.5606974363327026,-1.7951817512512207
1783246285822597400,4.877597412109375,0.19182772934436798,-1.5996129512786865,-1.6468985080718994
1783246285832609300,4.887609375,0.11739140003919601,-1.474636197090149,-1.441841959953308
1783246285842620200,4.8976201171875,0.07392461597919464,-1.1523717641830444,-1.24878990650177
1783246285852632300,4.90763232421875,0.1109887883067131,-0.8975905179977417,-1.1069135665893555
1783246285862644200,4.917644287109375,0.15215007960796356,-0.6461138129234314,-1.0226919651031494
1783246285872655000,4.927655029296875,0.15963517129421234,-0.42872849106788635,-1.014455795288086
1783246285882667300,4.937667236328125,0.16719001531600952,-0.19539590179920197,-1.0904704332351685
1783246285892679200,4.94767919921875,0.1469855010509491,0.037744536995887756,-1.2946592569351196
1783246285902691000,4.957691162109375,0.10413790494203568,0.13344122469425201,-1.632957935333252
1783246285912702200,4.9677021484375,0.12977340817451477,0.028210557997226715,-2.0435619354248047
1783246285922714000,4.977714111328125,0.25288787484169006,-0.0855247974395752,-2.422128915786743
1783246285932726300,4.987726318359375,0.39277657866477966,-0.09053412824869156,-2.605632781982422
1783246285942737400,4.9977373046875,0.44043225049972534,-0.11859612166881561,-2.492537260055542
1783246285952749300,5.007749267578125,0.3835708796977997,-0.13045910000801086,-2.093747138977051
1783246285962761200,5.01776123046875,0.2325054556131363,-0.07770054042339325,-1.4941986799240112
1783246285972773400,5.0277734375,0.04471247270703316,0.15388260781764984,-0.7962065935134888
1783246285982784300,5.0377841796875,-0.19242657721042633,0.7871705889701843,-0.21667607128620148
1783246285992796200,5.047796142578125,-0.45064473152160645,1.7080332040786743,0.03337784484028816
1783246286002808300,5.057808349609375,-0.6139219999313354,2.212151050567627,0.004111302550882101
1783246286012819200,5.067819091796875,-0.70872563123703,1.6139756441116333,-0.04595894366502762
1783246286022831000,5.0778310546875,-0.7596625685691833,0.11595159024000168,0.19857703149318695
1783246286032843000,5.087843017578125,-0.7724193930625916,-1.0772607326507568,0.8447306752204895
1783246286042855200,5.097855224609375,-0.8237683773040771,-1.3826388120651245,1.6279298067092896
1783246286052866300,5.1078662109375,-0.9188498258590698,-1.0950987339019775,2.1752326488494873
1783246286062878200,5.117878173828125,-0.9476993083953857,-0.5515725016593933,2.414666175842285
1783246286072890400,5.127890380859375,-0.9082412123680115,-0.04501960054039955,2.4645392894744873
1783246286082901200,5.1379013671875,-0.851355791091919,0.27963489294052124,2.361259937286377
1783246286092913200,5.1479130859375,-0.7968754768371582,0.504159152507782,2.061732053756714
1783246286102925300,5.15792529296875,-0.7689652442932129,0.6859545111656189,1.467730164527893
1783246286112936200,5.167936279296875,-0.761635959148407,0.6313263177871704,0.5728905200958252
1783246286122948000,5.177947998046875,-0.7435509562492371,0.3774982988834381,-0.4455389976501465
1783246286132960300,5.187960205078125,-0.7227320671081543,0.03345915675163269,-1.3194012641906738
1783246286142972200,5.19797216796875,-0.734117865562439,-0.19129619002342224,-1.8860151767730713
1783246286152983300,5.2079833984375,-0.7445511817932129,-0.1644928902387619,-2.142190456390381
1783246286162995500,5.217995361328125,-0.721886396408081,0.06602741032838821,-2.1904327869415283
1783246286173007400,5.22800732421875,-0.6693498492240906,0.32164672017097473,-2.153942823410034
1783246286183018200,5.238018310546875,-0.6080129742622375,0.48874250054359436,-2.0795257091522217
1783246286193030100,5.248030029296875,-0.5273988246917725,0.5448276400566101,-1.9391988515853882
1783246286203042300,5.258042236328125,-0.40043795108795166,0.4981994330883026,-1.7358092069625854
1783246286213054200,5.26805419921875,-0.24466358125209808,0.381675660610199,-1.4988181591033936
1783246286223065000,5.278065185546875,-0.11444991081953049,0.23100492358207703,-1.2500773668289185
1783246286233077200,5.2880771484375,-0.03824608772993088,0.1236850842833519,-1.0112109184265137
1783246286243089200,5.298089111328125,-0.019347233697772026,0.08491558581590652,-0.8105039000511169
1783246286253100000,5.30810009765625,-0.028386637568473816,0.07256266474723816,-0.6486555337905884
1783246286263112200,5.3181123046875,-0.07013807445764542,0.09263783693313599,-0.5323430299758911
1783246286273124000,5.3281240234375,-0.13363197445869446,0.11974780261516571,-0.4759814143180847
1783246286283135200,5.33813525390625,-0.21765203773975372,0.12643340229988098,-0.49338197708129883
1783246286293147400,5.3481474609375,-0.30388396978378296,0.0608157142996788,-0.5518414974212646
1783246286303159300,5.3581591796875,-0.3852906823158264,-0.09965146332979202,-0.6299524903297424
1783246286313171200,5.368171142578125,-0.45210355520248413,-0.2532670497894287,-0.6576948165893555
1783246286323182300,5.378182373046875,-0.498991996049881,-0.30671510100364685,-0.5791571140289307
1783246286333194200,5.3881943359375,-0.5095787644386292,-0.2586984634399414,-0.39511600136756897
1783246286343206100,5.3982060546875,-0.4632571041584015,-0.1490561068058014,-0.14125922322273254
1783246286353217000,5.408217041015625,-0.37950530648231506,0.007635275833308697,0.1195637434720993
1783246286363229200,5.418229248046875,-0.31549835205078125,0.15834754705429077,0.3600834012031555
1783246286373241000,5.428240966796875,-0.3030967712402344,0.29200729727745056,0.5508041977882385
1783246286383253200,5.438253173828125,-0.3007505238056183,0.3998602628707886,0.6906920671463013
1783246286393264400,5.448264404296875,-0.29843562841415405,0.4411050081253052,0.7662785053253174
1783246286403276300,5.4582763671875,-0.30658382177352905,0.4268650710582733,0.7680423259735107
1783246286413288200,5.4682880859375,-0.32066839933395386,0.3853614628314972,0.70595383644104
1783246286423299300,5.47829931640625,-0.332536518573761,0.3408046364784241,0.5896269679069519
1783246286433311200,5.488311279296875,-0.31341564655303955,0.2962852418422699,0.4428892731666565
1783246286443323100,5.4983232421875,-0.2476310431957245,0.256339430809021,0.2941727936267853
1783246286453334300,5.508334228515625,-0.11257650703191757,0.2150442898273468,0.14505156874656677
1783246286463349000,5.518348876953125,0.0954270213842392,0.1524576097726822,0.01980416476726532
1783246286473361000,5.52836083984375,0.31057581305503845,0.11457760632038116,-0.08506046235561371
1783246286483373000,5.538373046875,0.4670858085155487,0.05709567293524742,-0.2294597178697586
1783246286493384200,5.54838427734375,0.569789469242096,-0.04893523082137108,-0.4005841314792633
1783246286503396000,5.55839599609375,0.603706419467926,-0.1318732649087906,-0.5836413502693176
1783246286513408300,5.568408203125,0.5508096814155579,-0.20330864191055298,-0.6922971606254578
1783246286523419100,5.578419189453125,0.43656349182128906,-0.1194867193698883,-0.7335798740386963
1783246286533431000,5.58843115234375,0.34078091382980347,0.12057027965784073,-0.7369899153709412
1783246286543443200,5.598443115234375,0.38143354654312134,0.4249991476535797,-0.5751914381980896
1783246286553455000,5.608455078125,0.5490673184394836,0.9629696011543274,-0.10516190528869629
1783246286563466000,5.618466064453125,0.6014301180839539,1.5881277322769165,0.572808027267456
1783246286573478100,5.62847802734375,0.47164756059646606,1.6040452718734741,1.2330217361450195
1783246286583490000,5.638489990234375,0.6717097759246826,0.8105129599571228,1.6217657327651978
1783246286593501200,5.648501220703125,1.2817344665527344,-0.014871954917907715,1.5357705354690552
1783246286603513000,5.65851318359375,1.7770485877990723,-0.3726780414581299,1.005133032798767
1783246286613525200,5.668525146484375,2.034421682357788,-0.2596507668495178,0.20529437065124512
1783246286623536000,5.6785361328125,2.0273654460906982,-0.3056424856185913,-0.4647785425186157
1783246286633548000,5.688548095703125,1.8904457092285156,-0.8771442174911499,-0.5602377653121948
1783246286643560200,5.698560302734375,1.8007267713546753,-1.3439524173736572,0.1290818452835083
1783246286653572000,5.708572021484375,1.6618247032165527,-1.1999576091766357,1.3117194175720215
1783246286663583000,5.7185830078125,1.397385835647583,-0.5428422689437866,2.619457244873047
1783246286673595100,5.72859521484375,1.020925760269165,0.3703184723854065,3.8090105056762695
1783246286683607000,5.73860693359375,0.6485415101051331,1.2013853788375854,4.7277913093566895
1783246286693618200,5.7486181640625,0.34067028760910034,1.7420496940612793,5.272455215454102
1783246286703630300,5.75863037109375,-0.015406337566673756,2.016718626022339,5.391609191894531
1783246286713642200,5.768642333984375,-0.3876713812351227,1.9985206127166748,4.964480400085449
1783246286723653000,5.778653076171875,-0.7543238997459412,1.6926482915878296,3.946070671081543
1783246286733665000,5.7886650390625,-1.1402876377105713,1.0712194442749023,2.470025062561035
1783246286743677200,5.79867724609375,-1.4668973684310913,0.25108519196510315,0.7510937452316284
1783246286753689000,5.808689208984375,-1.5191665887832642,-0.2323603481054306,-0.8449950218200684
1783246286763700000,5.818699951171875,-1.1977518796920776,-0.4377681016921997,-2.113269567489624
1783246286773712100,5.828712158203125,-0.602536141872406,-0.4681447446346283,-2.9408633708953857
1783246286783724000,5.83872412109375,0.08220677822828293,-0.4146580696105957,-3.349316120147705
1783246286793735000,5.84873486328125,0.6501002907752991,-0.22534061968326569,-3.3627588748931885
1783246286803747000,5.8587470703125,0.951132595539093,-0.14656059443950653,-2.908386707305908
1783246286813759000,5.868759033203125,0.975470244884491,-0.29883337020874023,-2.4329416751861572
1783246286823771000,5.87877099609375,0.9052533507347107,-0.33590245246887207,-2.0177416801452637
1783246286833782300,5.8887822265625,0.6834497451782227,-0.2513880431652069,-1.51402747631073
1783246286843794200,5.898794189453125,0.35867613554000854,-0.0650908499956131,-0.9573333263397217
1783246286853806000,5.90880615234375,0.0432761050760746,0.11344989389181137,-0.4246196448802948
1783246286863817200,5.918817138671875,-0.21140384674072266,0.2182341068983078,0.014357738196849823
1783246286873829000,5.9288291015625,-0.3856395184993744,0.22983014583587646,0.33700379729270935
1783246286883841000,5.938841064453125,-0.5207986831665039,0.09123072773218155,0.49194836616516113
1783246286893852000,5.948851806640625,-0.6272706985473633,-0.1708104908466339,0.4362277090549469
1783246286903864000,5.958864013671875,-0.7135563492774963,-0.579323410987854,0.19326086342334747
1783246286913876000,5.9688759765625,-0.779192328453064,-1.2087292671203613,-0.16581952571868896
1783246286923888000,5.97888818359375,-0.861604630947113,-1.9293460845947266,-0.5494281649589539
1783246286933899300,5.988899169921875,-0.849420428276062,-2.4710536003112793,-0.7971224784851074
1783246286943911200,5.9989111328125,-0.6127762198448181,-3.021812915802002,-0.9407858848571777
1783246286953923000,6.008923095703125,-0.37886369228363037,-3.7902703285217285,-1.1100844144821167
1783246286963934200,6.018934326171875,-0.2577306032180786,-4.133697509765625,-1.1179708242416382
1783246286973946000,6.028946044921875,0.014023988507688046,-4.236103057861328,-1.0285638570785522
1783246286983958000,6.0389580078125,0.3102841377258301,-4.536087512969971,-1.011038064956665
1783246286993970200,6.04897021484375,0.488096684217453,-4.976809978485107,-1.0950895547866821
1783246287003981000,6.05898095703125,0.5198250412940979,-5.115211009979248,-1.2677079439163208
1783246287013993000,6.068992919921875,0.5570191740989685,-4.980788707733154,-1.5540189743041992
1783246287024005000,6.079005126953125,0.5720905661582947,-4.462403297424316,-1.8273204565048218
1783246287034016300,6.089016357421875,0.5235980749130249,-3.5691661834716797,-2.05532169342041
1783246287044028200,6.099028076171875,0.4364844858646393,-2.6120309829711914,-2.1957387924194336
1783246287054040300,6.109040283203125,0.16569648683071136,-1.5626789331436157,-2.0194578170776367
1783246287064051200,6.11905126953125,-0.15243327617645264,-0.135271817445755,-1.4541740417480469
1783246287074063000,6.12906298828125,-0.26826030015945435,1.4099066257476807,-0.6656542420387268
1783246287084075300,6.1390751953125,-0.1994122564792633,2.75102162361145,0.04714031144976616
1783246287094087200,6.149087158203125,0.11453941464424133,3.5175530910491943,0.76787269115448
1783246287104098000,6.15909814453125,0.26933833956718445,3.287078619003296,1.3540220260620117
1783246287114110000,6.16910986328125,0.37121549248695374,2.2695164680480957,1.6356432437896729
1783246287124122000,6.1791220703125,0.5489441752433777,1.1939469575881958,1.5667171478271484
1783246287134133000,6.189133056640625,0.8317878842353821,0.6693036556243896,1.2353237867355347
1783246287144145000,6.199144775390625,1.1931638717651367,1.0342507362365723,0.7347763776779175
1783246287154157000,6.209156982421875,1.5455589294433594,2.2742488384246826,0.1398673951625824
1783246287164169000,6.2191689453125,1.8549684286117554,4.074281692504883,-0.5810045599937439
1783246287174180000,6.22918017578125,2.090951681137085,5.740083694458008,-1.1772278547286987
1783246287184192300,6.239192138671875,2.3664042949676514,6.537046909332275,-1.3016334772109985
1783246287194204200,6.2492041015625,2.5932347774505615,6.160675525665283,-1.0494476556777954
1783246287204215000,6.259215087890625,2.506819009780884,4.889063358306885,-0.6197990775108337
1783246287214227200,6.269227294921875,2.175701141357422,3.0227913856506348,0.11876456439495087
1783246287224239000,6.279239013671875,1.7257510423660278,1.4951248168945312,1.0873700380325317
1783246287234250000,6.28925,1.1984679698944092,0.4380664825439453,1.9846832752227783
1783246287244262100,6.29926220703125,0.5423406362533569,-0.15292543172836304,1.9635064601898193
1783246287254274000,6.309274169921875,0.09525202959775925,-0.03983712196350098,1.0040253400802612
1783246287264286000,6.319285888671875,-0.3213912844657898,0.48882856965065,-0.01026823278516531
1783246287274297000,6.329297119140625,-0.7377784252166748,0.8518577218055725,-0.6960669159889221
1783246287284309200,6.339309326171875,-1.1424195766448975,0.9715651869773865,-0.9968084096908569
1783246287294321200,6.349321044921875,-1.5153571367263794,0.8524860739707947,-0.9553957581520081
1783246287304332000,6.35933203125,-1.8590528964996338,0.4973476529121399,-0.6755779385566711
1783246287314344200,6.36934423828125,-2.176645278930664,0.028944123536348343,-0.3190985918045044
1783246287324356000,6.379356201171875,-2.484555244445801,-0.4259834289550781,0.09869357943534851
1783246287334367000,6.389366943359375,-2.801345109939575,-0.8112421631813049,0.5397796034812927
1783246287344379100,6.399379150390625,-3.06640887260437,-0.9228975772857666,0.9259400963783264
1783246287354391000,6.40939111328125,-3.2161810398101807,-0.6754491925239563,1.2241414785385132
1783246287364403000,6.41940283203125,-3.231724500656128,-0.293451726436615,1.462039828300476
1783246287374414000,6.4294140625,-3.151431083679199,-0.06986884772777557,1.654045581817627
1783246287384426200,6.43942626953125,-3.0036096572875977,-0.05048156902194023,1.769116997718811
1783246287394438100,6.449438232421875,-2.7791924476623535,-0.1860019564628601,1.7489484548568726
1783246287404449000,6.459448974609375,-2.461529493331909,-0.4207870662212372,1.582930564880371
1783246287414461200,6.469461181640625,-2.0748274326324463,-0.6701890230178833,1.361022710800171
1783246287424473000,6.47947314453125,-1.6473389863967896,-0.8711019158363342,1.1645166873931885
1783246287434485200,6.4894853515625,-1.1928309202194214,-1.0076923370361328,1.004901647567749
1783246287444496100,6.49949609375,-0.7615222334861755,-1.0520250797271729,0.8785061240196228
1783246287454508000,6.509508056640625,-0.4135979115962982,-1.0289404392242432,0.79775071144104
1783246287464516600,6.5195166015625,-0.1456165313720703,-1.0026649236679077,0.7730743885040283
1783246287474527700,6.52952783203125,0.08241692185401917,-0.9798823595046997,0.7857539057731628
1783246287484539600,6.53953955078125,0.28795620799064636,-0.9663545489311218,0.8330950736999512
1783246287494551600,6.549551513671875,0.4525010883808136,-0.9030214548110962,0.9062379598617554
1783246287504562700,6.559562744140625,0.5739393830299377,-0.7512708306312561,0.9999282956123352
1783246287514574800,6.569574951171875,0.6491974592208862,-0.5777243375778198,1.0846714973449707
1783246287524586800,6.579586669921875,0.6263281106948853,-0.30698898434638977,1.1833373308181763
1783246287534599000,6.589598876953125,0.5097570419311523,0.03264937922358513,1.296108603477478
1783246287544609800,6.59960986328125,0.34055817127227783,0.36216309666633606,1.384800910949707
1783246287554621700,6.60962158203125,0.19809524714946747,0.6020309925079346,1.3755496740341187
1783246287564633900,6.6196337890625,0.19041337072849274,0.824799656867981,1.0356829166412354
1783246287574644700,6.629644775390625,0.24916717410087585,1.2067862749099731,0.43776699900627136
1783246287584656600,6.63965673828125,0.2506031394004822,1.452006220817566,-0.18947827816009521
1783246287594668500,6.64966845703125,0.2539536952972412,1.0870040655136108,-0.5393388867378235
1783246287604680000,6.659679931640625,0.26559144258499146,0.14511330425739288,-0.4963221549987793
1783246287614691800,6.66969189453125,0.24437730014324188,-0.9915704131126404,-0.2961067259311676
1783246287624703700,6.679703857421875,0.09002821147441864,-1.8997323513031006,0.005317827221006155
1783246287634716000,6.6897158203125,-0.1438545286655426,-2.3131015300750732,0.35643407702445984
1783246287644726800,6.699726806640625,-0.23152711987495422,-2.2749288082122803,0.6599777340888977
1783246287654738700,6.70973876953125,-0.0420306995511055,-1.9283673763275146,0.7913859486579895
1783246287664750800,6.719750732421875,0.2836475372314453,-1.2853995561599731,0.777452826499939
1783246287674761700,6.72976171875,0.5840348601341248,-0.44916272163391113,0.6114320755004883
1783246287684773600,6.739773681640625,0.7380664944648743,0.23559324443340302,0.3030952513217926
1783246287694785800,6.749785888671875,0.7262302041053772,0.467753142118454,-0.05570029467344284
1783246287704797700,6.759797607421875,0.5975326895713806,0.2818985879421234,-0.3185763657093048
1783246287714808600,6.76980859375,0.45319491624832153,-0.12020550668239594,-0.44652920961380005
1783246287724820700,6.77982080078125,0.31225669384002686,-0.6099557876586914,-0.4878465533256531
1783246287734832600,6.78983251953125,0.19410991668701172,-1.0596871376037598,-0.5240643620491028
1783246287744843800,6.79984375,0.20092228055000305,-1.3737177848815918,-0.6202044486999512
1783246287754855700,6.809855712890625,0.39342156052589417,-1.5067254304885864,-0.7782562971115112
1783246287764867800,6.819867919921875,0.7339887022972107,-1.3920116424560547,-1.0026880502700806
1783246287774878700,6.829878662109375,1.1145081520080566,-1.0130188465118408,-1.2118698358535767
1783246287784890600,6.839890625,1.3707610368728638,-0.49871763586997986,-1.2798120975494385
1783246287794902800,6.84990283203125,1.4174693822860718,-0.0055296765640378,-1.185471773147583
1783246287804914700,6.859914794921875,1.2605464458465576,0.3974025845527649,-0.9576576352119446
1783246287814925600,6.869925537109375,0.9331197142601013,0.5987869501113892,-0.6556119918823242
1783246287824937700,6.879937744140625,0.4563954472541809,0.6159598231315613,-0.2958615720272064
1783246287834949600,6.88994970703125,0.001815214054659009,0.47783344984054565,0.04366369545459747
1783246287844960800,6.899960693359375,-0.2492007613182068,0.2468676120042801,0.2447912096977234
1783246287854973000,6.909972900390625,-0.29169246554374695,-0.043184325098991394,0.3492419719696045
1783246287864984800,6.91998486328125,-0.18877699971199036,-0.26859745383262634,0.3751491904258728
1783246287874995700,6.92999560546875,0.04792923852801323,-0.34588491916656494,0.3657384514808655
1783246287885007600,6.940007568359375,0.36919862031936646,-0.31718242168426514,0.4060363471508026
1783246287895019800,6.950019775390625,0.6874213814735413,-0.30113956332206726,0.4959056079387665
1783246287905031700,6.96003173828125,0.9938436150550842,-0.22477924823760986,0.7851091623306274
1783246287915042600,6.97004248046875,1.1926476955413818,0.1514897346496582,0.8411503434181213
1783246287925054700,6.9800546875,1.1876434087753296,0.49638989567756653,0.7851041555404663
1783246287935066600,6.990066650390625,1.0189006328582764,0.5658630728721619,0.6804719567298889
1783246287945077800,7.000077880859375,0.8006361722946167,0.563535213470459,0.5664551258087158
1783246287955090000,7.01008984375,0.598076343536377,0.5562192797660828,0.5627381205558777
1783246287965101800,7.020101806640625,0.4177377223968506,0.624725341796875,0.7563062310218811
1783246287975113700,7.03011376953125,0.24964584410190582,0.8747768998146057,1.0144222974777222
1783246287985124900,7.040124755859375,0.11890646815299988,1.2223795652389526,1.1900436878204346
