time,seconds_elapsed,z,y,x
1783244266915596300,0.05459619140625,0.6636895344257354,0.03784443135634064,-0.19275244979970155
1783244266925608200,0.064608154296875,0.7928115889012813,-0.09128259155526756,-0.19199483636543155
1783244266935620400,0.074620361328125,0.6065466744899749,-0.11113616979941725,-0.16979790986552834
1783244266945631200,0.08463134765625,0.33022564157843587,-0.17746347605735063,-0.06426591674871743
1783244266955643100,0.09464306640625,-0.06484744296371936,-0.20709508260264992,-0.037529374057799575
1783244266965655000,0.104655029296875,-0.3574059094488621,-0.19256006903275846,-0.0025864728292450305
1783244266975667200,0.114667236328125,-0.44054304234087466,-0.1356299750648439,0.06526343988608568
1783244266985678000,0.124677978515625,-0.40741701780855655,-0.12028685998246073,0.11665928060244768
1783244266995690000,0.13468994140625,-0.29796295587718485,-0.13305968618541955,0.1419063153879717
1783244267005702100,0.1447021484375,-0.20651625980138777,-0.11185381654947996,0.14923969048336147
1783244267015714000,0.154714111328125,-0.21533611059486865,-0.08347907819747924,0.18071170073095708
1783244267025725200,0.16472509765625,-0.16947335408627986,-0.05648118115663528,0.18000212768949567
1783244267035737300,0.1747373046875,-0.0991886885046959,-0.10866130411848425,0.16247264501135794
1783244267045749200,0.184749267578125,-0.011050386324524878,-0.1271340955287218,0.13152115150652824
1783244267055761200,0.19476123046875,-0.01650046842396259,-0.0969946855917573,0.14372341127991675
1783244267065772300,0.204772216796875,-0.057741410350799556,-0.10246011139079927,0.15428857137076557
1783244267075784200,0.2147841796875,-0.08469722181558609,-0.09731631876155733,0.20503438721317796
1783244267085796000,0.224796142578125,-0.11967734978199004,-0.04401683638095855,0.2815686147088185
1783244267095808300,0.234808349609375,-0.10386953979730605,0.01157499472051859,0.32548480372689664
1783244267105819100,0.244819091796875,0.01660509784221649,0.021607582304626703,0.322061149421148
1783244267115831000,0.2548310546875,0.15310615665316582,0.015217004484683274,0.2978928863156587
1783244267125843200,0.26484326171875,0.22228023064434527,-0.03786927353665232,0.2571747261539101
1783244267135855000,0.274855224609375,0.28985388370156284,-0.08904328819587826,0.21221257174685595
1783244267145866200,0.2848662109375,0.32874621667563914,-0.08862564730569719,0.1803864508319646
1783244267155878400,0.29487841796875,0.273178643232584,-0.04580035879686475,0.17445735304392873
1783244267165890300,0.304890380859375,0.23615385769605635,-0.03884074891731143,0.16780848961398004
1783244267175902200,0.314902099609375,0.22949673789441585,-0.03482844453603029,0.19898688720986246
1783244267185913000,0.3249130859375,0.1738251195549965,-0.034691520283371205,0.23166253762617706
1783244267195925200,0.33492529296875,0.08258826683759689,-0.06051861997917294,0.26446714818440376
1783244267205937200,0.344937255859375,0.03517477375566959,-0.07956804223358631,0.25514314726106824
1783244267215949300,0.35494921875,-0.0667062225729227,-0.09284779504537582,0.26254757829867303
1783244267225960200,0.364960205078125,-0.2310591649055481,-0.09122443162724375,0.2956726529829204
1783244267235972000,0.37497216796875,-0.26928105127215385,-0.0455003529369831,0.25485768138319254
1783244267245984300,0.384984375,-0.2765893284589052,-0.013120032205432652,0.21533581833392382
1783244267255996200,0.39499609375,-0.21410393845140932,-0.007008855848759412,0.10663199024796485
1783244267266007300,0.40500732421875,-0.14025193577706813,-0.016681524079293013,-0.0029589228708297014
1783244267276019200,0.415019287109375,-0.10894085171222687,-0.0017873218081891535,-0.06139905607551336
1783244267286031400,0.42503125,-0.0977285528242588,0.00501212907359004,-0.06862126241400837
1783244267296043300,0.435043212890625,-0.023994039049744606,0.021546792028099296,-0.049476270830631254
1783244267306054100,0.44505419921875,-0.006637830579280853,0.04634074928387999,0.03290229877904057
1783244267316066300,0.45506640625,-0.08961889612674713,0.06231763222515583,0.13790690702088176
1783244267326078200,0.465078125,-0.13237199618220327,0.10721987313851714,0.1886946257762611
1783244267336090000,0.475090087890625,-0.09525485618710518,0.12196823719814419,0.21119111974462865
1783244267346101200,0.485101318359375,-0.0713730453401804,0.1082667518429458,0.11169365755170584
1783244267356113200,0.495113037109375,-0.04132978925406933,0.09011106355786323,0.012757263307645917
1783244267366125000,0.505125,-0.010016951623558997,0.07863529142811894,-0.03642265492491424
1783244267376137200,0.51513720703125,-0.06637830579280853,0.0671329235523939,-0.023673721054196357
1783244267386148000,0.525148193359375,-0.11530337248146533,0.06447057247534393,0.03262662364281714
1783244267396160000,0.535159912109375,-0.18498773408234118,0.06317220322787762,0.11700864202938974
1783244267406172200,0.545172119140625,-0.2315770512998104,0.0640530777156353,0.1749465978655964
1783244267416184000,0.55518408203125,-0.20359657296240327,0.066154580039531,0.2058272546239197
1783244267426195200,0.5651953125,-0.21629472649395465,0.06609437428489327,0.20980361090898514
1783244267436207400,0.575207275390625,-0.1810527327209711,0.07479352130815387,0.1826527152635157
1783244267446219300,0.58521923828125,-0.10397183112800121,0.09265008051618934,0.14266674183383582
1783244267456231200,0.595231201171875,-0.08108078488409519,0.055649844899028536,0.09824994634985923
1783244267466242300,0.6052421875,-0.09307458953857421,0.02113061244264245,0.11289843023158609
1783244267476254200,0.615254150390625,-0.08668576528429985,0.06949205389916896,0.1377390761733055
1783244267486266000,0.62526611328125,-0.06023088907897472,0.11326076073795556,0.15496384028382598
1783244267496278300,0.6352783203125,0.017570728003978728,0.14518763861358164,0.1590590737082064
1783244267506289200,0.6452890625,0.07082008763253689,0.13562982893437148,0.15628054890558124
1783244267516301000,0.655301025390625,0.15690905606746672,0.158377228923887,0.14989019028134642
1783244267526313200,0.665313232421875,0.2861713957965374,0.1796614244930446,0.13124116552136839
1783244267536325000,0.6753251953125,0.37345746506154537,0.11005699626058339,0.0734381611764431
1783244267546336300,0.685336181640625,0.34899288589060307,0.045775370486080644,0.05313004409782588
1783244267556348200,0.69534814453125,0.26253917579650876,0.06701660369634628,0.07234284022040664
1783244267566360300,0.7053603515625,0.11995090602636337,0.09085691348910331,0.10612097198590635
1783244267576372200,0.715372314453125,-0.03618424305915832,0.12523337647393346,0.08706848099157213
1783244267586383000,0.725383056640625,-0.16183189942240714,0.1152700547337532,0.07431260592341422
1783244267596395300,0.735395263671875,-0.2570125213295221,0.0816141611084342,0.05512362906783819
1783244267606407200,0.7454072265625,-0.27356676576733585,0.10643354506641625,0.02627959270365536
1783244267616419300,0.75541943359375,-0.22622750696539878,0.14960224018543958,0.00003222176916897297
1783244267626430200,0.76543017578125,-0.1303454587906599,0.12783669084012508,-0.04670110702887177
1783244267636442000,0.775442138671875,-0.007093757653236389,0.0907420549377799,-0.09697210843376815
1783244267646455000,0.785455078125,0.06408581094145774,0.12785554167106747,-0.16552753906995057
1783244267656467000,0.795467041015625,0.1315308691829443,0.12065949268713592,-0.1739716884188354
1783244267666477800,0.805477783203125,0.1468850901812315,0.053522039090096944,-0.16756160218082367
1783244267676490000,0.815489990234375,0.08864332909286021,0.05416852030009031,-0.11717230815850198
1783244267686502000,0.825501953125,0.008520575585961341,0.06886340060681104,-0.0830265121243894
1783244267696513800,0.835513671875,-0.023704700714349745,0.04408727126866579,-0.07416640238575636
1783244267706525000,0.84552490234375,-0.04481587780416012,0.028692133738100527,-0.05290967934541404
1783244267716537000,0.855537109375,-0.1412988144814968,0.01730360150039196,-0.046353535700216886
1783244267726549000,0.865549072265625,-0.22794190966784952,0.005163374112546444,-0.0710720165669918
1783244267736561200,0.87556103515625,-0.2644073077559471,0.0016803543023765086,-0.059835021629184484
1783244267746572000,0.885572021484375,-0.21514380289316176,0.008000497234612703,-0.02578172618411481
1783244267756584000,0.895583984375,-0.1301665950924158,-0.008489157534390687,0.032415830436348915
1783244267766595800,0.905595947265625,-0.072095514395833,-0.06773878049105406,0.05866407815366983
1783244267776608000,0.91560791015625,0.0006605097353458404,-0.14273220828548072,0.1252958472508937
1783244267786619000,0.925618896484375,0.06638415101170539,-0.15004092386364937,0.20315219019576905
1783244267796630800,0.935630859375,0.024984803652763364,-0.1515035437621176,0.300857216013968
1783244267806643000,0.945642822265625,-0.04577040205001831,-0.15074220400080085,0.34164011197499927
1783244267816654800,0.95565478515625,-0.1186029985487461,-0.11398702918589114,0.34793680096641183
1783244267826666000,0.965666015625,-0.11860767472386359,-0.04379866358563304,0.2856535094022751
1783244267836678100,0.97567822265625,-0.10046645335555077,0.03794438459947705,0.15045418083965778
1783244267846690000,0.98568994140625,-0.010250175857543944,0.08629895792379975,-0.005789908513054252
1783244267856702000,0.995701904296875,0.045668110719323154,0.09493848371431231,-0.1106348692137748
1783244267866713000,1.005713134765625,0.002210077264904976,0.04341799370497465,-0.07784874416030943
1783244267876725000,1.01572509765625,-0.03855623288750648,0.021926585125923156,0.09267119636945426
1783244267886737000,1.02573681640625,-0.033431729480624194,0.025642536909133193,0.30559461979940533
1783244267896749000,1.0357490234375,-0.04756897590458393,-0.017855390164256094,0.4851844403609633
1783244267906760000,1.045760009765625,-0.007660159364342689,-0.06379837230220436,0.5732956353385001
1783244267916771800,1.055771728515625,-0.05057341841757297,-0.050263914076983926,0.5972335602868348
1783244267926784000,1.065783935546875,-0.19605156441032887,0.005931582006067037,0.5547160956181586
1783244267936796000,1.0757958984375,-0.31368308757841584,0.11144976579323411,0.4198575433172285
1783244267946806800,1.085806884765625,-0.44581192265450953,0.17368059651777148,0.2509318131763488
1783244267956819000,1.09581884765625,-0.5152057768762112,0.2048097481444478,0.07126176698543131
1783244267966830800,1.105830810546875,-0.5035732067495584,0.2392974164187908,-0.07949468473643063
1783244267976843000,1.115843017578125,-0.38969606767892834,0.3166103732019663,-0.15837233355306088
1783244267986854000,1.12585400390625,-0.18621873718202114,0.39183950944840906,-0.1624336647078395
1783244267996866000,1.135865966796875,0.023818097960948942,0.4165541178576648,-0.09940021236352622
1783244268006878000,1.1458779296875,0.25779110448658465,0.4227019729629159,-0.02143218920510262
1783244268016890000,1.15589013671875,0.4143915329962969,0.4409031078249216,0.058138227648660536
1783244268026901000,1.16590087890625,0.5156260481148958,0.41596024361774325,0.07515154096558689
1783244268036913000,1.175912841796875,0.5587976658433675,0.40414223392158743,0.022136391951702535
1783244268046925000,1.185925048828125,0.5173813673496246,0.4055076770558953,-0.05576850284263491
1783244268056937000,1.19593701171875,0.39076691178083417,0.3772511582560837,-0.15297500455416738
1783244268066947800,1.20594775390625,0.2507259884059429,0.4100828760169446,-0.21478863277994095
1783244268076959700,1.215959716796875,0.14942425327003,0.41292862083688375,-0.26634455942884083
1783244268086972000,1.225971923828125,0.01809095248579979,0.3871541281111538,-0.31431703810039907
1783244268096983800,1.23598388671875,-0.010618424648046493,0.3792588448166847,-0.3309096052546054
1783244268106995000,1.245994873046875,0.009533552020788193,0.3799265149451792,-0.33370621370319276
1783244268117007000,1.256007080078125,0.0747013129800558,0.3518421378418803,-0.3311067352619022
1783244268127019000,1.26601904296875,0.12211714414954185,0.32267464167699217,-0.31066403201818465
1783244268137031000,1.276031005859375,0.1412730955183506,0.3166321466423571,-0.24601426705103366
1783244268147042000,1.2860419921875,0.16325754831135272,0.29695830887928604,-0.1504455591417849
1783244268157054000,1.296053955078125,0.10518880570232868,0.24047785837501287,-0.04959668233990669
1783244268167065900,1.30606591796875,0.02567395496070385,0.18800912773013115,0.0337241000233218
1783244268177078000,1.316078125,-0.10671323879063128,0.12588628742471336,0.09677315179556607
1783244268187089000,1.3260888671875,-0.23403905749917028,0.07078340888395905,0.13240403528828174
1783244268197100800,1.336100830078125,-0.31182664605677124,0.01494052563086152,0.07432363877408206
1783244268207113000,1.346113037109375,-0.3996621658980846,-0.04061579576581716,-0.03607917524948716
1783244268217124900,1.356124755859375,-0.43732291125059125,-0.07078413953632116,-0.09732808226458728
1783244268227136000,1.366135986328125,-0.42586803577840326,-0.03595437982603907,-0.06588007394708692
1783244268237148200,1.376148193359375,-0.36126726105213164,-0.007363514505326747,-0.01335588678792119
1783244268247160000,1.38616015625,-0.23368249914646147,-0.06981748646125197,0.05370521363727748
1783244268257172000,1.396171875,-0.03789280054271221,-0.14287936167120932,0.13284750473946333
1783244268267183000,1.40618310546875,0.16637129641771314,-0.16243746410012244,0.26777839162424205
1783244268277195000,1.416195068359375,0.35600247239172456,-0.1468750071786344,0.34730705169551074
1783244268287207000,1.42620703125,0.5341869562000036,-0.12464549358338117,0.3711240536779165
1783244268297219000,1.436218994140625,0.6764964090287685,-0.07045300788581371,0.4067874877333641
1783244268307230000,1.44622998046875,0.7072299854665994,-0.022579496076703072,0.4454802064821124
1783244268317241900,1.456241943359375,0.6491261715441942,-0.02555778123512864,0.4422644593060016
1783244268327254000,1.46625390625,0.5340706363439559,-0.030072336050122973,0.3995125282943249
1783244268337266000,1.476265869140625,0.33866672218739985,-0.05340455019026994,0.2753094447162002
1783244268347277800,1.48627783203125,0.06153261932730674,-0.07599924383610486,0.18333448698259888
1783244268357289000,1.4962890625,-0.28442016821503635,-0.08346884906440973,0.17550035929083824
1783244268367300900,1.50630078125,-0.53548050314188,-0.025266835464537143,0.23695779449008403
1783244268377313000,1.51631298828125,-0.6795189717203378,0.03551145836412906,0.3287567380696535
1783244268387324000,1.526323974609375,-0.6943570598900318,0.048247751948982474,0.37264666013531383
1783244268397336000,1.536336181640625,-0.6034469549089669,-0.04795914426594972,0.3173038353588432
1783244268407348000,1.546347900390625,-0.5060200153797865,-0.17597484493479132,0.16625570721402763
1783244268417360100,1.556360107421875,-0.4931991122514009,-0.23214169944524762,0.03386339889615774
1783244268427372000,1.5663720703125,-0.5911725797474384,-0.2138147462464869,-0.06412037079818546
1783244268437383000,1.5763828125,-0.7431015093147755,-0.18280279125869273,-0.13444229965023696
1783244268447394800,1.586394775390625,-0.8405722879856824,-0.142617934256047,-0.1335063339743763
1783244268457407000,1.596406982421875,-0.7470774272084235,0.0033538404725491997,-0.0384827292598784
1783244268467419000,1.6064189453125,-0.508961914050579,0.12408391417786478,-0.032864012595266105
1783244268477429800,1.6164296875,-0.16183073037862777,0.10322262019589543,-0.1085880196865648
1783244268487442000,1.62644189453125,0.2706768895447254,0.07333850019425153,-0.15689035136699675
1783244268497453800,1.636453857421875,0.5778402199655771,-0.01772884117513895,-0.20030702989771962
1783244268507465700,1.6464658203125,0.7622247274577617,-0.15590046354681253,-0.2451679889526218
1783244268517477000,1.65647705078125,0.7602519660800695,-0.23092414034903047,-0.2188199341226369
1783244268527489000,1.666489013671875,0.5614835439264774,-0.22752441490814088,-0.11459230160266161
1783244268537501000,1.6765009765625,0.2910767034947872,-0.16162994710952042,0.06532755463086068
1783244268547513000,1.68651318359375,0.027009002956748008,-0.08529913323149084,0.20047135361395776
1783244268557524000,1.69652392578125,-0.2119786168605089,-0.0369468979947269,0.2688380567450076
1783244268567535900,1.706535888671875,-0.3375467782467603,-0.002524550041556358,0.21082367467172441
1783244268577548000,1.716548095703125,-0.2924392240196466,0.04059899076148867,0.09275522139109671
1783244268587560000,1.726559814453125,-0.07975859636962414,0.03446954809576273,-0.09340813234187662
1783244268597570800,1.73657080078125,0.17151567356884478,-0.01289440675601363,-0.2816834367275238
1783244268607583000,1.7465830078125,0.3651210138708353,-0.09616130350753664,-0.40055889554210006
1783244268617595000,1.756594970703125,0.426702148514986,-0.1239658407561481,-0.3711922966085374
1783244268627606800,1.766606689453125,0.3283382203966379,-0.04601575511321425,-0.20900120848491788
1783244268637618200,1.7766181640625,0.07736673279702663,0.013452186769247055,0.010030103366076945
1783244268647634400,1.786634521484375,-0.16869769353866576,0.03899360139146447,0.18069032914936542
1783244268657646300,1.796646240234375,-0.37795769909024235,0.044524055250734086,0.3127978291764855
1783244268667658500,1.806658447265625,-0.5163163684666157,0.016398469354212283,0.37899383720494806
1783244268677669600,1.816669677734375,-0.5023194072961807,-0.04441416513547301,0.3285447027541697
1783244268687681500,1.826681640625,-0.4249906684219837,-0.0609159487336874,0.2347830807995051
1783244268697693400,1.836693359375,-0.32856326132416724,-0.03932005686685443,0.1209070377074182
1783244268707705600,1.84670556640625,-0.2573784320324659,0.00925984964594245,0.03432115260101855
1783244268717716500,1.856716552734375,-0.18949907402694224,0.043872021082788704,-0.01565422685816884
1783244268727728400,1.866728271484375,-0.14566694656312465,0.08820011537000537,-0.0007399316471070051
1783244268737740500,1.876740478515625,-0.14160101229846478,0.1524944544956088,0.06590995762869716
1783244268747752400,1.88675244140625,-0.18459376632869243,0.18454905040413142,0.11033230607062577
1783244268757763300,1.896763427734375,-0.19327040925920008,0.17123934084549544,0.10561623733416199
1783244268767775500,1.906775390625,-0.1694236697256565,0.16010405271649358,0.0959908423114568
1783244268777787400,1.916787353515625,-0.1349643507629633,0.17310191984698176,0.07179397416599094
1783244268787799300,1.92679931640625,-0.08399462650418281,0.16881854343935845,0.06360409183911979
1783244268797810400,1.936810546875,-0.056033437389135354,0.14541574828103185,0.08100538156032562
1783244268807822600,1.946822509765625,-0.02404138532280922,0.2046668325424194,0.13985694511011243
1783244268817834500,1.95683447265625,-0.07260287939608097,0.2265617073558271,0.20216697855070231
1783244268827846400,1.966846435546875,0.05098258374035358,0.2709220964774489,0.22959508370235562
1783244268837857500,1.976857421875,0.12644377517700195,0.2147754079721868,0.13846556381694972
1783244268847869400,1.986869384765625,0.15777999368309975,0.08958382481336594,-0.011760580420494078
1783244268857881600,1.996881591796875,0.10635317330658435,0.037542087408900256,-0.04112381835319102
1783244268867893500,2.0068935546875,0.02473755089342594,0.053637189902365205,0.027991511188074945
1783244268877904400,2.016904296875,-0.01922843208312988,0.04608049091249704,0.15207695973590016
1783244268887916500,2.02691650390625,-0.17807459369301795,0.02556143449693918,0.29890980827324093
1783244268897928400,2.036928466796875,-0.25344284614920615,0.04445449714586139,0.4372420280341059
1783244268907940400,2.0469404296875,-0.24824410846233366,0.021000848583132028,0.4917538088139146
1783244268917951200,2.056951171875,-0.08742752356231212,0.00007438041046261786,0.4715650803312659
1783244268927963400,2.06696337890625,0.13492811040580271,0.03551481936499476,0.3682487905025482
1783244268937975300,2.076975341796875,0.31600831565558907,0.06182604931592941,0.2452523062352091
1783244268947987500,2.086987548828125,0.47117783457934853,0.07457622529566288,0.11795754025205969
1783244268957998600,2.09699853515625,0.5959469545423984,0.14673501418605445,0.05746471230126917
1783244268968010500,2.107010498046875,0.5825649103999138,0.21218509921804068,0.003990604006126523
1783244268978022400,2.1170224609375,0.49406128203868865,0.22071707298085091,-0.05965023964680731
1783244268988034600,2.12703466796875,0.36641105368137356,0.22999387376159428,-0.1284665862414986
1783244268998045400,2.13704541015625,0.2615980955541134,0.24413974188342688,-0.17073789412938056
1783244269008057300,2.147057373046875,0.13748831628262995,0.24161036953628062,-0.19496808002255855
1783244269018069500,2.157069580078125,0.020673954716324806,0.2222736547730863,-0.1557923269972205
1783244269028081400,2.167081298828125,-0.0647895752966404,0.19759207185059785,-0.1472241128772497
1783244269038092300,2.17709228515625,-0.1350894384473562,0.17635244607552886,-0.10656535475254059
1783244269048104400,2.1871044921875,-0.19551263522803783,0.1214241934493184,-0.0883799289163202
1783244269058116400,2.197116455078125,-0.28292729930877686,0.06884747238531708,-0.03529576978683471
1783244269068128300,2.207128173828125,-0.3441547982096672,0.044750119091570374,0.04175042581893503
1783244269078139600,2.2171396484375,-0.3859159646183252,0.042070232357829807,0.10960545310080051
1783244269088151600,2.227151611328125,-0.3855757728785276,0.03636661388874054,0.17535780901499093
1783244269098163500,2.23716357421875,-0.38035833049118517,0.0023905483983457086,0.1939164520777762
1783244269108175600,2.247175537109375,-0.3598042027622461,-0.02927139493077993,0.2052357184715569
1783244269118186500,2.2571865234375,-0.3604810791105032,-0.03988514340370893,0.2416695523776114
1783244269128198400,2.267198486328125,-0.30990298451781273,0.0024760347247123715,0.27069822459369897
1783244269138210600,2.27721044921875,-0.2533627666503191,0.029710370869934558,0.23738391094766556
1783244269148222500,2.287222412109375,-0.15569149697124957,0.015949410412460563,0.23773908106088637
1783244269158233300,2.2972333984375,-0.024897125369310377,0.007951543526351452,0.25081476266793906
1783244269168245500,2.30724560546875,0.09557283609509468,0.03168590872660279,0.22163659897856414
1783244269178257400,2.31725732421875,0.23430384591519832,0.06528729568570851,0.12603380613662302
1783244269188269300,2.327269287109375,0.2926286091119051,0.10353796975538133,0.02751432213038206
1783244269198280400,2.337280517578125,0.24635201110541818,0.11177432157248259,-0.04880750472359359
1783244269208292600,2.347292724609375,0.12414368154108524,0.138599784655869,-0.08955211450085043
1783244269218304500,2.357304443359375,-0.041865211305022236,0.18767419668734073,-0.06193389360457659
1783244269228316700,2.367316650390625,-0.19418226340711114,0.22939327751994132,-0.012544497339799999
1783244269238327600,2.37732763671875,-0.26351123569905754,0.2433735798165202,0.0027704876266419886
1783244269248339500,2.38733935546875,-0.2997562690347433,0.24371216412112115,-0.04475990983322262
1783244269258351600,2.3973515625,-0.2846504698395729,0.22075009846761823,-0.07604162167310714
1783244269268363500,2.407363525390625,-0.21446575750112531,0.22601883265078065,-0.0802113085731864
1783244269278374400,2.41737451171875,-0.11173720443248748,0.23258798190802335,-0.06649024173468351
1783244269288386300,2.42738623046875,-0.045617257314920424,0.19782778030261397,-0.03207359286993742
1783244269298398500,2.4373984375,0.04930909757018089,0.17810586561411618,0.026670272521674632
1783244269308410400,2.447410400390625,0.14705167891979218,0.22527546693757175,0.11600764829330146
1783244269318421200,2.457421142578125,0.202785841101408,0.255703484557569,0.18096951141692696
1783244269328433400,2.467433349609375,0.2892074024915695,0.24740941120386123,0.15546872106604276
1783244269338445300,2.4774453125,0.31288638424277304,0.2030674345217645,0.09265490282177924
1783244269348457200,2.487457275390625,0.3353472223758697,0.14790975705385206,0.020508754217252134
1783244269358468600,2.497468505859375,0.2710568287730217,0.1300323011882603,0.011567688196897507
1783244269368480500,2.50748046875,0.19806699588596818,0.17321765518113968,0.0827922649770975
1783244269378492400,2.517492431640625,0.10192541999220847,0.19236761520057916,0.1602283366832882
1783244269388504600,2.527504638671875,-0.004674421551823616,0.15985723834857343,0.19003778401352464
1783244269398515500,2.537515380859375,-0.05791150622069835,0.17454188952222466,0.19484262701198457
1783244269408527400,2.54752734375,-0.0629419016033411,0.15377207321599126,0.11187127914093434
1783244269418539500,2.55753955078125,0.0029009821385145187,0.08448314067348837,0.006788564161583781
1783244269428551400,2.567551513671875,0.03750526252985,0.08463277827724813,-0.06835150556191802
1783244269438562300,2.577562255859375,0.020819500666856765,0.09570084638893604,-0.09701185592226684
1783244269448574500,2.587574462890625,-0.04307634066045284,0.07786635288223624,-0.06997961822040379
1783244269458586400,2.59758642578125,-0.15424246720671653,0.0326668825879693,-0.06671747461929917
1783244269468598300,2.607598388671875,-0.3274146758109331,-0.038215748886764045,-0.06569229629002511
1783244269478609700,2.617609619140625,-0.46901627263128753,-0.08411050796881317,-0.10230090224109589
1783244269488621600,2.62762158203125,-0.5677759220689534,-0.11749942122101784,-0.127628381851688
1783244269498633500,2.637633544921875,-0.6427431925088167,-0.15290464273169635,-0.12391542574316262
1783244269508645600,2.647645751953125,-0.6832119810193776,-0.1478235400751233,-0.04842223173305392
1783244269518656500,2.657656494140625,-0.6726613609105349,-0.11859028519764542,0.07401091956309974
1783244269528668400,2.66766845703125,-0.5157885452002287,-0.0861878987647593,0.2063779473092407
1783244269538680600,2.6776806640625,-0.28216040658950803,-0.03699176004976034,0.31042233221679927
1783244269548692500,2.6876923828125,-0.05748129810988903,-0.0870540140748024,0.32618966406062244
1783244269558703400,2.697703369140625,0.2504641225993633,-0.10813698798343539,0.23118637148179114
1783244269568715300,2.70771533203125,0.4523346024215221,-0.07838190118893981,0.21230989464148878
1783244269578727400,2.7177275390625,0.4177139554172754,-0.06217062496989965,0.2572450879763812
1783244269588739300,2.7277392578125,0.41184243303537366,0.06737213913574815,0.2776600264303386
1783244269598751500,2.73775146484375,0.2960200051158666,0.10702493508830666,0.29983824822977184
1783244269608762600,2.7477626953125,0.16159692162275313,0.12170271812975406,0.26575777251683175
1783244269618774500,2.7577744140625,0.12940554759204387,0.154666830098629,0.20459632458947596
1783244269628786700,2.76778662109375,0.0791588769108057,0.15019859864339233,0.10090893642604351
1783244269638797600,2.777797607421875,0.09135492613911628,0.14171411728411912,-0.015659999011829493
1783244269648804600,2.7878046875,0.08563070327341556,0.16154036912992595,-0.13176226678602396
1783244269658816500,2.79781640625,0.016855857732892037,0.1633956416077912,-0.1862967708542943
1783244269668828700,2.80782861328125,-0.0821913764744997,0.19322218620330095,-0.1386504919297993
1783244269678840600,2.817840576171875,-0.2116828487843275,0.19103373624831438,-0.06265278246365487
1783244269688851700,2.827851806640625,-0.30878128701150415,0.22199147683084008,-0.0011935206335037946
1783244269698863600,2.837863525390625,-0.3834235632807016,0.22429142433628438,0.009671645317226647
1783244269708875800,2.847875732421875,-0.34689971300363537,0.2091878170982003,-0.016557167047262192
1783244269718887700,2.8578876953125,-0.2545399937361479,0.21552038112059235,-0.08908515457622707
1783244269728898600,2.867898681640625,-0.16841595398783682,0.19499241074621676,-0.1528022052705288
1783244269738910700,2.87791064453125,-0.05802607251107692,0.16499197088852524,-0.21076361504755914
1783244269748922600,2.887922607421875,0.01595686306655407,0.09927373643964528,-0.24137692610658704
1783244269758934500,2.8979345703125,0.04733750523626804,0.04575958839505911,-0.16386574333757162
1783244269768945700,2.907945556640625,0.006892682123184204,0.058398851346224544,-0.021266002325341104
1783244269778957600,2.91795751953125,-0.04107727579772472,0.13712620497196912,0.15638327862769363
1783244269788969500,2.927969482421875,-0.0484720622241497,0.21494608836397527,0.3428312214557081
1783244269798981600,2.937981689453125,0.03964285908043384,0.2224965037435293,0.4524697000432759
1783244269808992500,2.947992431640625,0.20108254431486128,0.15744403972700238,0.3558521041356027
1783244269819004400,2.95800439453125,0.20171148986816406,0.030143355459719894,0.20174641505107282
1783244269829016600,2.9680166015625,0.11800094100236892,-0.07873334497511386,0.15778949216380714
1783244269839028500,2.978028564453125,0.1513198577582836,-0.03079436671435833,0.10383439541868865
1783244269849039600,2.98803955078125,-0.02258943294882774,-0.0099231358602643,0.05726349064074456
1783244269859051800,2.9980517578125,-0.07885960170328617,-0.054423664104938506,-0.0135281015496701
1783244269869063700,3.008063720703125,-0.15055179599523544,-0.10288096715137361,-0.04948350428901613
1783244269879075600,3.01807568359375,-0.2791910353899002,-0.0832303641334176,-0.03438223513849079
1783244269889086700,3.028086669921875,-0.3909919527083635,-0.051516690617054696,-0.019048545471578835
1783244269899098600,3.0380986328125,-0.47396191233992574,-0.00758037212640047,0.0465446743581444
1783244269909110500,3.048110595703125,-0.5035720377057791,0.02531286656334996,0.07470226282812654
1783244269919122700,3.058122802734375,-0.40347734027206894,0.05572773244082927,0.07234364393800496
1783244269929133600,3.068133544921875,-0.2501829675704241,0.038461832602322096,0.024792276755347845
1783244269939145500,3.0781455078125,-0.0729372259169817,0.04013663394674659,-0.005467690821364521
1783244269949157600,3.08815771484375,0.10317162066102027,0.09690043143704533,-0.019019027116149664
1783244269959169500,3.09816943359375,0.19818097765445708,0.1619504112355411,-0.007079217671230435
1783244269969180700,3.1081806640625,0.233903448420763,0.19144392448440192,0.029318083616718647
1783244269979192800,3.11819287109375,0.20054361513257027,0.19492197585850954,0.018727862149849533
1783244269989204700,3.128204833984375,0.12695756991803644,0.18994915588200093,0.02947444322220981
1783244269999216600,3.138216552734375,0.015348375779390334,0.23448154056966303,0.03454612046331167
1783244270009227500,3.1482275390625,-0.03656768941879272,0.24999796639233826,0.0038564562324434515
1783244270019239700,3.15823974609375,-0.05423427901268005,0.24596754183247685,-0.025989085324481128
1783244270029251600,3.16825146484375,-0.02643149532973766,0.24328283279314636,-0.04674216969162225
1783244270039263700,3.178263671875,0.049721770024299616,0.21535963760092852,-0.06032236675471067
1783244270049274600,3.188274658203125,0.09931202262341976,0.1979354784607887,-0.05585895760506391
1783244270059286500,3.19828662109375,0.12042495327889918,0.26352994039952754,-0.016273527800291777
1783244270069298400,3.20829833984375,0.13704057251513002,0.3269729233928025,0.004886164606362581
1783244270079310600,3.218310546875,0.12343231840133666,0.33563261518850923,-0.05293854011371731
1783244270089321700,3.22832177734375,0.053150575429201125,0.3007411884188652,-0.19825828067436813
1783244270099333600,3.238333740234375,-0.012570727759599686,0.2457755263917148,-0.3161596337597817
1783244270109345800,3.248345703125,-0.1746387740254402,0.2069477830864489,-0.36842677741795776
1783244270119357700,3.258357666015625,-0.3295236307889223,0.20515768479928373,-0.2910779456038028
1783244270129368600,3.26836865234375,-0.43791620096862316,0.22216639500632882,-0.09794007668308913
1783244270139380700,3.278380615234375,-0.4888824180960655,0.2555303199477494,0.1412840553037822
1783244270149392600,3.288392578125,-0.4045505224615335,0.26052929727882146,0.2825178417250514
1783244270159404500,3.298404541015625,-0.2100532017558813,0.23015783215165136,0.30352212437428533
1783244270169415700,3.308415771484375,0.03382511271238327,0.17228636568039654,0.25848639327436684
1783244270179427600,3.318427490234375,0.27446400686800476,0.09093786977082491,0.1571701912216842
1783244270189439500,3.328439453125,0.39833471668660636,0.013133183947950601,0.07170644201301038
1783244270199451600,3.33845166015625,0.43277299286127086,0.007822364188730717,0.05450067486390471
1783244270209462500,3.348462646484375,0.32166473398208617,0.03835691092312336,0.13042144663631916
1783244270219474400,3.358474365234375,0.1788642827659845,-0.0062915013596415515,0.1420683375492692
1783244270229486600,3.368486572265625,0.06335808118879795,-0.06252104584276676,0.1244506285984069
1783244270239498500,3.37849853515625,-0.09804010299146175,-0.1309760117791593,0.07251184011176227
1783244270249509600,3.388509521484375,-0.2001665985137224,-0.16677286295592783,0.06915032778941095
1783244270259521800,3.398521728515625,-0.2425175475090742,-0.17412074150070547,0.12045754037424922
1783244270269533700,3.40853369140625,-0.2981844896733761,-0.21241817732155321,0.1580483622957021
1783244270279545600,3.418545654296875,-0.3400374260187149,-0.22431363616809247,0.2090877907898277
1783244270289556500,3.428556396484375,-0.370649421903491,-0.20757818994447588,0.273602494667843
1783244270299568600,3.438568603515625,-0.3875573020845651,-0.19343685186728835,0.33288791959024966
1783244270309580500,3.44858056640625,-0.3880430397748947,-0.16481705271303654,0.322803528753668
1783244270319592700,3.4585927734375,-0.35022973420917985,-0.10294234194979071,0.28283684454634783
1783244270329603600,3.468603515625,-0.27346739704608913,-0.06823372440114617,0.19316497612334788
1783244270339615500,3.478615478515625,-0.1724210979759693,-0.024115619602799416,0.12047792557515204
1783244270349627600,3.488627685546875,-0.011362521013617516,0.058925359438359734,0.10836093293242156
1783244270359639600,3.4986396484375,0.11420213324129581,0.13708850331008435,0.10973346339464186
1783244270369650700,3.508650634765625,0.22855974930524825,0.12110957454219459,0.08881145220138133
1783244270379662600,3.51866259765625,0.2863449987977743,0.07127338435798883,0.0420836763612926
1783244270389674800,3.5286748046875,0.28814298813045025,0.04877499069347977,0.007927212802693248
1783244270399686700,3.538686767578125,0.21575112113654613,0.049327948401123284,-0.02886011071614921
1783244270409697500,3.548697509765625,0.09485913486778735,0.07358794491067529,-0.05088051160536706
1783244270419709700,3.558709716796875,-0.022970541220903397,0.10675766245424746,-0.07030139752067625
1783244270429721600,3.5687216796875,-0.16313479871451853,0.1387502990424633,-0.1188217558659613
1783244270439733500,3.5787333984375,-0.2330845332533121,0.17582783767953514,-0.14810542575642466
1783244270449744600,3.58874462890625,-0.24103870712816713,0.19077420852929353,-0.16638349831216037
1783244270459756500,3.598756591796875,-0.19380758487582206,0.21005685501769183,-0.13448204713873566
1783244270469768400,3.6087685546875,-0.11250701976120471,0.20002908973917363,-0.09926328811086714
1783244270479780600,3.618780517578125,-0.025697920358180998,0.1933940356388688,-0.016787176410853862
1783244270489791700,3.628791748046875,0.037168577921390535,0.19735913987755774,0.08517309569902717
1783244270499803600,3.6388037109375,0.1086076742351055,0.1993349699951708,0.15761274735741315
1783244270509815800,3.64881591796875,0.15798866799771785,0.2267737426713109,0.1728679649606347
1783244270519827700,3.65882763671875,0.18446634055674074,0.22460662776529788,0.15429806985147296
1783244270529838600,3.668838623046875,0.20808570107519625,0.21655279290825127,0.09297697438299656
1783244270539850800,3.678850830078125,0.2196159798711538,0.22484832756668327,0.047449660373851656
1783244270549862700,3.688862548828125,0.18722411483228205,0.22350670369938014,0.05028115747272968
1783244270559874600,3.69887451171875,0.15146248109936714,0.22651348429992793,0.04515358532592654
1783244270569885700,3.7088857421875,0.08112462402582168,0.20609905730262398,0.0367882733669132
1783244270579897600,3.718897705078125,-0.008915127861499787,0.1541254166983068,-0.0021242256123572586
1783244270589909500,3.728909423828125,-0.13510112888514994,0.045499622284621,-0.08414630993455648
1783244270599921700,3.738921630859375,-0.27202012084722516,-0.04087181635349989,-0.11420600569881498
1783244270609932500,3.7489326171875,-0.4422276344269514,-0.09667232176959514,-0.05094510127417743
1783244270619944400,3.7589443359375,-0.55679743193686,-0.07997560012117028,0.037924072463810445
1783244270629956600,3.76895654296875,-0.5754571242213249,-0.04101064030230045,0.14456738782338796
1783244270639968500,3.778968505859375,-0.48068332954943177,-0.02092296104133129,0.198430130109936
1783244270649980400,3.78898046875,-0.27540917876362797,0.00605520838573575,0.17259703906476498
1783244270659992600,3.79899267578125,0.023256956946849823,0.027458792550861835,0.12767178260199724
1783244270670004500,3.80900439453125,0.30665245828926563,0.03378463457152247,0.09460238362774252
1783244270680016400,3.819016357421875,0.5148509720891714,-0.0009063011899590491,0.07864369393028318
1783244270690027500,3.829027587890625,0.5961813478201627,-0.03304229177162051,0.14105828372389076
1783244270700039400,3.839039306640625,0.541330982735753,-0.06206219615936279,0.2409864654842764
1783244270710051300,3.84905126953125,0.4106038311511278,-0.05372866757810116,0.35265206598527726
1783244270720063500,3.8590634765625,0.24015023385584353,-0.02670841257497668,0.357007338585332
1783244270730074400,3.869074462890625,0.054096331846714016,-0.015870353826880453,0.25988844209201634
1783244270740086300,3.879086181640625,-0.062039399805665016,-0.0003165186032652855,0.11767360874414444
1783244270750098400,3.889098388671875,-0.11943360415399074,0.017921002746373413,-0.0514633529946208
1783244270760110300,3.8991103515625,-0.21320611282885074,0.014902970099449157,-0.18635514997802674
1783244270770121200,3.909121337890625,-0.31355215467512604,-0.012193857271224259,-0.30319968748688697
1783244270780133000,3.919133056640625,-0.4493669847875833,0.002413929273933172,-0.2977364536449313
1783244270790145300,3.929145263671875,-0.5562117410033941,0.07227920039966702,-0.22087094836831092
1783244270800157200,3.9391572265625,-0.5917606087684631,0.06320230610519648,-0.18312296312376855
1783244270810168300,3.949168212890625,-0.5654314047694206,0.015092647452652453,-0.13459975523427128
1783244270820180500,3.959180419921875,-0.5130763636320829,-0.018059534434229134,-0.06653817252963781
1783244270830192400,3.9691923828125,-0.4005728510022163,-0.03138122669160366,-0.0007481149535626172
1783244270840204500,3.97920458984375,-0.2580933023035526,-0.009071049075573682,0.08450432959198952
1783244270850215400,3.98921533203125,-0.11314940931797027,0.0531767327837646,0.17350567834228275
1783244270860227300,3.999227294921875,0.09685118546783923,0.11426467708349228,0.23679405529573558
1783244270870239200,4.0092392578125,0.2492097386240959,0.13713994123637677,0.25391397079229355
1783244270880251400,4.01925146484375,0.3586111935853958,0.12573065847158432,0.2535142308849841
1783244270890262300,4.02926220703125,0.4651934994727373,0.11013254571482539,0.22929829271286725
1783244270900274200,4.039274169921875,0.5486380908787251,0.1219648761972785,0.17329970744140444
1783244270910286300,4.049286376953125,0.5378869797617196,0.10930939276367425,0.07834785278886557
1783244270920298200,4.05929833984375,0.4532955564081669,0.054416211450845,-0.00017192250080406664
1783244270930309400,4.069309326171875,0.3224696206241846,0.028477468074113128,-0.03366254256181419
1783244270940321500,4.079321533203125,0.11915478721261023,0.03225932470038533,-0.03431662255637347
1783244270950333400,4.08933349609375,-0.05861000987887382,0.043170010293275114,-0.02039630681872368
1783244270960345300,4.099345458984375,-0.15718202778995036,0.04497530614957213,-0.023930180033296344
1783244270970356500,4.1093564453125,-0.15515549039840698,0.04209361323341727,-0.004278773297742009
1783244270980368400,4.119368408203125,-0.10285948597192764,0.03635594636425376,-0.007732713143900036
1783244270990380300,4.12938037109375,-0.0053583121627569195,0.008042436680197716,-0.015920988035574554
1783244271000392400,4.139392333984375,0.1275315704137087,0.009506664013862609,-0.0032038375426083803
1783244271010403300,4.1494033203125,0.2547100896060467,-0.012048019059747457,0.021741803143545985
1783244271020415200,4.159415283203125,0.3289537219464779,-0.04880670100599527,0.031015096792951224
1783244271030427400,4.169427490234375,0.3384983798831701,-0.04204173691570758,0.03844320096708834
1783244271040439300,4.179439208984375,0.2610276021897793,-0.06489654280245304,0.017519143947213888
1783244271050450400,4.189450439453125,0.10643266828358172,-0.10346695034578442,-0.0246832634229213
1783244271060462600,4.199462646484375,-0.0428776032179594,-0.09867328632846474,-0.08527502170354127
1783244271070474500,4.209474609375,-0.18800562059879303,-0.0798170485585928,-0.15232530847378073
1783244271080486400,4.219486328125,-0.25887889972329137,-0.09656213939338922,-0.23759631158933042
1783244271090497300,4.229497314453125,-0.3010322803199291,-0.10190408494323491,-0.28120946254022416
1783244271100509400,4.239509521484375,-0.36598610626757144,-0.08091901845112442,-0.27324367129281163
1783244271110521300,4.249521240234375,-0.4096247569859028,-0.034439445218443866,-0.24214579158723354
1783244271120533500,4.259533447265625,-0.42326282171607016,-0.017274229275435208,-0.16940284613333642
1783244271130544400,4.26954443359375,-0.42327100502252574,-0.03781695882752537,-0.07276026191487908
1783244271140556300,4.279556396484375,-0.39639235044717785,-0.10557692823708056,0.009492635488510131
1783244271150568200,4.289568115234375,-0.39344168394803997,-0.1491245396710932,0.09043634998947381
1783244271160580400,4.299580322265625,-0.42762277049124237,-0.1402126266799867,0.2108525354400277
1783244271170591200,4.30959130859375,-0.449181106826663,-0.06638970396965742,0.3122288701821118
1783244271180603400,4.319603271484375,-0.43946050780117507,-0.0010084463901817798,0.41091318936124444
1783244271190615300,4.329615234375,-0.35714462816417214,0.11741028163284063,0.4502316387929022
1783244271200627200,4.339627197265625,-0.2212239995896816,0.16899667648524044,0.4054436719089746
1783244271210638300,4.349638427734375,-0.040157238343358034,0.1606732309065759,0.3081581136118621
1783244271220650500,4.359650390625,0.14791443322896958,0.16370456142649054,0.20369075405187903
1783244271230662400,4.369662353515625,0.26877193270623684,0.13726853605210781,0.13360979434885084
1783244271240674300,4.37967431640625,0.30959026530683037,0.11774959658980369,0.07668379203416406
1783244271250685400,4.389685546875,0.284439457437396,0.11950462356358765,0.07794789368584752
1783244271260697300,4.399697265625,0.1871744304716587,0.15769246153011918,0.07798683745674788
1783244271270709200,4.409709228515625,0.07549684727191924,0.14021774124652148,0.03943995691947639
1783244271280721400,4.419721435546875,-0.04635258585214615,0.09392959893271327,-0.03712766138911247
1783244271290733300,4.4297333984375,-0.12039806527197361,0.10108341621011495,-0.07258980071879922
1783244271300744200,4.439744140625,-0.11528057612776756,0.15472747424468397,-0.05532324329316616
1783244271310756400,4.44975634765625,-0.054909401795268056,0.16633403314724562,-0.04022942679673433
1783244271320768300,4.459768310546875,0.07475625803768635,0.12198533446341753,-0.0346259807664901
1783244271330779400,4.469779296875,0.22535715387165545,0.09526523145064711,-0.0007125321835279464
1783244271340791600,4.47979150390625,0.34505788452923297,0.10303498866930604,0.06366298241950571
1783244271350803500,4.489803466796875,0.41694940078556536,0.13588497273921965,0.1467704508256167
1783244271360815400,4.4998154296875,0.4251175096720457,0.15674392863363026,0.21413177630640565
1783244271370826500,4.509826416015625,0.3961094418525696,0.17249240964651108,0.24773411311358212
1783244271380838400,4.51983837890625,0.28761984103918076,0.12784063636288046,0.25889300131388004
1783244271390850300,4.529850341796875,0.15696633921265601,0.088548636546731,0.19228249420039353
1783244271400862500,4.539862548828125,-0.02096387757360935,0.07830839756131172,0.16143712795116005
1783244271410873300,4.549873291015625,-0.15171791716516017,0.08245514197722077,0.14299831187576054
1783244271420885200,4.55988525390625,-0.32113924880325795,0.07868205317929387,0.04821560324504971
1783244271430897400,4.5698974609375,-0.47865796120166776,0.10685732343643903,-0.03783507900610566
1783244271440909300,4.579909423828125,-0.5530044693946838,0.1721314673796296,-0.06570749385915696
1783244271450920400,4.58992041015625,-0.5735381388574838,0.17764920788779853,-0.13236417820192872
1783244271460932400,4.599932373046875,-0.4923001175850629,0.15207535230070351,-0.18387831153571604
1783244271470944500,4.609944580078125,-0.3059609688937664,0.12831336844116448,-0.1737800383042544
1783244271480956400,4.619956298828125,-0.12955752328336237,0.10981894972100853,-0.154153912140429
1783244271490967300,4.62996728515625,0.007761281651258468,0.10060337760820984,-0.10743841126002371
1783244271500979500,4.6399794921875,0.06094166769683361,0.055832800250500435,-0.044051030911505216
1783244271510991400,4.649991455078125,0.03372399042546749,0.03599222761839628,0.09359583693370223
1783244271521003500,4.66000341796875,-0.0628150603532791,0.030703327430039642,0.26301227320097387
1783244271531014400,4.670014404296875,-0.14536124161481856,0.020525047764927147,0.3823381061315536
1783244271541026300,4.6800263671875,-0.12450725415647029,0.055200785957276816,0.4517166897188872
1783244271551038200,4.6900380859375,-0.00008124854266643523,0.09728124744817614,0.4124987049870193
1783244271561050400,4.70005029296875,0.1396650757998228,0.04131824494674802,0.2564317988321185
1783244271571061200,4.710061279296875,0.3109709060102701,-0.0395554730579257,0.049296018892899154
1783244271581073400,4.720073486328125,0.4303063104867935,-0.07000029568225145,-0.08563066674079746
1783244271591085300,4.730085205078125,0.4011509431511163,-0.10721344339773058,-0.10482516002170741
1783244271601097500,4.740097412109375,0.26950784576535225,-0.14876783518791198,-0.040706579321809114
1783244271611108400,4.7501083984375,0.07886018622517585,-0.13497487215697765,0.044575127850845456
1783244271621120500,4.76012060546875,-0.11422025341987609,-0.07144318796694278,0.11787917778622359
1783244271631132400,4.77013232421875,-0.2858335421442985,-0.03013151889145374,0.047058359501324594
1783244271641144300,4.780144287109375,-0.37413258784413334,-0.003995937768369913,-0.050650940633192656
1783244271651154700,4.79015478515625,-0.36036008307933803,0.03938376975283026,-0.17701211556065827
1783244271661166800,4.800166748046875,-0.28582652788162227,0.060489540015161034,-0.27179884277936067
1783244271671178800,4.8101787109375,-0.22430267638266085,0.07336831081062554,-0.25744079321157187
1783244271681190700,4.820190673828125,-0.14337152910232542,0.10650719482451677,-0.17813454371932894
1783244271691202000,4.8302021484375,-0.1278571491062641,0.0553127218991518,-0.09040847560185938
1783244271701214000,4.8402138671875,-0.15188976660072803,0.01153700079768896,0.011430106357112526
1783244271711225900,4.850225830078125,-0.19739654927849767,0.0592883475318551,0.14342545124664902
1783244271721238000,4.860238037109375,-0.2587093883752823,0.10819470952004194,0.26446988813076167
1783244271731249000,4.870248779296875,-0.2590951728224754,0.1367015498191118,0.29603352218456563
1783244271741260800,4.8802607421875,-0.20720482658743858,0.20403788698911665,0.24571298254951834
1783244271751273000,4.89027294921875,-0.13405483470261095,0.2053895938590169,0.08775383290722966
1783244271761284900,4.900284912109375,-0.056039282608032225,0.1746840744718909,-0.10252627196218818
1783244271771295700,4.910295654296875,-0.013635142120718955,0.18568360739201306,-0.17150924382805824
1783244271781308000,4.920307861328125,-0.004009820163249969,0.28101211333721876,-0.10502510304059832
1783244271791319800,4.93031982421875,0.01601823786497116,0.37225042735934255,0.00518339398726821
1783244271801331700,4.940331787109375,0.0475701449483633,0.3840013631686568,0.11124532926231621
1783244271811342600,4.950342529296875,0.1156312892615795,0.3752320735186338,0.1458644418966025
1783244271821354800,4.960354736328125,0.20301497368216515,0.32599954831600186,0.09734854053072631
1783244271831366700,4.97036669921875,0.28014088346064087,0.2407730419293046,-0.009254990807734429
1783244271841378800,4.98037890625,0.32686756332218647,0.10904314304292201,-0.0006295300751924514
1783244271851390000,4.990389892578125,0.41393969757556914,0.10958499483466148,0.07477744695618749
1783244271861401900,5.00040185546875,0.18177987795174122,0.07212532501220703,0.008147760218195617
1783244271871413800,5.010413818359375,0.004542904126644134,0.13905132781565188,0.09094612614251672
1783244271881426000,5.020426025390625,-0.12947861282825468,0.2872819873869419,0.17672555370423942
1783244271891436800,5.030436767578125,-0.2137386122703552,0.37628012126684185,0.21344163861777632
1783244271901448700,5.04044873046875,-0.10204290889203547,0.34687925473749637,0.20515563897266983
1783244271911460900,5.0504609375,0.15269173063337801,0.24570289954692123,0.14396905660405754
1783244271921472800,5.06047265625,0.3585018879920244,0.1661000782608986,0.12110062405075878
1783244271931483600,5.070483642578125,0.3735854753553867,0.07594049938619137,0.10638177834656089
1783244271941495800,5.080495849609375,0.30342648198008537,0.07127338435798883,0.12753147908216342
1783244271951507700,5.0905078125,0.13206804479956627,0.17824615086764095,0.20187802380779757
1783244271961519600,5.10051953125,-0.09673954178690909,0.2996706365779042,0.25692100712116805
1783244271971531000,5.110531005859375,-0.22438450944721697,0.4296554453626275,0.24243739494495092
1783244271981543000,5.12054296875,-0.1535375338077545,0.5625970581263303,0.2559947043227963
1783244271991554800,5.130554931640625,0.031176644030213353,0.5407146044030785,0.23978169280439615
1783244272001567000,5.14056689453125,0.3156424049526453,0.3256269156113267,0.15789276987519113
1783244272011577900,5.150577880859375,0.4290805680841207,0.07776070055067538,-0.1216857487286441
1783244272021589800,5.16058984375,0.2893488567888737,-0.0707215956941247,-0.3128341791315004
1783244272031602000,5.170601806640625,0.03699029874503612,0.03349178910478949,-0.3064984367713332
1783244272041613800,5.18061376953125,-0.4277735771387815,0.15838979614451526,-0.3915422800675034
1783244272051624700,5.190624755859375,-0.7518874578386545,0.2725928061686456,-0.26794446890614926
1783244272061636900,5.200636962890625,-0.828909322720766,0.4713780333265662,0.024750355576071886
1783244272071648800,5.210648681640625,-0.7045990524411201,0.5364258211679757,0.2098310103725642
1783244272081660700,5.22066064453125,-0.31428397608101366,0.4068988391533494,0.19368173000644892
1783244272091671800,5.230671875,0.08875789538323879,0.22495573346391318,0.0030467198852915313
1783244272101684000,5.24068408203125,0.3421346905589103,0.13928206783160565,-0.20622772518359123
1783244272111696000,5.25069580078125,0.37923429489731786,0.17373232670500874,-0.2784020769692957
1783244272121708000,5.2607080078125,0.21180793646872043,0.3653841948516667,-0.12800001904251984
1783244272131719000,5.270718994140625,-0.024739888980984687,0.6331197702474892,0.19634347829530013
1783244272141730800,5.280730712890625,-0.1507844357073307,0.8252626367814838,0.5544825060579925
1783244272151743000,5.290742919921875,-0.15369418567419052,0.8088134601533412,0.73982453347072
1783244272161755000,5.3007548828125,-0.10457388867437839,0.5636212866075336,0.6296846081670373
1783244272171765800,5.310765869140625,-0.04999357270300388,0.2519080377973616,0.2935718813113868
1783244272181777700,5.320777587890625,-0.18172259480655192,-0.022721096504479645,-0.14979936105958186
1783244272191789800,5.330789794921875,-0.5474649554461241,-0.16972659819498656,-0.4743582181811332
1783244272201801700,5.3408017578125,-1.0894529407858848,-0.1398364868439734,-0.5373445434480906
1783244272211812600,5.3508125,-1.675228629925847,0.003218669785559177,-0.2809351573771797
1783244272221824800,5.36082470703125,-2.0196996544778347,0.09254092105329036,0.07494034590031952
1783244272231836700,5.370836669921875,-2.1229005012333393,0.041736470358818764,0.4488725523341447
1783244272241848800,5.380848876953125,-1.8634926091998814,0.0444417837947607,0.8438333356082439
1783244272251860000,5.39085986328125,-1.186975741904974,0.03432648636326194,1.0883309510186314
1783244272261871900,5.400871826171875,-0.3325543767869472,-0.10996508019343018,1.066125329755619
1783244272271883800,5.4108837890625,0.546888616862893,-0.24548867227435112,0.8864561603475362
1783244272281896000,5.42089599609375,1.1557359695106744,-0.26294892564117905,0.6712444067846983
1783244272291906800,5.43090673828125,1.4539327341437338,-0.1433814659744501,0.5998788871638476
1783244272301918700,5.440918701171875,1.5091314742743969,-0.0018609715662896633,0.6060716043241322
1783244272311931000,5.450930908203125,1.23683487457335,0.04377937436327338,0.626291531662643
1783244272321942800,5.46094287109375,0.8495797703057527,0.025052023670077323,0.6333536520686001
1783244272331953700,5.47095361328125,0.4945066877186298,0.007543839508295059,0.5868855500780046
1783244272341965800,5.4809658203125,0.26038404358923434,0.048167380189150566,0.5088061024343594
1783244272351977700,5.490977783203125,0.1818143647432327,0.0981619758054614,0.35900654957853256
1783244272361989600,5.50098974609375,0.28962533564269544,0.09807429752200841,0.06671864366307854
1783244272372001000,5.5110009765625,0.47658349301517006,0.1584900416485965,-0.2473035214102827
1783244272382013000,5.521012939453125,0.6129203011751174,0.2343738424114883,-0.4511196006085723
1783244272392024800,5.53102490234375,0.6405711091667413,0.2928800996549427,-0.5182258553497493
1783244272402037000,5.541037109375,0.5295522821366787,0.2690907893970609,-0.4654624160746112
1783244272412048000,5.5510478515625,0.2426473113685846,0.2335739242054522,-0.3383637937180698
1783244272422059800,5.561059814453125,-0.12852759571373462,0.1756912056878209,-0.15260005202824248
1783244272432072000,5.571072021484375,-0.3968739964842796,0.11417612201720476,0.02385494110630825
1783244272442083800,5.581083740234375,-0.6281453428357839,0.03513239591866731,0.13566800552029162
1783244272452094700,5.5910947265625,-0.72880702650249,-0.05989361994862556,0.20190398023296147
1783244272462107000,5.60110693359375,-0.6563730739325284,-0.0627718057334423,0.2756549702182412
1783244272472118800,5.611118896484375,-0.5152981313347816,-0.01769523116648197,0.3665793229203671
1783244272482130700,5.621130615234375,-0.30808453691899773,-0.0011310498565435408,0.3173246589511633
1783244272492141800,5.631141845703125,-0.09102116414010525,-0.03549231527224183,0.1231179917551577
1783244272502154000,5.641154052734375,0.19306816468536853,-0.057263709836453194,0.07834774319101125
1783244272512166000,5.651165771484375,0.346212315261364,-0.06713672294467687,0.05043101427219808
1783244272522178000,5.661177978515625,0.5337924039244651,-0.020662264278531073,0.013149696691334247
1783244272532189000,5.67118896484375,0.6304033508956431,-0.020985212622582912,0.016731171907298267
1783244272542200800,5.681200927734375,0.6087433077514172,-0.045509705287218094,0.004694806752726435
1783244272552212700,5.691212646484375,0.5576742147713899,-0.03429462992027402,0.027575112406909463
1783244272562225000,5.701224853515625,0.415881479293108,0.010626900215446948,-0.03883490369841456
1783244272572235800,5.71123583984375,0.2333493216693401,0.018812106367200612,-0.1346308810248971
1783244272582247700,5.72124755859375,0.09226444219946861,-0.01741363774612546,-0.2655882977014407
1783244272592259800,5.731259765625,-0.016633739414811135,-0.038554040930420155,-0.38944293316807593
1783244272602270700,5.741270751953125,-0.1794049655139446,-0.04647153605669736,-0.4126967117771506
1783244272612283000,5.751282958984375,-0.358793564414978,-0.04584185985103249,-0.4117818254219368
1783244272622294800,5.761294677734375,-0.504284569889307,-0.042732057267427445,-0.2910967964347452
1783244272632306700,5.771306640625,-0.629135522916913,-0.07312251935601234,-0.13726049887612463
1783244272642317800,5.78131787109375,-0.6400918012171983,-0.17549422181099653,-0.07892167062144725
1783244272652330000,5.791330078125,-0.5711965441673994,-0.25253552204594015,-0.0538808989977464
1783244272662342000,5.801341796875,-0.5009785140812397,-0.25708587882667777,-0.03185450675915927
1783244272672354000,5.81135400390625,-0.37485447237789626,-0.18296499608308076,0.006110884095728397
1783244272682365000,5.821364990234375,-0.291235693448782,-0.13953122028708456,0.03008559739049524
1783244272692376800,5.831376953125,-0.2401473112463951,-0.10276727764382958,-0.05995035510454327
1783244272702388700,5.841388671875,-0.22362170838117598,-0.02819865113273263,-0.1846571504211053
1783244272712401000,5.85140087890625,-0.2550076112478971,-0.04931947283372283,-0.2555705423602834
1783244272722411800,5.861411865234375,-0.22125790185928343,-0.013428513632714748,-0.2633913356464356
1783244272732423700,5.871423583984375,-0.22456571123301983,0.05973302255943417,-0.24119623577743768
1783244272742435800,5.881435791015625,-0.2221089657306671,0.11324863190874457,-0.30539566316120326
1783244272752447700,5.89144775390625,-0.1426326934337616,0.1560366571471095,-0.30199853153619916
1783244272762459000,5.901458984375,0.026629648250341413,0.15331819196864963,-0.23576083979047832
1783244272772471000,5.911470947265625,0.16621639811694622,0.12831015357077122,-0.21675708330869672
1783244272782483000,5.92148291015625,0.22720424304306505,0.07106047225967049,-0.18471180321779102
1783244272792494800,5.931494873046875,0.2522860773295164,0.0491005693860352,-0.13483761911075562
1783244272802506000,5.941506103515625,0.24958266358971595,0.07866027973890304,-0.0682225088873878
1783244272812518000,5.951517822265625,0.17636077551245688,0.1173338553957641,-0.03885817497614771
1783244272822529800,5.96152978515625,0.14841186135709286,0.1314027127586305,-0.03924304610788822
1783244272832542000,5.9715419921875,0.07820785979628563,0.13907120155990124,-0.05428356151450425
1783244272842552800,5.981552734375,0.002520458388328552,0.11914178160056471,-0.08381550707761198
1783244272852564700,5.991564697265625,-0.03705108902156353,0.136890496519953,-0.14719740753341465
1783244272862577000,6.001576904296875,-0.06682371147274971,0.21685323715955018,-0.2284209984216839
1783244272872588800,6.0115888671875,-0.09357844740748406,0.25199367025420066,-0.31683563332520426
1783244272882600000,6.021599853515625,-0.06900339359939098,0.20984540422409773,-0.3867766000356525
1783244272892612000,6.031612060546875,-0.0073047700554132455,0.1964670133434236,-0.41897458647023883
1783244272902624000,6.0416240234375,-0.02487958971261978,0.16543153134956956,-0.3756815708518028
1783244272912636000,6.051635986328125,-0.06785480808615683,0.14508125562965868,-0.24941885133013128
1783244272922646800,6.061646728515625,-0.08788228159248829,0.1210961305387318,-0.1564174731582403
1783244272932659000,6.071658935546875,-0.0837684165328741,0.09440145422816276,-0.060885224801860746
1783244272942670800,6.0816708984375,-0.02648468682169914,0.09226429606899618,-0.0348805035168305
1783244272952683000,6.09168310546875,-0.05955342820882797,0.05047200386971235,-0.19214253774043172
1783244272962694000,6.10169384765625,-0.021945289826393127,0.06788023478835821,-0.15099369454383849
1783244272972705800,6.111705810546875,-0.017808628413081166,0.11644976603761314,-0.0691514237679541
1783244272982717700,6.1217177734375,-0.0919207433283329,0.1420420340642333,-0.011380531594343483
1783244272992729900,6.131729736328125,-0.08870821102261543,0.13295154963582753,0.10048340449035167
1783244273002740700,6.14174072265625,-0.029957915890216825,0.09598141689598559,0.2183850498367101
1783244273012753000,6.1517529296875,-0.007111293309926986,0.038917759676277634,0.254123120030947
1783244273022764800,6.161764892578125,0.03987316070497036,0.007732055556774139,0.3068978113524616
1783244273032777000,6.17177685546875,0.02973112139701843,0.013721066838502884,0.32217282963469623
1783244273042787800,6.181787841796875,-0.012182605224847792,0.01914133832156658,0.31649869298841804
1783244273052800000,6.191800048828125,-0.003326514074206352,0.07588277784958482,0.30640213679000733
1783244273062812000,6.20181201171875,0.009383914417028426,0.06788038091883063,0.23906671293545512
1783244273072823800,6.21182373046875,-0.005281739795207977,0.07840250558555126,0.19698511893339454
1783244273082835000,6.2218349609375,0.05769698668718338,0.04915171505138278,0.15549177314806728
1783244273092846800,6.231846923828125,0.10257014763653277,-0.014726444488763809,0.08276756892725824
1783244273102858800,6.241858642578125,0.05314414568841457,-0.010951163733750581,0.0009368789913132786
1783244273112870000,6.251869873046875,0.07958265528082847,0.03718348322957754,0.08447546882368624
1783244273122881800,6.2618818359375,0.09803776490390301,0.044127895539999004,0.19970621446035802
1783244273132893700,6.271893798828125,0.05297346529662609,0.005789104795455933,0.26811379759106785
1783244273142905900,6.28190576171875,0.0090495678961277,-0.015462649808824062,0.33058201726805414
1783244273152917000,6.2919169921875,-0.02697276259958744,-0.06204290693700313,0.33703188752718266
1783244273162929000,6.301928955078125,-0.012880524361133575,-0.12147124746143817,0.30088209472689775
1783244273172941000,6.311941162109375,-0.03968728274405002,-0.17422697835415601,0.23872056637890635
1783244273182953000,6.321952880859375,-0.09774842656850814,-0.1907226244725287,0.14275657554175705
1783244273192963800,6.3319638671875,-0.13051263205111027,-0.16059928888753056,0.11629658476989715
1783244273202975700,6.341975830078125,-0.19965806446969508,-0.12731646635830401,0.14868373710103333
1783244273212988000,6.35198779296875,-0.29957915890216824,-0.13503785439059138,0.18325543039701878
1783244273222999800,6.361999755859375,-0.36101883924901484,-0.09169219526946544,0.22359935041889548
1783244273233010700,6.3720107421875,-0.3899550108760595,-0.05288301053419709,0.23699578841291366
1783244273243022800,6.38202294921875,-0.423093310368061,-0.07427709621861577,0.21799130127876995
1783244273253034800,6.39203466796875,-0.3602332418292761,-0.058158320588618515,0.18555329554323105
1783244273263047000,6.402046875,-0.2686591199815273,0.0013660276561975478,0.15182872059587388
1783244273273058000,6.41205810546875,-0.1611579456835985,-0.0029229017093777656,0.10964260677341371
1783244273283070000,6.422070068359375,0.0027361469656229016,-0.001321311731636524,0.09693301853239536
1783244273293081900,6.432081787109375,0.10426993729174136,0.00312660758793354,0.1350185651682317
1783244273303094000,6.442093994140625,0.1378618257701397,0.02547083360403776,0.18822525469884274
1783244273313105000,6.45210498046875,0.1060544826209545,0.023199673801660537,0.22286614077351985
1783244273323116800,6.46211669921875,0.0670242024809122,0.04724982695281505,0.2659819731941446
1783244273333129000,6.47212890625,0.0498749147593975,0.07530775444060564,0.21819621273372322
1783244273343140900,6.482140869140625,0.04605798681974411,0.11082461963221431,0.10926456724125891
1783244273353151700,6.49215185546875,0.043809915632009505,0.1596644922554493,0.005773176573961973
1783244273363164000,6.502163818359375,0.061008887714147565,0.18111819917261598,-0.10854377868603915
1783244273373175800,6.51217578125,0.06778875711262226,0.179824798361212,-0.18262009163554757
1783244273383187000,6.52218701171875,0.07268646602630614,0.17254224013760686,-0.18999799999240785
1783244273393198800,6.53219873046875,0.06100128892958164,0.1785476180322468,-0.11023834417685865
1783244273403210800,6.542210693359375,0.030303368327021598,0.16234481738060713,-0.06527867398783564
1783244273413223000,6.552222900390625,0.033625790748000144,0.14156798681169747,-0.0013618994703516363
1783244273423233800,6.56223388671875,0.08934241727292537,0.15039850512966513,0.03917747005838901
1783244273433246000,6.572245849609375,0.13581073845922947,0.13637684790939092,0.07034943791348487
1783244273443257900,6.5822578125,0.25912732152640816,0.12993410151079296,0.06908307123947888
1783244273453270000,6.59227001953125,0.3765361418545246,0.16435089650601148,0.05541961633972823
1783244273463281000,6.602281005859375,0.4550549672961235,0.1857588645853102,0.027245734322071075
1783244273473292800,6.612292724609375,0.5136871890068054,0.18172259480655192,0.006977656992897391
1783244273483305000,6.622304931640625,0.49410453665852544,0.15112930362224578,-0.02556136143170297
1783244273493316900,6.63231689453125,0.35015140827596186,0.07555237685143947,0.022800554948858916
1783244273503327700,6.64232763671875,0.2168587901175022,0.04961933256313204,0.13432766029462218
1783244273513339600,6.652339599609375,0.06318330914378166,0.01805383534580469,0.2220015963660553
1783244273523351800,6.662351806640625,-0.12276771701276301,-0.06890022548586129,0.2402614756779745
1783244273533363700,6.67236376953125,-0.2548398534655571,-0.07465440509840846,0.19722970481161026
1783244273543374800,6.682374755859375,-0.36304537664055825,0.02774418536350131,0.15766655990388243
1783244273553387000,6.692386962890625,-0.4504144480139017,0.054488399904221295,0.08992869272828101
1783244273563399000,6.70239892578125,-0.429559291511774,0.03538330193981528,-0.039011246646009384
1783244273573410800,6.712410888671875,-0.3672983579099178,0.022967910872399806,-0.13266188250686972
1783244273583422000,6.722421875,-0.25994156051874157,0.024196429754048586,-0.16737097497954964
1783244273593433900,6.732433837890625,-0.13931377814412116,0.04915975222736597,-0.16190806993115692
1783244273603445800,6.74244580078125,-0.08011983089745044,0.03636339901834726,-0.1113809018081054
1783244273613458000,6.7524580078125,-0.07338087803125382,-0.008910013294965028,-0.0972438380472362
1783244273623468800,6.76246875,-0.13120587501227854,-0.018428221616148946,-0.045924569698423144
1783244273633480700,6.772480712890625,-0.1808873130261898,-0.033241613736003636,0.027659977678768335
1783244273643492900,6.782492919921875,-0.2601151635199785,-0.020417641867697237,0.04384783648960292
1783244273653504300,6.792504150390625,-0.30790041252374645,0.015608926411718129,0.03862885973230004
1783244273663516400,6.802516357421875,-0.2838257094532251,0.028327099817991256,0.03968662515692413
1783244273673528300,6.8125283203125,-0.23440964437723158,-0.010506927097588777,-0.00047781011220067736
1783244273683540200,6.822540283203125,-0.17244973954856394,-0.05906769051849842,-0.05424549452643841
1783244273693551600,6.832551513671875,-0.1342144091784954,-0.07668006570711731,-0.06095536742862313
1783244273703563500,6.8425634765625,-0.10553484266102313,-0.04388312699869275,-0.011782317328266798
1783244273713575400,6.852575439453125,-0.06354629723727703,0.03837108557894826,0.0634725013487041
1783244273723587600,6.862587646484375,-0.09491641801297664,0.069889236523211,0.12610018590372055
1783244273733598500,6.872598388671875,-0.0840039788544178,0.05042626503184437,0.12734090667981654
1783244273743610400,6.8826103515625,-0.02146189022362232,0.03173910021856427,0.17336707358919082
1783244273753622500,6.89262255859375,0.0634556963443756,0.016051701743155716,0.19773754473589358
1783244273763634400,6.902634521484375,0.1639683269292116,-0.005573708479106426,0.16997078221440315
1783244273773645300,6.912645263671875,0.2857224829852581,0.008299334050714969,0.1224583953352645
1783244273783657500,6.922657470703125,0.35163784744143484,0.03828004629462957,0.1187650572426617
1783244273793669400,6.93266943359375,0.36094577401280403,0.06429097812473773,0.11811568995583802
1783244273803681300,6.942681396484375,0.31177871526181694,0.06143003573566675,0.11083725991807877
1783244273813692400,6.9526923828125,0.19694646742343902,0.04265373133420944,0.1308107016822323
1783244273823704600,6.96270458984375,0.1002075101584196,0.07131488541215658,0.18139212074317038
1783244273833716500,6.972716552734375,0.0016389993786811827,0.06828077841326594,0.2048840189570561
1783244273843728600,6.982728759765625,-0.07095160505771636,0.05320683566108346,0.18058431149162352
1783244273853739500,6.992739501953125,-0.11096271292865276,0.07500336466655134,0.1414352638101205
1783244273863751400,7.00275146484375,-0.12504326072931288,0.058603287877142425,0.07787117518782616
1783244273873763600,7.012763671875,-0.13465630772709847,0.056741585658490655,0.026467881817370652
1783244273883774500,7.0227744140625,-0.19396832839548586,0.04985781749412417,0.013950455147586763
1783244273893786400,7.032786376953125,-0.2595318106740713,0.06670315383300185,-0.0036935938209295273
1783244273903798300,7.04279833984375,-0.32443419869542117,0.10923735044077038,-0.015880948286131024
1783244273913810400,7.052810546875,-0.33165012142360206,0.16418576907217503,-0.01887702482957393
1783244273923821600,7.062821533203125,-0.3266343390882015,0.1719585950307548,-0.0450479695269838
1783244273933833500,7.07283349609375,-0.28138065438866616,0.1751288956299424,-0.07297496411148459
1783244273943845600,7.082845703125,-0.20506781455874443,0.2022261613920331,-0.09175915955845267
1783244273953857500,7.092857421875,-0.08009703454375267,0.19240546299293637,-0.0841066720439121
1783244273963868400,7.102868408203125,0.04228372897803783,0.11422405281215905,-0.06666917849816381
1783244273973880600,7.112880615234375,0.1393459268480539,0.08774009664282202,-0.007144172666221857
1783244273983892500,7.122892578125,0.1581090795069933,0.11083908654898404,0.07448916806671768
1783244273993904400,7.132904296875,0.11901625552475452,0.11949147182106971,0.13398706669602542
1783244274003915500,7.14291552734375,-0.0017336919248104093,0.05702522490546107,0.1454579799875617
1783244274013927400,7.152927490234375,-0.11101239728927612,0.04042626454308629,0.10058175029829144
1783244274023939300,7.162939208984375,-0.216236274304986,0.09916676893383264,0.09190539962872862
1783244274033951500,7.172951416015625,-0.2597761408239603,0.11049407250359654,0.05934004118647426
1783244274043962400,7.18296240234375,-0.20561025087237356,0.08019201935082673,0.001719188475422561
1783244274053974300,7.192974365234375,-0.11461480569541453,0.059395168907195324,-0.026878143118694423
1783244274063986400,7.202986328125,-0.027547932139039038,0.07066036702618002,0.058921194719895716
1783244274073997600,7.21299755859375,0.06974339831173419,0.06674962332323194,0.12913688671849669
1783244274084009500,7.223009521484375,0.13205869244933127,0.055906888400018215,0.17751564463600517
1783244274094021600,7.233021728515625,0.13253332422375677,0.03290726721510291,0.220957274944894
1783244274104033500,7.243033447265625,0.0988783073812723,0.03131488345712423,0.2390415054289624
1783244274114044400,7.25304443359375,0.07359305947721004,0.05518208125680685,0.2600148084180429
1783244274124056300,7.263056396484375,0.019155951368808745,0.05877133792042732,0.23554153448399154
1783244274134068500,7.273068359375,-0.007941314393281936,0.05424421588480472,0.16225702949929982
1783244274144080400,7.283080322265625,-0.021810265269875524,0.06481982430443167,0.1102244983145967
1783244274154091300,7.29309130859375,-0.011077274331450462,0.08588263220787049,0.06431260543465614
1783244274164103400,7.303103515625,0.017651976546645163,0.09145648681744932,0.048743974500708276
1783244274174115300,7.313115234375,0.020125088661909103,0.09864347571209073,0.049924452989548444
1783244274184127200,7.323127197265625,0.07345628135502338,0.10585837552696466,0.09122085143066942
1783244274194138600,7.333138671875,0.08816285209953785,0.11613120160773396,0.1362781367752701
1783244274204150500,7.343150634765625,0.11404840398430824,0.11316183040812611,0.09702482500169425
1783244274214162400,7.353162353515625,0.12568623480796814,0.10449132495746016,0.0775177586402744
1783244274224174600,7.363174560546875,0.14014321470558644,0.07380670222789049,0.07034856113065034
1783244274234185500,7.373185546875,0.09182838886976241,0.019230477909743783,0.06281681391894817
1783244274244197400,7.383197265625,0.04970423436760902,0.04686258120089769,0.11018650439176708
1783244274254209500,7.39320947265625,-0.021001286974549293,0.09457812596932053,0.10639617219809443
1783244274264220400,7.403220458984375,-0.11082710385024547,0.08785100967139005,0.06395370899438858
1783244274274232300,7.413232421875,-0.20153788686692714,0.08304317099824547,0.0073200406897813075
1783244274284244500,7.423244384765625,-0.2914198178440332,0.055509267384558914,-0.045085817319341
1783244274294256400,7.43325634765625,-0.3481359768003225,0.017197656907886265,-0.104452454251796
1783244274304267500,7.443267578125,-0.3289695040374994,0.023167817358672616,-0.11277564410213381
1783244274314279700,7.45327978515625,-0.28339316325485703,0.06877002323493361,-0.0582885593721643
1783244274324291600,7.46329150390625,-0.20596505565941334,0.06327654038518667,-0.03422382970638573
1783244274334303500,7.473303466796875,-0.094652798640728,0.06700579004138708,-0.028321875653602183
1783244274344314400,7.483314453125,-0.011254968985915183,0.07973229288458823,0.005718669907748699
1783244274354326500,7.493326416015625,0.07054770043194293,0.09684665542319416,0.007849763652309775
1783244274364338400,7.50333837890625,0.10278583621382713,0.04266542177200317,0.0041748014666140075
1783244274374350600,7.5133505859375,0.10520458779335021,-0.034993133578449485,-0.03251059604771435
1783244274384361500,7.523361572265625,0.09137012370824814,-0.05753025181815028,-0.01186312747951597
1783244274394373400,7.533373291015625,0.001332125386595726,-0.025382424668222665,0.06404763435553759
1783244274404385500,7.543385498046875,-0.08709025443196296,-0.013787263942509889,0.15549951806310564
1783244274414396400,7.553396484375,-0.15903320861458778,-0.01287029522806406,0.20876966475136577
1783244274424408300,7.563408203125,-0.19044716853201388,-0.01357698219269514,0.1891584438957274
1783244274434420200,7.573420166015625,-0.20738076767623423,-0.004732727610319853,0.1658071597289294
1783244274444432400,7.583432373046875,-0.18414017734229562,-0.011987228783220052,0.12453648025095462
1783244274454443500,7.593443603515625,-0.12934417279362678,0.02565218152031302,0.06889836232233792
1783244274464455400,7.603455322265625,-0.07562193495631217,0.05323226236328482,0.024373978278040883
1783244274474467600,7.613467529296875,-0.03022270430624485,0.03842734581083059,-0.002830291522480547
1783244274484479500,7.6234794921875,0.0477139373332262,0.03740925480946898,0.020214630108885467
1783244274494490400,7.633490478515625,0.06774725605845451,0.05273556488752365,0.044254481061734255
1783244274504502500,7.64350244140625,0.05251227752566337,0.04869564184695482,0.0702490097463131
1783244274514514400,7.653514404296875,0.055638300591707227,0.06954612217396497,0.11329689149726181
1783244274524526300,7.6635263671875,0.07908814976215361,0.09186199887841939,0.09480495699513702
1783244274534537500,7.673537353515625,0.0499795441776514,0.08130860229060054,0.05916983571872115
1783244274544549400,7.68354931640625,0.0011719663888216018,0.09301803704574704,0.040172801238670945
1783244274554561300,7.693561279296875,-0.0646808542251587,0.11645575738698244,0.055283386206813154
1783244274564572400,7.703572509765625,-0.06772855135798454,0.15775602828562257,0.04876647859346121
1783244274574584600,7.71358447265625,-0.033993455016613,0.13950930071622133,0.005421002135425805
1783244274584596500,7.723596435546875,0.005357727640867233,0.08195859063193202,-0.026077092401497064
1783244274594608600,7.733608642578125,0.012754267632961272,0.04898921796604991,0.00405026177149266
1783244274604619500,7.74361962890625,-0.08237959252297877,0.036949089951813216,0.11657847045119851
1783244274614631400,7.75363134765625,-0.09683131172358989,0.1044733509093523,0.19984843594264237
1783244274624643600,7.7636435546875,-0.0592991611868143,0.11100275267809628,0.1450595917871222
1783244274634655500,7.773655517578125,-0.025900164932012557,0.0048475861616432666,0.061417249319329854
1783244274644666400,7.783666259765625,0.025534254229068756,0.013597440458834171,-0.028620493273995816
1783244274654677500,7.793677490234375,0.014523615393042564,0.08338204756379126,-0.08350004792027176
1783244274664689700,7.803689697265625,-0.04627542896270752,0.11627820886299013,-0.0509117835264653
1783244274674701600,7.81370166015625,-0.06201426536440849,0.10337006584256887,-0.021935170291177926
1783244274684712700,7.823712646484375,-0.10376841751039027,0.06620367987826466,-0.027057262545265255
1783244274694724600,7.833724609375,-0.09542495205700396,0.0552877335883677,0.018439327532052994
1783244274704736500,7.843736572265625,-0.07535597749650477,0.06070537472292781,0.06406761769764124
1783244274714747600,7.85374755859375,-0.04989654206931591,0.043617607930302615,0.08034454303141683
1783244274724759600,7.863759521484375,-0.0028659108251333234,0.04350815620645881,0.07112480620015413
1783244274734771500,7.873771484375,0.02053425398468971,0.04544014718234539,0.0656395431894809
1783244274744783600,7.88378369140625,0.036117023041844366,0.05530833798497915,0.0686491002690047
1783244274754794500,7.89379443359375,0.033623452660441394,0.025828999391943216,0.07455185803938656
1783244274764806400,7.903806396484375,0.026411621585488317,-0.0009922259077429771,0.06607727701961993
1783244274774818600,7.913818603515625,-0.027341011390089986,0.029838965685665606,0.06699399000573902
1783244274784830500,7.92383056640625,-0.0600268909394741,0.06865662598833441,0.07673895628750324
1783244274794841600,7.933841552734375,-0.08236731756329536,0.06544014815986156,0.06401921197865158
1783244274804853800,7.943853759765625,-0.09993220034837723,0.012038082187622786,0.043529856581613416
1783244274814865700,7.95386572265625,-0.080566405621171,0.027446663721650836,0.02558755531888455
1783244274824877600,7.963877685546875,-0.08178513376116753,0.06215922679305076,-0.028196787969209252
1783244274834888400,7.973888427734375,-0.061792731568217275,0.04461158740371465,-0.0505898215631023
1783244274844900600,7.983900634765625,-0.0390478157967329,0.07506883111819625,-0.024213636617176234
1783244274854912500,7.99391259765625,-0.03140519208908081,0.03205605721324682,-0.0006511208524927496
1783244274864923400,8.00392333984375,-0.005371756166219711,-0.015418518406152725,0.019039485382288692
1783244274874935600,8.013935546875,0.00530862780213356,-0.008298895659297704,0.04922675304897129
1783244274884947500,8.023947509765625,-0.02585164961516857,0.04770005493834614,0.08004022632259875
1783244274894959600,8.033959716796875,-0.01405892049074173,0.049937166340649125,0.07189239303916692
1783244274904970800,8.043970703125,-0.01736497629880905,0.016109423279762267,0.07403006265498698
1783244274914982700,8.053982666015624,-0.01450374164879322,0.011867840187251568,0.07998371036238967
1783244274924994600,8.06399462890625,0.01878711805641651,0.0450385806441307,0.13803981268554924
1783244274935006700,8.0740068359375,-0.016886837393045424,0.011103577816486358,0.19451595234088598
1783244274945017600,8.084017578125,-0.024245967984199524,-0.017829525070637463,0.22610055611748248
1783244274955029500,8.094029541015624,0.05986673194169998,0.046397594037652014,0.20090857598744333
1783244274965041700,8.104041748046875,0.1125292315930128,0.049886605197191236,0.16768720132187007
1783244274975053600,8.114053466796875,0.16114274811446666,-0.029648265419155356,0.07314717887323349
1783244274985064400,8.124064453125,0.16111118393242357,-0.06653890318199991,0.04297978495080024
1783244274995076600,8.13407666015625,0.058552726733684536,-0.04824965164512396,0.05668240281715989
1783244275005088500,8.144088623046875,-0.03486205454468727,-0.006361643986403941,0.07316255910545587
1783244275015099600,8.154099609375,-0.0871457840114832,0.04821180385276675,0.1306938703695312
1783244275025111600,8.164111572265625,-0.20188158573806284,0.0520230327039957,0.11529833098016679
1783244275035123700,8.174123779296876,-0.2978472205430269,0.04316226537823677,0.09251794203650206
1783244275045135600,8.184135498046874,-0.3340501683026552,0.05319894461557269,0.0830960702292621
1783244275055146500,8.194146484375,-0.3480740174800157,0.0476451098807156,0.05655048353318125
1783244275065158700,8.20415869140625,-0.2887368623703718,0.028388474616408345,0.02592792972177267
1783244275075170600,8.214170654296876,-0.20334815115928648,0.04910173842981457,0.004817227555997669
1783244275085182700,8.2241826171875,-0.11157762995660304,0.07003171373382211,-0.02676876446008682
1783244275095193600,8.234193603515624,-0.08184592403769493,0.05077040229439735,-0.01714826480820775
1783244275105205500,8.24420556640625,-0.07799450930655003,0.056039574868977066,0.000805434631370008
1783244275115217700,8.2542177734375,-0.1213525895178318,0.1298215810470283,0.037337650877982374
1783244275125228500,8.264228515625,-0.16921733349859713,0.14211539156138897,0.0524618259800598
1783244275135240400,8.274240478515624,-0.14093991804122924,0.10317951170653104,0.06397347314078361
1783244275145252400,8.28425244140625,-0.08972235650122165,0.08858370786011219,0.06043470455538481
1783244275155264500,8.294264404296875,0.031140988194942473,0.13617299590036272,0.024304383640550077
1783244275165275600,8.304275634765625,0.10731471181511879,0.13862228874862192,-0.017129852368682624
1783244275175287600,8.31428759765625,0.1727829170256853,0.13883973089158536,-0.009619184477627277
1783244275185299700,8.3242998046875,0.19169395372271536,0.1673531470619142,0.04200027239415794
1783244275195311600,8.3343115234375,0.17997253626883028,0.12273732187449932,0.20673826852161437
1783244275205322500,8.344322509765625,0.2480249127537012,0.0017881985910236835,0.32858083351347595
1783244275215334700,8.354334716796876,0.29434944155514237,0.008852291758358478,0.43404841962456703
1783244275225346600,8.3643466796875,0.14631635038256643,0.2033440595060587,0.4739220917861908
1783244275235357400,8.374357421875,-0.0748369220584631,0.20318565407395361,0.32166455131899563
1783244275245369600,8.38436962890625,-0.24138474408686159,-0.018775866010040044,0.11919398671183734
