time,seconds_elapsed,z,y,x
1783244287559138600,0.062138671875,0.028410304337739944,-0.14440174400806427,-0.1448397934436798
1783244287569149400,0.0721494140625,0.019404025748372078,-0.09655140340328217,-0.16661006212234497
1783244287579161300,0.082161376953125,0.020553629845380783,-0.032792236655950546,-0.12720051407814026
1783244287589173200,0.09217333984375,0.02774309739470482,0.04023243859410286,-0.05760971084237099
1783244287599184600,0.1021845703125,0.03403383493423462,0.0958380177617073,0.01065952517092228
1783244287609196500,0.112196533203125,0.037270642817020416,0.11323511600494385,0.06005823612213135
1783244287619208400,0.12220849609375,0.03464970365166664,0.08930797129869461,0.07927612960338593
1783244287629219600,0.132219482421875,0.026859959587454796,0.055400338023900986,0.06324416399002075
1783244287639231500,0.1422314453125,0.019466204568743706,0.031226351857185364,0.024189885705709457
1783244287649243400,0.152243408203125,0.016164682805538177,0.016605330631136894,-0.02369268611073494
1783244287659254800,0.1622548828125,0.019190996885299683,0.008118590340018272,-0.061645880341529846
1783244287669266700,0.1722666015625,0.01930125430226326,0.0016598920337855816,-0.07337337732315063
1783244287679277600,0.182277587890625,0.022513816133141518,-0.007655947003513575,-0.057469673454761505
1783244287689289700,0.192289794921875,0.017511600628495216,-0.009948663413524628,-0.02969423681497574
1783244287699301600,0.202301513671875,0.005862502846866846,0.00944425631314516,-0.0004402538761496544
1783244287709312800,0.212312744140625,-0.00622212328016758,0.02829517424106598,0.0168796144425869
1783244287719325000,0.222324951171875,-0.018701139837503433,0.04217694327235222,0.019279340282082558
1783244287729336800,0.2323369140625,-0.0318630114197731,0.05994661897420883,0.006824533920735121
1783244287739347700,0.24234765625,-0.03570904582738876,0.06433236598968506,-0.008448171429336071
1783244287749359600,0.252359619140625,-0.024944283068180084,0.05156676471233368,-0.02290593832731247
1783244287759371800,0.262371826171875,-0.010611067526042461,0.02944878302514553,-0.02829844132065773
1783244287769382700,0.272382568359375,0.000505765900015831,0.0027189019601792097,-0.028035322204232216
1783244287779394600,0.28239453125,0.003345244564116001,-0.015353371389210224,-0.02057362161576748
1783244287789405700,0.29240576171875,-0.0034396909177303314,-0.017615195363759995,-0.01022644154727459
1783244287799417900,0.30241796875,-0.006804062519222498,-0.007809169590473175,0.0006136889569461346
1783244287809429800,0.3124296875,-0.008016865700483322,0.01827089861035347,0.008753107860684395
1783244287819441000,0.32244091796875,-0.006031614728271961,0.03766689822077751,0.012069882825016975
1783244287829452800,0.332452880859375,-0.00018810667097568512,0.038592349737882614,0.013173498213291168
1783244287839464700,0.342464599609375,0.0014632580569013953,0.021669642999768257,0.006983421742916107
1783244287849475600,0.3524755859375,-0.002851595636457205,0.008799649775028229,-0.006963818799704313
1783244287859487700,0.36248779296875,-0.004280615132302046,-0.0013320506550371647,-0.017661765217781067
1783244287869498600,0.37249853515625,-0.004287539515644312,0.0007611940382048488,-0.025604110211133957
1783244287879510500,0.382510498046875,0.00019966764375567436,0.011527261696755886,-0.02415505237877369
1783244287889522700,0.392522705078125,0.002834332874044776,0.032794199883937836,-0.024320701137185097
1783244287899533800,0.402533935546875,0.004457245115190744,0.049000512808561325,-0.027042631059885025
1783244287909545700,0.412545654296875,0.0057763089425861835,0.03139542043209076,-0.020839329808950424
1783244287919558000,0.422557861328125,0.014411360025405884,-0.008244046941399574,-0.005057524424046278
1783244287929568800,0.43256884765625,0.019551262259483337,-0.023993980139493942,0.0014219461008906364
1783244287939580700,0.44258056640625,0.00866746250540018,-0.01387040689587593,-0.0022954000160098076
1783244287949592800,0.4525927734375,-0.011663908138871193,-0.013789711520075798,-0.01106678694486618
1783244287959603700,0.462603759765625,-0.02392738126218319,-0.012258409522473812,-0.015083087608218193
1783244287969615600,0.47261572265625,-0.02970830351114273,0.004970910958945751,-0.020814474672079086
1783244287979626800,0.482626708984375,-0.03267621248960495,0.03370071202516556,-0.031397487968206406
1783244287989639000,0.492638916015625,-0.030253268778324127,0.05182512104511261,-0.038725707679986954
1783244287999650800,0.50265087890625,-0.015019546262919903,0.027081482112407684,-0.033223945647478104
1783244288009661700,0.51266162109375,0.0024936676491051912,0.006123735103756189,-0.02550211176276207
1783244288019673900,0.522673828125,-0.003743324428796768,-0.003127626609057188,-0.02369934320449829
1783244288029685800,0.532685791015625,-0.015470020473003387,-0.011017773300409317,-0.02068384550511837
1783244288039696600,0.542696533203125,-0.024389494210481644,-0.021350516006350517,-0.015884358435869217
1783244288049708800,0.552708740234375,-0.023360982537269592,-0.02450689487159252,-0.010503174737095833
1783244288059720700,0.562720703125,-0.02754921093583107,-0.015545264817774296,-0.004303689580410719
1783244288069731800,0.57273193359375,-0.033774618059396744,0.010073279961943626,0.0016982764936983585
1783244288079743700,0.58274365234375,-0.03227788582444191,0.051168009638786316,0.0035118581727147102
1783244288089755000,0.5927548828125,-0.01862279511988163,0.04108022153377533,0.012941047549247742
1783244288099766800,0.602766845703125,-0.003653926309198141,-0.002104928018525243,0.02385321818292141
1783244288109778700,0.61277880859375,-0.002401175443083048,-0.028096048161387444,0.029590198770165443
1783244288119789800,0.622789794921875,-0.011781776323914528,-0.05043812096118927,0.03695012629032135
1783244288129801700,0.6328017578125,-0.016879865899682045,-0.056484829634428024,0.04461070895195007
1783244288139813600,0.642813720703125,-0.016109028831124306,-0.018669554963707924,0.047664038836956024
1783244288149824500,0.652824462890625,-0.011829329654574394,0.02834242768585682,0.04316036403179169
1783244288159836700,0.662836669921875,-0.005526551976799965,0.06570702791213989,0.026542063802480698
1783244288169847800,0.672847900390625,0.00650907214730978,0.10138273239135742,-0.007280081510543823
1783244288179859700,0.682859619140625,0.02153777703642845,0.09606815129518509,-0.040700651705265045
1783244288189871900,0.692871826171875,0.04696723818778992,0.026963118463754654,-0.05425481125712395
1783244288199882800,0.7028828125,0.07498753815889359,-0.031807269901037216,-0.05243506282567978
1783244288209894700,0.712894775390625,0.08227048069238663,-0.050806526094675064,-0.03948304429650307
1783244288219906800,0.72290673828125,0.06657099723815918,-0.06071919575333595,-0.011245960369706154
1783244288229917700,0.732917724609375,0.047268930822610855,-0.051705460995435715,0.025316845625638962
1783244288239929600,0.7429296875,0.02207023650407791,-0.020907258614897728,0.059298448264598846
1783244288249940700,0.752940673828125,-0.0017179185524582863,0.01583903841674328,0.07711312919855118
1783244288259953000,0.762952880859375,-0.018870752304792404,0.04249495640397072,0.07635378837585449
1783244288269964800,0.77296484375,-0.017716005444526672,0.03969863802194595,0.05975031107664108
1783244288279975700,0.7829755859375,-0.007185058668255806,0.013743571937084198,0.03636552020907402
1783244288289987800,0.79298779296875,0.0031405494082719088,-0.013736255466938019,0.011249510571360588
1783244288299999700,0.802999755859375,0.012648363597691059,-0.03928724303841591,-0.004294473212212324
1783244288310010600,0.8130107421875,0.008358011022210121,-0.0694480761885643,-0.00017669331282377243
1783244288320022800,0.823022705078125,-0.0031718164682388306,-0.08019135892391205,0.017325956374406815
1783244288330034700,0.83303466796875,-0.01863785833120346,-0.06288400292396545,0.039838988333940506
1783244288340045600,0.843045654296875,-0.03247800096869469,-0.02973417565226555,0.06143895536661148
1783244288350057700,0.8530576171875,-0.03904322534799576,0.011955213733017445,0.06795650720596313
1783244288360068900,0.86306884765625,-0.03745388239622116,0.03868480026721954,0.05615474283695221
1783244288370080800,0.873080810546875,-0.03101728856563568,0.03264368698000908,0.034463029354810715
1783244288380092700,0.8830927734375,-0.022165004163980484,0.023083824664354324,0.005253920331597328
1783244288390103800,0.893103759765625,-0.006248088553547859,0.017139649018645287,-0.03143218904733658
1783244288400115700,0.90311572265625,0.006702023558318615,-0.006012937054038048,-0.05362764000892639
1783244288410127600,0.913127685546875,0.017748283222317696,-0.02696216106414795,-0.05951348692178726
1783244288420138800,0.923138671875,0.025043655186891556,-0.034230250865221024,-0.04813240468502045
1783244288430150700,0.933150634765625,0.026644214987754822,-0.019325606524944305,-0.030555279925465584
1783244288440161800,0.943161865234375,0.02108483389019966,0.009740100242197514,-0.016916939988732338
1783244288450173700,0.953173583984375,0.016469310969114304,0.02821737714111805,-0.006418226286768913
1783244288460185900,0.963185791015625,0.020118633285164833,0.033042654395103455,-0.007174192927777767
1783244288470196700,0.97319677734375,0.023136259987950325,0.03402536362409592,-0.015400165691971779
1783244288480208600,0.983208740234375,0.03277082368731499,0.021823793649673462,-0.03078521601855755
1783244288490220800,0.993220703125,0.0435347855091095,-0.02091088518500328,-0.03728652372956276
1783244288500231700,1.003231689453125,0.05192618817090988,-0.0578169971704483,-0.02752307802438736
1783244288510243600,1.01324365234375,0.050737351179122925,-0.05481188744306564,-0.016228878870606422
1783244288520254700,1.023254638671875,0.04086451977491379,-0.029217325150966644,-0.0029804385267198086
1783244288530267000,1.033266845703125,0.0287197083234787,0.00023164274170994759,0.0063624633476138115
1783244288540278800,1.04327880859375,0.01885460875928402,0.019633270800113678,0.00934389978647232
1783244288550289700,1.05328955078125,0.00847733486443758,0.031283002346754074,-0.00002962769940495491
1783244288560301800,1.0633017578125,0.0037814504466950893,0.03704823926091194,-0.016666937619447708
1783244288570313700,1.073313720703125,0.011587441898882389,0.015836691483855247,-0.029590725898742676
1783244288580324600,1.08332470703125,0.029144421219825745,-0.018170448020100594,-0.03192828968167305
1783244288590336800,1.093336669921875,0.040575508028268814,-0.03079090267419815,-0.029969535768032074
1783244288600347600,1.10334765625,0.04065411165356636,-0.02623676508665085,-0.024364514276385307
1783244288610359600,1.113359619140625,0.03361910209059715,-0.03468058630824089,-0.014604827389121056
1783244288620371700,1.123371826171875,0.027694307267665863,-0.029174407944083214,-0.006964571308344603
1783244288630382800,1.1333828125,0.014118577353656292,-0.007422774098813534,-0.0030302833765745163
1783244288640394800,1.143394775390625,-0.000995897687971592,0.013952706940472126,-0.007326910272240639
1783244288650407000,1.153406982421875,-0.010123349726200104,0.027997417375445366,-0.01580694690346718
1783244288660417000,1.1634169921875,-0.01592261530458927,0.0073880404233932495,-0.017562799155712128
1783244288670429000,1.173428955078125,-0.01850934326648712,-0.022669726982712746,-0.01897400990128517
1783244288680441000,1.183441162109375,-0.024624625220894814,-0.026785336434841156,-0.018466968089342117
1783244288690452200,1.1934521484375,-0.026876326650381088,-0.022915763780474663,-0.01686694100499153
1783244288700464000,1.203464111328125,-0.021890923380851746,-0.023986881598830223,-0.011936117894947529
1783244288710475000,1.21347509765625,-0.015817850828170776,-0.005993233993649483,-0.013371827080845833
1783244288720487200,1.223487060546875,-0.021163340657949448,0.015802180394530296,-0.028192956000566483
1783244288730499000,1.2334990234375,-0.031239144504070282,0.020374827086925507,-0.04904071241617203
1783244288740510000,1.243510009765625,-0.035755954682826996,0.00621816236525774,-0.06587791442871094
1783244288750522000,1.253522216796875,-0.027554750442504883,-0.005261126905679703,-0.06922763586044312
1783244288760534000,1.263533935546875,-0.014529542997479439,-0.010088872164487839,-0.061222996562719345
1783244288770545000,1.273544921875,-0.0000033311080187559128,-0.016944915056228638,-0.041426125913858414
1783244288780557000,1.28355712890625,0.011989434249699116,-0.024107936769723892,-0.014897137880325317
1783244288790568200,1.293568115234375,0.0177029799669981,-0.019321169704198837,0.007905380800366402
1783244288800580000,1.303580078125,0.01842840015888214,-0.006564552895724773,0.01884477213025093
1783244288810592300,1.31359228515625,0.0143313929438591,0.00904263649135828,0.01600877195596695
1783244288820603100,1.32360302734375,0.010184216313064098,0.030716732144355774,-0.0003411266952753067
1783244288830615000,1.333614990234375,0.011745894327759743,0.04068893939256668,-0.02088049054145813
1783244288840627000,1.343626953125,0.021214980632066727,0.03148109093308449,-0.04171309620141983
1783244288850638000,1.35363818359375,0.027840925380587578,0.02258267067372799,-0.055106665939092636
1783244288860650000,1.36364990234375,0.03474883362650871,0.017368977889418602,-0.05926251411437988
1783244288870661000,1.3736611328125,0.0429239384829998,0.014778520911931992,-0.05554234981536865
1783244288880673300,1.38367333984375,0.04897070676088333,-0.01164438296109438,-0.038466598838567734
1783244288890685200,1.393685302734375,0.04740104079246521,-0.0423881821334362,-0.016327742487192154
1783244288900696000,1.403696044921875,0.03288622945547104,-0.04293596372008324,0.00298840319737792
1783244288910708000,1.4137080078125,0.015661703422665596,-0.019034355878829956,0.015259716659784317
1783244288920719000,1.423718994140625,0.0034179019276052713,0.005133556202054024,0.02086140587925911
1783244288930731000,1.43373095703125,0.0006538070738315582,0.02082223817706108,0.009272394701838493
1783244288940743000,1.443742919921875,0.002510583959519863,0.029150526970624924,-0.010672859847545624
1783244288950754000,1.453754150390625,0.006907463073730469,0.012691923417150974,-0.032757654786109924
1783244288960766000,1.463765869140625,0.011327176354825497,-0.031852394342422485,-0.05214652046561241
1783244288970778000,1.473778076171875,0.009645656682550907,-0.05575426295399666,-0.05754102021455765
1783244288980789000,1.4837890625,0.0053260778076946735,-0.05122314393520355,-0.05244986712932587
1783244288990801200,1.49380126953125,-0.006084768567234278,-0.029038211330771446,-0.038123391568660736
1783244289000812000,1.50381201171875,-0.024675510823726654,-0.003727208822965622,-0.017764654010534286
1783244289010824000,1.513823974609375,-0.04539250582456589,0.018986625596880913,-0.0040645538829267025
1783244289020836000,1.523836181640625,-0.059576667845249176,0.03707725554704666,-0.0006171367131173611
1783244289030847000,1.533846923828125,-0.06515225768089294,0.03887169435620308,-0.008988517336547375
1783244289040859000,1.54385888671875,-0.063738152384758,0.018811408430337906,-0.021794825792312622
1783244289050871000,1.55387109375,-0.055731628090143204,0.00008459365926682949,-0.037705618888139725
1783244289060882200,1.563882080078125,-0.047418516129255295,-0.004465342033654451,-0.0489085428416729
1783244289070894000,1.57389404296875,-0.03422867879271507,0.006183307617902756,-0.05528734624385834
1783244289080905000,1.583905029296875,-0.019520185887813568,0.011272469535470009,-0.052346281707286835
1783244289090917000,1.593917236328125,-0.007872851565480232,0.01616469770669937,-0.04252507910132408
1783244289100929000,1.603928955078125,0.0001325004268437624,0.01800532639026642,-0.03514770790934563
1783244289110940000,1.61393994140625,0.007749407552182674,0.01386890560388565,-0.025616254657506943
1783244289120952000,1.6239521484375,0.011960851028561592,0.008841654285788536,-0.020599130541086197
1783244289130964000,1.6339638671875,0.014401638880372047,0.009147917851805687,-0.017637694254517555
1783244289140975000,1.64397509765625,0.01448262482881546,0.011125211603939533,-0.020036807283759117
1783244289150987300,1.6539873046875,0.014767849817872047,0.014915688894689083,-0.02089141681790352
1783244289160998100,1.663998046875,0.01782551407814026,0.019922524690628052,-0.02207290567457676
1783244289171010000,1.674010009765625,0.026102885603904724,0.017212223261594772,-0.01984863355755806
1783244289181022200,1.684022216796875,0.029159443452954292,0.02104048803448677,-0.017482919618487358
1783244289191033000,1.694033203125,0.022381965070962906,0.047409508377313614,-0.01688504032790661
1783244289201045000,1.704044921875,0.02000797539949417,0.05343601107597351,-0.023749100044369698
1783244289211057000,1.714056884765625,0.0187379140406847,0.056763894855976105,-0.035953037440776825
1783244289221068000,1.724068115234375,0.017219342291355133,0.04960346594452858,-0.055590398609638214
1783244289231080000,1.734079833984375,0.021448973566293716,0.035623203963041306,-0.08825194090604782
1783244289241091000,1.744091064453125,0.02990853786468506,0.025930508971214294,-0.11640249937772751
1783244289251103200,1.754103271484375,0.024508710950613022,0.021526705473661423,-0.12588495016098022
1783244289261115100,1.764115234375,0.012261807918548584,0.018180347979068756,-0.10965048521757126
1783244289271126000,1.7741259765625,0.013319350779056549,0.014309444464743137,-0.07662489265203476
1783244289281138000,1.784137939453125,0.017389923334121704,0.007055236492305994,-0.04217742010951042
1783244289291150000,1.794150146484375,0.019680242985486984,0.008652600459754467,-0.016127178445458412
1783244289301161000,1.804160888671875,0.010238271206617355,0.005718329455703497,0.004807398188859224
1783244289311172900,1.8141728515625,0.0006181346252560616,-0.022150587290525436,0.02359333634376526
1783244289321184300,1.824184326171875,-0.010286711156368256,-0.04709535092115402,0.034875284880399704
1783244289331196200,1.834196044921875,-0.02373167872428894,-0.049274347722530365,0.043012309819459915
1783244289341208000,1.8442080078125,-0.039227649569511414,-0.035959117114543915,0.049754947423934937
1783244289351219200,1.85421923828125,-0.05026858299970627,-0.013858609832823277,0.054436780512332916
1783244289361231000,1.864231201171875,-0.05537348985671997,0.006849480792880058,0.058886777609586716
1783244289371242000,1.874241943359375,-0.05613941326737404,0.018826249986886978,0.0606580413877964
1783244289381254000,1.88425390625,-0.049092430621385574,0.009149279445409775,0.05734490975737572
1783244289391266000,1.89426611328125,-0.040188152343034744,-0.009467015042901039,0.04642141982913017
1783244289401277200,1.904277099609375,-0.03478400409221649,-0.018214520066976547,0.03081219084560871
1783244289411289000,1.9142890625,-0.03187450021505356,-0.021526958793401718,0.013577545061707497
1783244289421301200,1.92430126953125,-0.02317427285015583,-0.015055018477141857,0.0023454702459275723
1783244289431312100,1.93431201171875,-0.01294560357928276,0.0018821529811248183,-0.00643710233271122
1783244289441324000,1.944323974609375,-0.009781714528799057,0.024842936545610428,-0.007531201932579279
1783244289451335000,1.9543349609375,-0.006317740306258202,0.04068847745656967,-0.005418516229838133
1783244289461347000,1.96434716796875,0.0009160400368273258,0.04446595162153244,-0.00715307891368866
1783244289471359000,1.97435888671875,0.005381894763559103,0.04510430991649628,-0.008211951702833176
1783244289481369900,1.984369873046875,0.011430248618125916,0.03753877058625221,-0.010338990017771721
1783244289491382000,1.994382080078125,0.01735658012330532,0.01712483912706375,-0.010167749598622322
1783244289501394000,2.004393798828125,0.027482161298394203,0.0023452972527593374,-0.0035552815534174442
1783244289511405000,2.014405029296875,0.036757148802280426,-0.0039288438856601715,0.004041651729494333
1783244289521417200,2.024417236328125,0.04609791561961174,-0.0040788911283016205,0.012390493415296078
1783244289531428000,2.034427978515625,0.05290921777486801,-0.0005033309571444988,0.01712692528963089
1783244289541440000,2.04443994140625,0.059298075735569,0.00006868969649076462,0.020134706050157547
1783244289551452200,2.0544521484375,0.059081561863422394,-0.0010809970553964376,0.020435111597180367
1783244289561463000,2.064463134765625,0.05850658938288689,0.004040369763970375,0.0139510128647089
1783244289571475000,2.074474853515625,0.059700220823287964,0.02379942685365677,0.0019526728428900242
1783244289581486000,2.084486083984375,0.05908721312880516,0.033403657376766205,-0.01376617606729269
1783244289591498200,2.094498291015625,0.06527000665664673,0.026077304035425186,-0.027803698554635048
1783244289601510100,2.10451025390625,0.07418593764305115,0.016743432730436325,-0.039444368332624435
1783244289611521000,2.11452099609375,0.08705726265907288,0.004478244576603174,-0.0443405881524086
1783244289621533200,2.124533203125,0.09103875607252121,-0.010075373575091362,-0.04612305015325546
1783244289631545000,2.134545166015625,0.0847901850938797,-0.0023255753330886364,-0.05332770198583603
1783244289641556000,2.144555908203125,0.07382406294345856,0.032634854316711426,-0.06211300194263458
1783244289651568000,2.154568115234375,0.062391649931669235,0.05788242444396019,-0.0663365051150322
1783244289661579500,2.16457958984375,0.0636400505900383,0.08062466233968735,-0.0720246434211731
1783244289671591400,2.17459130859375,0.06190340220928192,0.06858929991722107,-0.06922353059053421
1783244289681603600,2.184603515625,0.05647289752960205,0.03165943920612335,-0.0637248232960701
1783244289691614700,2.19461474609375,0.044407445937395096,0.009350672364234924,-0.058843787759542465
1783244289701626600,2.204626708984375,0.02351265959441662,0.012429436668753624,-0.052440095692873
1783244289711638800,2.214638671875,0.004760810174047947,0.04304113984107971,-0.04360133036971092
1783244289721649700,2.224649658203125,-0.005402418784797192,0.07908609509468079,-0.02935677208006382
1783244289731661600,2.23466162109375,-0.0055928342044353485,0.08430828154087067,-0.009039515629410744
1783244289741672400,2.24467236328125,0.0008158027194440365,0.06483349204063416,0.01161772571504116
1783244289751684600,2.2546845703125,0.0017550996271893382,0.04505553096532822,0.020171266049146652
1783244289761696500,2.264696533203125,0.003270267741754651,0.02216346561908722,0.015529699623584747
1783244289771707600,2.274707763671875,0.009236814454197884,0.015315414406359196,0.004641097970306873
1783244289781719800,2.2847197265625,0.024528944864869118,0.019058382138609886,-0.0033384282141923904
1783244289791731700,2.294731689453125,0.04386988282203674,0.01937077008187771,-0.005941401701420546
1783244289801742600,2.30474267578125,0.05777933448553085,0.017877165228128433,-0.007467000745236874
1783244289811754800,2.314754638671875,0.056656014174222946,0.024142250418663025,-0.007774329744279385
1783244289821765600,2.324765625,0.04852357879281044,0.028040237724781036,-0.009206749498844147
1783244289831777500,2.334777587890625,0.035796597599983215,0.033157236874103546,-0.012269651517271996
1783244289841789400,2.34478955078125,0.027273988351225853,0.03363741934299469,-0.010398820973932743
1783244289851800600,2.354800537109375,0.025822298601269722,0.022290488705039024,-0.002216258319094777
1783244289861812500,2.3648125,0.031181298196315765,0.010868855752050877,0.00773748941719532
1783244289871823600,2.37482373046875,0.03060019388794899,0.008707700297236443,0.013097100891172886
1783244289881835800,2.384835693359375,0.022408917546272278,0.014558693394064903,0.010622143745422363
1783244289891847700,2.39484765625,0.012785851024091244,0.023116759955883026,0.005239896010607481
1783244289901858600,2.404858642578125,0.0006852762307971716,0.02966202422976494,-0.004952521529048681
1783244289911870700,2.41487060546875,-0.005778748542070389,0.022861909121274948,-0.012854387052357197
1783244289921882600,2.424882568359375,-0.004923824220895767,0.012444118969142437,-0.016668807715177536
1783244289931893500,2.4348935546875,-0.0038111554458737373,-0.00461049797013402,-0.015199008397758007
1783244289941905400,2.444905517578125,-0.010721543803811073,-0.012467416934669018,-0.004025416914373636
1783244289951916800,2.454916748046875,-0.017165860161185265,-0.009548592381179333,0.013485932722687721
1783244289961928700,2.4649287109375,-0.02104661986231804,-0.013035469688475132,0.031000742688775063
1783244289971940600,2.474940673828125,-0.024442682042717934,-0.02581438049674034,0.04205978661775589
1783244289981951700,2.48495166015625,-0.03271067142486572,-0.03337091580033302,0.045197080820798874
1783244289991963600,2.494963623046875,-0.052695829421281815,-0.022922538220882416,0.03349195793271065
1783244290001974500,2.504974609375,-0.08816519379615784,0.020116999745368958,0.01647070236504078
1783244290011986400,2.514986328125,-0.1238773837685585,0.06371694058179855,0.0013482091017067432
1783244290021998600,2.52499853515625,-0.1577645093202591,0.0859721302986145,0.00019166572019457817
1783244290032009700,2.535009765625,-0.18774743378162384,0.10114975273609161,0.012582821771502495
1783244290042021600,2.545021728515625,-0.2056996375322342,0.10577791184186935,0.028893765062093735
1783244290052033500,2.555033447265625,-0.21235115826129913,0.09635458141565323,0.051051266491413116
1783244290062044700,2.565044677734375,-0.2033529132604599,0.08031530678272247,0.07301662862300873
1783244290072056600,2.575056640625,-0.18913614749908447,0.06573610007762909,0.09080468118190765
1783244290082067500,2.5850673828125,-0.17272470891475677,0.06428737938404083,0.09260357916355133
1783244290092079600,2.59507958984375,-0.15946216881275177,0.08519133180379868,0.0705384910106659
1783244290102091500,2.605091552734375,-0.14536628127098083,0.10309600085020065,0.047606296837329865
1783244290112102400,2.615102294921875,-0.13069865107536316,0.10119210928678513,0.031313344836235046
1783244290122114600,2.625114501953125,-0.11787793040275574,0.08565501123666763,0.030788369476795197
1783244290132125700,2.635125732421875,-0.10860826820135117,0.0624048076570034,0.042159803211688995
1783244290142137600,2.6451376953125,-0.10530108213424683,0.06489777565002441,0.05165376514196396
1783244290152149800,2.655149658203125,-0.09973640739917755,0.11073583364486694,0.04355882108211517
1783244290162160600,2.66516064453125,-0.10398493707180023,0.18807879090309143,0.024371884763240814
1783244290172172500,2.675172607421875,-0.12172531336545944,0.29781433939933777,0.012346381321549416
1783244290182184700,2.685184814453125,-0.099238321185112,0.31159281730651855,-0.0025272585917264223
1783244290192195600,2.695195556640625,-0.05667807534337044,0.26721683144569397,-0.012846741825342178
1783244290202207500,2.70520751953125,-0.015336312353610992,0.18212883174419403,-0.028790012001991272
1783244290212218600,2.715218505859375,0.014113189652562141,0.08656050264835358,-0.035671353340148926
1783244290222230800,2.725230712890625,0.037635982036590576,0.03044222481548786,-0.024779146537184715
1783244290232242700,2.73524267578125,0.06357730180025101,0.026605941355228424,-0.008575674146413803
1783244290242253600,2.745253662109375,0.08332183212041855,0.0583777129650116,0.009773792698979378
1783244290252265700,2.755265625,0.08523557335138321,0.09674747288227081,0.02199583686888218
1783244290262276600,2.765276611328125,0.0856790542602539,0.09627894312143326,0.03260863199830055
1783244290272288500,2.77528857421875,0.09120671451091766,0.05932332202792168,0.04105377942323685
1783244290282300700,2.78530078125,0.1030803844332695,0.015444534830749035,0.044214919209480286
1783244290292311600,2.7953115234375,0.11845667660236359,-0.023030687123537064,0.04303833469748497
1783244290302323500,2.805323486328125,0.13050691783428192,-0.025227699428796768,0.04069868475198746
1783244290312335600,2.815335693359375,0.1423100382089615,-0.0022992161102592945,0.03264714777469635
1783244290322346800,2.8253466796875,0.1498275101184845,0.003316174726933241,0.03576825186610222
1783244290332358700,2.835358642578125,0.1437256783246994,0.006734874099493027,0.03986792266368866
1783244290342369500,2.84536962890625,0.13200050592422485,0.020786859095096588,0.04253951460123062
1783244290352381700,2.855381591796875,0.12255294620990753,0.020875543355941772,0.04312540963292122
1783244290362393600,2.8653935546875,0.12162169814109802,0.025539878755807877,0.037675440311431885
1783244290372404500,2.875404541015625,0.12481855601072311,0.03646816313266754,0.03198053687810898
1783244290382416400,2.88541650390625,0.1250244826078415,0.04682719707489014,0.022521689534187317
1783244290392427800,2.895427734375,0.13163365423679352,0.061689767986536026,0.014013954438269138
1783244290402439700,2.905439697265625,0.14140675961971283,0.07790393382310867,0.005528808571398258
1783244290412451600,2.91545166015625,0.14904363453388214,0.06974826753139496,0.0031005386263132095
1783244290422462700,2.925462646484375,0.15863405168056488,0.037086278200149536,0.0107564777135849
1783244290432474600,2.935474609375,0.16669915616512299,-0.004812168888747692,0.026141293346881866
1783244290442485500,2.945485595703125,0.16930976510047913,-0.03350462019443512,0.045976366847753525
1783244290452497400,2.955497314453125,0.16668841242790222,-0.043028347194194794,0.061210181564092636
1783244290462509600,2.965509521484375,0.15943418443202972,-0.023529712110757828,0.06462645530700684
1783244290472520700,2.975520751953125,0.14382752776145935,0.01953919418156147,0.04954710975289345
1783244290482532600,2.98553271484375,0.12821371853351593,0.052263591438531876,0.027193555608391762
1783244290492544800,2.995544677734375,0.11918187886476517,0.06321557611227036,0.008818808943033218
1783244290502555600,3.0055556640625,0.11941863596439362,0.055058691650629044,-0.007203666493296623
1783244290512567600,3.015567626953125,0.12605176866054535,0.0370866134762764,-0.014107379131019115
1783244290522578700,3.02557861328125,0.12924838066101074,0.024296322837471962,-0.015458157286047935
1783244290532590600,3.035590576171875,0.12345732748508453,0.005706126801669598,-0.011222399771213531
1783244290542602500,3.0456025390625,0.10969820618629456,-0.008000284433364868,0.0009606406092643738
1783244290552613400,3.05561328125,0.09050559997558594,-0.01021124143153429,0.01640990562736988
1783244290562625500,3.06562548828125,0.07046777009963989,0.011430326849222183,0.030384406447410583
1783244290572636700,3.07563671875,0.05812268704175949,0.02640181966125965,0.03998802974820137
1783244290582648600,3.085648681640625,0.04618506878614426,0.03263905644416809,0.042788516730070114
1783244290592660700,3.09566064453125,0.03982917219400406,0.02643042802810669,0.03422219306230545
1783244290602671600,3.105671630859375,0.030706942081451416,0.010522796772420406,0.018462451174855232
1783244290612683500,3.11568359375,0.021391738206148148,-0.007849552668631077,0.006373298820108175
1783244290622695700,3.12569580078125,0.012658916413784027,-0.010234908200800419,-0.0025784082245081663
1783244290632706600,3.13570654296875,-0.0005623470060527325,0.0018891331274062395,0.0004634545184671879
1783244290642718500,3.145718505859375,-0.013805819675326347,0.030040839686989784,0.009705472737550735
1783244290652729600,3.1557294921875,-0.025630787014961243,0.060252536088228226,0.022141635417938232
1783244290662742000,3.165741943359375,-0.034930091351270676,0.08245760202407837,0.022773627191781998
1783244290672754000,3.17575390625,-0.03178569674491882,0.08779776841402054,0.01773412525653839
1783244290682764800,3.185764892578125,-0.012840712442994118,0.06549707055091858,0.015613910742104053
1783244290692777000,3.19577685546875,0.02126905508339405,0.02318449690937996,0.014556369744241238
1783244290702787800,3.205787841796875,0.05515937879681587,-0.0033128901850432158,0.013686581514775753
1783244290712799700,3.2157998046875,0.08358249068260193,-0.024916186928749084,0.016631238162517548
1783244290722811600,3.225811767578125,0.10443925857543945,-0.03980109095573425,0.0218195840716362
1783244290732822800,3.23582275390625,0.11131660640239716,-0.0275657307356596,0.024600723758339882
1783244290742834700,3.245834716796875,0.11000470817089081,-0.009517657570540905,0.02685548923909664
1783244290752845800,3.255845703125,0.10438117384910583,-0.001623515272513032,0.03256583958864212
1783244290762858000,3.26585791015625,0.10222645103931427,0.007859863340854645,0.0272383876144886
1783244290772870000,3.275869873046875,0.10107196867465973,0.012249818071722984,0.0198981836438179
1783244290782880800,3.285880859375,0.100959412753582,-0.003486342029646039,0.015068325214087963
1783244290792892700,3.295892578125,0.10033756494522095,-0.02032524347305298,0.014100798405706882
1783244290802904800,3.30590478515625,0.10413411259651184,-0.02891385741531849,0.019076287746429443
1783244290812915700,3.315915771484375,0.1036539375782013,-0.017353609204292297,0.021920807659626007
1783244290822927600,3.325927734375,0.10245679318904877,0.0020855278708040714,0.017713088542222977
1783244290832939000,3.33593896484375,0.09847111254930496,0.009288047440350056,0.009512415155768394
1783244290842951000,3.345950927734375,0.08859957009553909,0.007968983612954617,-0.0005769701674580574
1783244290852962800,3.355962890625,0.07667553424835205,0.0037494711577892303,-0.013217397965490818
1783244290862973700,3.3659736328125,0.06543567031621933,-0.007724647410213947,-0.01964237168431282
1783244290872985900,3.37598583984375,0.05662539601325989,-0.012262674048542976,-0.02374124340713024
1783244290882996700,3.385996826171875,0.051527880132198334,0.007912647910416126,-0.021697841584682465
1783244290893008600,3.396008544921875,0.0454271100461483,0.030074141919612885,-0.018266092985868454
1783244290903020800,3.406020751953125,0.034924425184726715,0.03997461870312691,-0.013945774175226688
1783244290913032000,3.416031982421875,0.013882521539926529,0.04949062317609787,-0.01710721291601658
1783244290923043800,3.4260439453125,-0.001057126559317112,0.04341116547584534,-0.02259734272956848
1783244290933055000,3.436054931640625,-0.008727030828595161,0.01977641135454178,-0.02535584568977356
1783244290943067000,3.44606689453125,-0.014964419417083263,0.0032245973125100136,-0.0241536945104599
1783244290953078800,3.456078857421875,-0.017244353890419006,0.0034608198329806328,-0.017305906862020493
1783244290963089700,3.466089599609375,-0.024064138531684875,0.007858510129153728,-0.0032969231251627207
1783244290973101800,3.476101806640625,-0.03426724299788475,0.014229057356715202,0.009280120953917503
1783244290983112700,3.48611279296875,-0.0421924814581871,0.014046283438801765,0.02001515030860901
1783244290993124600,3.49612451171875,-0.052182529121637344,0.014702219516038895,0.023908160626888275
1783244291003136800,3.50613671875,-0.05447624623775482,0.005433383397758007,0.027153216302394867
1783244291013148000,3.51614794921875,-0.052203238010406494,-0.010410028509795666,0.02421628311276436
1783244291023159800,3.526159912109375,-0.04532909765839577,-0.013725885190069675,0.021617233753204346
1783244291033172000,3.536171875,-0.04274529591202736,0.007929076440632343,0.016033653169870377
1783244291043182800,3.546182861328125,-0.03625831753015518,0.029229646548628807,0.003950017970055342
1783244291053194800,3.55619482421875,-0.02837136760354042,0.03839944303035736,-0.003791791619732976
1783244291063205600,3.56620556640625,-0.014290053397417068,0.03350960835814476,-0.0067201824858784676
1783244291073217800,3.5762177734375,-0.0016608107835054398,0.006799167953431606,-0.0018687015399336815
1783244291083229700,3.586229736328125,0.010860094800591469,-0.027885500341653824,0.008513025939464569
1783244291093240800,3.59624072265625,0.021965477615594864,-0.05054634064435959,0.019926536828279495
1783244291103253000,3.6062529296875,0.03128563240170479,-0.05296250805258751,0.03289387747645378
1783244291113263900,3.616263916015625,0.039688438177108765,-0.03330438584089279,0.03614693135023117
1783244291123275800,3.62627587890625,0.04080396890640259,0.0025638386141508818,0.02934681996703148
1783244291133288000,3.636287841796875,0.04016507789492607,0.018664512783288956,0.011797921732068062
1783244291143298800,3.646298828125,0.035739198327064514,0.024234270676970482,-0.01596921868622303
1783244291153310700,3.656310791015625,0.026180846616625786,0.026598092168569565,-0.04400884360074997
1783244291163321900,3.66632177734375,0.026058444753289223,0.010587738826870918,-0.06466410309076309
1783244291173333800,3.676333740234375,0.025755643844604492,-0.012981235980987549,-0.06857389211654663
1783244291183346000,3.686345947265625,0.023942982777953148,-0.022570477798581123,-0.05686665698885918
1783244291193356800,3.696356689453125,0.01950082927942276,-0.02394227311015129,-0.0387776680290699
1783244291203369000,3.706368896484375,0.004587867297232151,-0.02855798229575157,-0.017393380403518677
1783244291213379800,3.7163798828125,-0.015255879610776901,-0.028455451130867004,0.0020042862743139267
1783244291223391700,3.726391845703125,-0.033139362931251526,-0.03332006186246872,0.020632952451705933
1783244291233404000,3.73640380859375,-0.04593691974878311,-0.046465158462524414,0.036891549825668335
1783244291243414800,3.746414794921875,-0.05189298093318939,-0.06452226638793945,0.05110915005207062
1783244291253426700,3.7564267578125,-0.05851279944181442,-0.07433867454528809,0.058685578405857086
1783244291263438600,3.7664384765625,-0.05563822388648987,-0.08141842484474182,0.053499121218919754
1783244291273450000,3.776449951171875,-0.04390327259898186,-0.07616880536079407,0.040332186967134476
1783244291283462000,3.7864619140625,-0.030029743909835815,-0.05324651673436165,0.014894835650920868
1783244291293472800,3.79647265625,-0.02487972192466259,-0.02859070524573326,-0.016057753935456276
1783244291303485000,3.80648486328125,-0.02110215835273266,-0.00966806709766388,-0.04804781824350357
1783244291313496800,3.816496826171875,-0.017069067806005478,0.002710039261728525,-0.07426423579454422
1783244291323507700,3.8265078125,-0.021710077300667763,-0.003813413670286536,-0.08320352435112
1783244291333519600,3.83651953125,-0.02800179459154606,-0.02716480940580368,-0.07888147979974747
1783244291343531000,3.846531005859375,-0.034332841634750366,-0.05311720073223114,-0.05724349617958069
1783244291353543000,3.85654296875,-0.03597574308514595,-0.06951028853654861,-0.022915348410606384
1783244291363554800,3.866554931640625,-0.034298162907361984,-0.06734948605298996,0.009396880865097046
1783244291373566000,3.87656591796875,-0.0302357729524374,-0.059114184230566025,0.035510506480932236
1783244291383577900,3.886577880859375,-0.026400186121463776,-0.050475917756557465,0.04273268207907677
1783244291393588700,3.896588623046875,-0.023350335657596588,-0.04351015388965607,0.0307263545691967
1783244291403600600,3.9066005859375,-0.02655358612537384,-0.04372081160545349,0.006557635962963104
1783244291413612800,3.91661279296875,-0.02972647175192833,-0.053251467645168304,-0.01802041009068489
1783244291423623700,3.926623779296875,-0.031753621995449066,-0.06859476864337921,-0.031028330326080322
1783244291433635600,3.936635498046875,-0.03226788341999054,-0.08056781440973282,-0.025036219507455826
1783244291443647000,3.94664697265625,-0.029006147757172585,-0.09484783560037613,0.00006102491170167923
1783244291453659000,3.956658935546875,-0.02470780536532402,-0.10166845470666885,0.035085584968328476
1783244291463670800,3.9666708984375,-0.026694003492593765,-0.0926876962184906,0.06226414442062378
1783244291473682000,3.976681884765625,-0.03461025282740593,-0.07041727751493454,0.07318683713674545
1783244291483693800,3.98669384765625,-0.04223544895648956,-0.0442873015999794,0.06477465480566025
1783244291493704700,3.99670458984375,-0.05056927725672722,-0.024955682456493378,0.04557805508375168
1783244291503716600,4.006716552734375,-0.05974913761019707,-0.0202143806964159,0.02097490057349205
1783244291513728800,4.016728759765625,-0.06539370119571686,-0.026010485365986824,0.005128826014697552
1783244291523740000,4.026739990234375,-0.06315319240093231,-0.037682969123125076,-0.0009252410382032394
1783244291533751800,4.036751708984375,-0.05213196948170662,-0.06225675716996193,0.012166059575974941
1783244291543763000,4.046762939453125,-0.027385972440242767,-0.09583263099193573,0.0369785875082016
1783244291553774800,4.05677490234375,-0.0072484794072806835,-0.10955244302749634,0.05748865753412247
1783244291563786800,4.066786865234375,-0.007584376726299524,-0.10563518851995468,0.0656740739941597
1783244291573797600,4.076797607421875,-0.014309924095869064,-0.08046698570251465,0.06164471060037613
1783244291583809800,4.086809814453125,-0.027093136683106422,-0.0382673405110836,0.04054107517004013
1783244291593821000,4.096821044921875,-0.04512380063533783,0.004055613651871681,0.009432155638933182
1783244291603832800,4.106832763671875,-0.06517064571380615,0.031701814383268356,-0.023770757019519806
1783244291613845000,4.116844970703125,-0.06576186418533325,0.02606976218521595,-0.04670429974794388
1783244291623855900,4.12685595703125,-0.049523502588272095,-0.0117951026186347,-0.05008191615343094
1783244291633867800,4.13686767578125,-0.03564710170030594,-0.04868520796298981,-0.04047589376568794
1783244291643880000,4.1468798828125,-0.0272839218378067,-0.07421526312828064,-0.014864878728985786
1783244291653890800,4.156890869140625,-0.021954137831926346,-0.08448148518800735,0.01478063128888607
1783244291663902200,4.166902099609375,-0.02473878674209118,-0.06228121370077133,0.03646530210971832
1783244291673913300,4.176913330078125,-0.04062054678797722,-0.02093830145895481,0.04338020086288452
1783244291683925200,4.18692529296875,-0.06052762269973755,0.00577807379886508,0.035811424255371094
1783244291693937400,4.1969375,-0.07740993052721024,0.02522580698132515,0.016947990283370018
1783244291703948300,4.2069482421875,-0.080482117831707,0.024921558797359467,-0.006505362689495087
1783244291713960200,4.216960205078125,-0.06345146894454956,0.0029131947085261345,-0.023877959698438644
1783244291723971000,4.22697119140625,-0.03143423795700073,-0.03147563338279724,-0.030547019094228745
1783244291733983200,4.236983154296875,0.006598896812647581,-0.08479984104633331,-0.021575096994638443
1783244291743995100,4.2469951171875,0.032420262694358826,-0.1301225870847702,-0.00008581066504120827
1783244291754006300,4.25700634765625,0.03375637158751488,-0.12953482568264008,0.023053064942359924
1783244291764018200,4.26701806640625,0.010625899769365788,-0.10219679027795792,0.04318476840853691
1783244291774029300,4.277029296875,-0.01983347348868847,-0.05906396359205246,0.0510522797703743
1783244291784041200,4.287041259765625,-0.04375721514225006,-0.0012197245378047228,0.04439007118344307
1783244291794053000,4.29705322265625,-0.052941128611564636,0.01625886745750904,0.027040109038352966
1783244291804064300,4.307064208984375,-0.044579386711120605,-0.007917001843452454,0.0026870789006352425
1783244291814076200,4.317076171875,-0.019767247140407562,-0.04682445153594017,-0.023914970457553864
1783244291824087000,4.327087158203125,0.006491200998425484,-0.08078330010175705,-0.04356929659843445
1783244291834099200,4.33709912109375,0.027155999094247818,-0.11186638474464417,-0.05457108095288277
1783244291844111000,4.347111083984375,0.03648967295885086,-0.10397627204656601,-0.061922233551740646
1783244291854122200,4.357122314453125,0.032733816653490067,-0.07548657059669495,-0.060408227145671844
1783244291864134100,4.367134033203125,0.015904514119029045,-0.05629575997591019,-0.05970863252878189
1783244291874145300,4.377145263671875,-0.0036409571766853333,-0.04787378013134003,-0.055105891078710556
1783244291884157200,4.3871572265625,-0.031965222209692,-0.05023737624287605,-0.04917846992611885
1783244291894169000,4.397169189453125,-0.06205814331769943,-0.056928303092718124,-0.04345453903079033
1783244291904180200,4.40718017578125,-0.08382182568311691,-0.059446774423122406,-0.03388909623026848
1783244291914192100,4.417192138671875,-0.0926632508635521,-0.061624445021152496,-0.02438906952738762
1783244291924203300,4.427203369140625,-0.09412287175655365,-0.05116921663284302,-0.01571612060070038
1783244291934215200,4.437215087890625,-0.100027896463871,-0.03510156646370888,-0.012337899766862392
1783244291944227300,4.447227294921875,-0.10733795911073685,-0.02750333957374096,-0.012456653639674187
1783244291954238200,4.45723828125,-0.12073712050914764,-0.026157910004258156,-0.018448499962687492
1783244291964250000,4.46725,-0.13010388612747192,-0.025769583880901337,-0.026781314983963966
1783244291974261200,4.47726123046875,-0.13934026658535004,-0.026341363787651062,-0.03377637267112732
1783244291984273200,4.487273193359375,-0.14362943172454834,-0.030289115384221077,-0.031511422246694565
1783244291994285000,4.49728515625,-0.14100727438926697,-0.032806865870952606,-0.022118985652923584
1783244292004296200,4.507296142578125,-0.13081179559230804,-0.029246604070067406,-0.011005757376551628
1783244292014308000,4.51730810546875,-0.1223040521144867,-0.029361652210354805,0.000874869991093874
1783244292024319200,4.5273193359375,-0.11303339898586273,-0.03518427535891533,0.008912911638617516
1783244292034331100,4.5373310546875,-0.10045209527015686,-0.03518960252404213,0.010987780056893826
1783244292044343300,4.54734326171875,-0.08769103139638901,-0.03541848435997963,0.010378279723227024
1783244292054354200,4.557354248046875,-0.07790151238441467,-0.039893392473459244,0.0047432975843548775
1783244292064366000,4.567365966796875,-0.07620000839233398,-0.03692655265331268,-0.0050688739866018295
1783244292074377200,4.577377197265625,-0.07782693207263947,-0.0484580397605896,-0.0035300995223224163
1783244292084389000,4.58738916015625,-0.07914919406175613,-0.059876345098018646,0.002285977825522423
1783244292094401000,4.597401123046875,-0.08167014271020889,-0.058054741472005844,0.015488333068788052
1783244292104412200,4.607412109375,-0.0817997008562088,-0.050473593175411224,0.028179625049233437
1783244292114424300,4.61742431640625,-0.08427750319242477,-0.03631090372800827,0.03718670457601547
1783244292124435200,4.627435302734375,-0.08938756585121155,-0.019345277920365334,0.0383463129401207
1783244292134447000,4.637447021484375,-0.09972968697547913,-0.01108521781861782,0.034853044897317886
1783244292144459300,4.647459228515625,-0.11137168854475021,-0.010441417805850506,0.026966795325279236
1783244292154470100,4.65747021484375,-0.12476713210344315,-0.01573365181684494,0.023546231910586357
1783244292164482000,4.66748193359375,-0.12886536121368408,-0.019894534721970558,0.0320294164121151
1783244292174493200,4.6774931640625,-0.12532654404640198,-0.025662941858172417,0.04226447641849518
1783244292184505300,4.68750537109375,-0.11769232153892517,-0.021054144948720932,0.05379505455493927
1783244292194517200,4.697517333984375,-0.10699786245822906,-0.01688523218035698,0.06442666053771973
1783244292204528000,4.707528076171875,-0.09186791628599167,-0.018156442791223526,0.06745469570159912
1783244292214540300,4.717540283203125,-0.08411572128534317,-0.010260969400405884,0.057655055075883865
1783244292224551200,4.72755126953125,-0.07914754748344421,0.004032825119793415,0.03832735866308212
1783244292234563000,4.73756298828125,-0.07678531855344772,0.0041982075199484825,0.014133339747786522
1783244292244575200,4.7475751953125,-0.07488556951284409,0.010158481076359749,-0.000009177252650260925
1783244292254586000,4.757586181640625,-0.07257235050201416,0.018258752301335335,-0.007775753736495972
1783244292264598000,4.767597900390625,-0.06421967595815659,0.02157103270292282,-0.007361277937889099
1783244292274609200,4.777609130859375,-0.056642983108758926,0.026063786819577217,-0.008219880983233452
1783244292284621300,4.787621337890625,-0.054751601070165634,0.019726227968931198,-0.003602947574108839
1783244292294633200,4.79763330078125,-0.061314161866903305,0.0005037963856011629,0.006615601014345884
1783244292304644000,4.80764404296875,-0.06438537687063217,-0.009549180045723915,0.022955497726798058
1783244292314656300,4.81765625,-0.06141461804509163,-0.019290490075945854,0.044897016137838364
1783244292324667100,4.827667236328125,-0.05433061346411705,-0.01936810463666916,0.06271099299192429
1783244292334679000,4.837678955078125,-0.054778024554252625,-0.00841798447072506,0.07157479226589203
1783244292344691200,4.847691162109375,-0.06662449985742569,0.0010600998066365719,0.06925322860479355
1783244292354702300,4.857702392578125,-0.08410868048667908,0.01622040942311287,0.05640747398138046
1783244292364714200,4.86771435546875,-0.09998182207345963,0.036510005593299866,0.04090861976146698
1783244292374725000,4.87772509765625,-0.10057170689105988,0.051606930792331696,0.025073999539017677
1783244292384737300,4.8877373046875,-0.09618793427944183,0.05867849290370941,0.014224446378648281
1783244292394749200,4.897749267578125,-0.08414032310247421,0.04700745642185211,0.015766415745019913
1783244292404760000,4.907760009765625,-0.06333784013986588,0.030179742723703384,0.017844215035438538
1783244292414772200,4.917772216796875,-0.038725439459085464,0.002129200380295515,0.03241969645023346
1783244292424783000,4.927783203125,-0.018653471022844315,-0.023447230458259583,0.043085046112537384
1783244292434795300,4.937795166015625,-0.004369073547422886,-0.03530175983905792,0.05071153864264488
1783244292444807200,4.94780712890625,-0.0034651383757591248,-0.028827156871557236,0.05306827276945114
1783244292454818300,4.957818359375,-0.005522963125258684,-0.016965704038739204,0.0568438358604908
1783244292464830200,4.967830322265625,-0.010388069786131382,-0.006430762354284525,0.05704842507839203
1783244292474841000,4.977841064453125,-0.01780470833182335,0.009057117626070976,0.05813419818878174
1783244292484853200,4.987853271484375,-0.01789660006761551,0.016114292666316032,0.056206706911325455
1783244292494865200,4.997865234375,-0.0013083023950457573,0.0033521587029099464,0.052903853356838226
1783244292504876000,5.0078759765625,0.023716406896710396,-0.015215704217553139,0.04109515622258186
1783244292514888200,5.01788818359375,0.04775649309158325,-0.04250485077500343,0.026310350745916367
1783244292524899300,5.0278994140625,0.06678617745637894,-0.05840136483311653,0.012783000245690346
1783244292534911200,5.0379111328125,0.07898105680942535,-0.042847439646720886,-0.0050402055494487286
1783244292544923100,5.047923095703125,0.07567542791366577,-0.0014790815766900778,-0.023036183789372444
1783244292554934300,5.057934326171875,0.0618797242641449,0.0511055663228035,-0.037961069494485855
1783244292564946200,5.0679462890625,0.045998137444257736,0.09126605838537216,-0.053793709725141525
1783244292574957000,5.07795703125,0.028366945683956146,0.08002299070358276,-0.05726594105362892
1783244292584969200,5.08796923828125,0.008277795277535915,0.03211852163076401,-0.05257248133420944
1783244292594981000,5.097981201171875,-0.003806564025580883,-0.022352974861860275,-0.03624996542930603
1783244292604992300,5.1079921875,-0.007685874123126268,-0.06223183125257492,-0.01148263644427061
1783244292615004400,5.11800439453125,-0.007398785557597876,-0.06682152301073074,0.018750900402665138
1783244292625015300,5.128015380859375,-0.005171314347535372,-0.03365866094827652,0.041053712368011475
1783244292635027200,5.138027099609375,-0.004165970720350742,-0.0015036540571600199,0.04965465888381004
1783244292645039000,5.1480390625,-0.004804168827831745,0.025781726464629173,0.04400161653757095
1783244292655050200,5.15805029296875,-0.002684825100004673,0.04054788872599602,0.019761793315410614
1783244292665062100,5.168062255859375,0.0012838173424825072,0.03240207955241203,-0.015487008728086948
1783244292675073000,5.178072998046875,0.008063426241278648,0.016400476917624474,-0.04782550781965256
1783244292685085200,5.188085205078125,0.02194313332438469,-0.0004168471787124872,-0.07157234847545624
1783244292695097000,5.19809716796875,0.042266249656677246,-0.030444789677858353,-0.06857842206954956
1783244292705108200,5.208108154296875,0.06707902997732162,-0.05833819508552551,-0.04751092195510864
1783244292715120400,5.218120361328125,0.08448252081871033,-0.05849345773458481,-0.02054641954600811
1783244292725131300,5.22813134765625,0.08506904542446136,-0.03538115322589874,-0.00020639458671212196
1783244292735143200,5.23814306640625,0.06995373964309692,-0.012007120996713638,0.008477641269564629
1783244292745155300,5.2481552734375,0.05144760012626648,0.006023776717483997,0.0036017107777297497
1783244292755166200,5.258166259765625,0.033484313637018204,0.007210214622318745,-0.004724395461380482
1783244292765178000,5.26817822265625,0.028057852759957314,-0.006524092052131891,-0.015067488886415958
1783244292775189200,5.278189208984375,0.028916722163558006,-0.02382425218820572,-0.0246194489300251
1783244292785201400,5.288201416015625,0.033626846969127655,-0.040828872472047806,-0.03554576262831688
1783244292795213300,5.29821337890625,0.04020858183503151,-0.03262154385447502,-0.04555924981832504
1783244292805224200,5.30822412109375,0.04352452605962753,-0.013851859606802464,-0.06274708360433578
1783244292815236400,5.318236328125,0.04640606790781021,-0.0157802551984787,-0.08371175825595856
1783244292825247200,5.328247314453125,0.04015670716762543,-0.025520171970129013,-0.0971372053027153
1783244292835259100,5.338259033203125,0.026122650131583214,-0.01967080496251583,-0.10543428361415863
1783244292845270300,5.348270263671875,0.015125064179301262,-0.005433184094727039,-0.09916725754737854
1783244292855282400,5.358282470703125,0.011290911585092545,0.0124033372849226,-0.0870157852768898
1783244292865294300,5.36829443359375,0.019587408751249313,0.022624976933002472,-0.07300473749637604
1783244292875305200,5.37830517578125,0.019724028185009956,0.011582445353269577,-0.05641165375709534
1783244292885317400,5.3883173828125,0.012171678245067596,0.012007641606032848,-0.04926440119743347
1783244292895328300,5.398328369140625,0.007249357178807259,0.014501425437629223,-0.052062585949897766
1783244292905340200,5.408340087890625,0.011272960342466831,0.010747229680418968,-0.054683003574609756
1783244292915352000,5.41835205078125,0.024637501686811447,0.02038094960153103,-0.05663510039448738
1783244292925363200,5.42836328125,0.03978721797466278,0.04311400651931763,-0.06129109486937523
1783244292935375000,5.438375,0.05644955486059189,0.057842619717121124,-0.057833779603242874
1783244292945386200,5.44838623046875,0.07101473212242126,0.05399566888809204,-0.05750393122434616
1783244292955398400,5.4583984375,0.08483786880970001,0.05975422263145447,-0.06685321778059006
1783244292965410300,5.468410400390625,0.08027726411819458,0.03711700811982155,-0.08120542764663696
1783244292975421200,5.478421142578125,0.058760788291692734,-0.011222293600440025,-0.08838584274053574
1783244292985433300,5.488433349609375,0.020809587091207504,-0.031860556453466415,-0.08091626316308975
1783244292995444200,5.4984443359375,0.0018987469375133514,-0.06609310209751129,-0.04577825218439102
1783244293005456100,5.5084560546875,-0.0095231793820858,-0.07044200599193573,-0.0037943690549582243
1783244293015468000,5.518468017578125,-0.028452662751078606,-0.04734201356768608,0.04013873636722565
1783244293025479400,5.5284794921875,-0.04281466454267502,-0.0336989089846611,0.07640642672777176
1783244293035491300,5.5384912109375,-0.04883208125829697,-0.008156266063451767,0.08435569703578949
1783244293045502200,5.548502197265625,-0.04749187454581261,0.019916681572794914,0.06858387589454651
1783244293055514400,5.558514404296875,-0.0450337752699852,0.028570890426635742,0.03729838877916336
1783244293065526300,5.5685263671875,-0.03377680107951164,0.02658676542341709,-0.0018126904033124447
1783244293075537200,5.578537109375,-0.025362811982631683,0.016010286286473274,-0.04366905987262726
1783244293085549000,5.588549072265625,-0.026755867525935173,-0.015025402419269085,-0.06725674122571945
1783244293095560200,5.598560302734375,-0.03112558275461197,-0.055681221187114716,-0.07137318700551987
1783244293105572000,5.608572021484375,-0.02752845548093319,-0.08044340461492538,-0.05411607027053833
1783244293115584300,5.618584228515625,-0.02108759991824627,-0.08342880755662918,-0.020095786079764366
1783244293125595400,5.628595458984375,-0.0188075490295887,-0.05628936365246773,0.01284442562609911
1783244293135607300,5.638607177734375,-0.02669396810233593,-0.019881023094058037,0.036498889327049255
1783244293145618200,5.6486181640625,-0.038051873445510864,0.0024006529711186886,0.04223097488284111
1783244293155630000,5.658630126953125,-0.041433822363615036,-0.004286011680960655,0.030831582844257355
1783244293165642200,5.668642333984375,-0.03807375580072403,-0.036082010716199875,0.012740522623062134
1783244293175653000,5.678653076171875,-0.036293163895606995,-0.07767286896705627,-0.00864386186003685
1783244293185665000,5.6886650390625,-0.03745809197425842,-0.09543513506650925,-0.027100645005702972
1783244293195676400,5.698676513671875,-0.03490731865167618,-0.07981596142053604,-0.03576843440532684
1783244293205688300,5.708688232421875,-0.026956818997859955,-0.04694181680679321,-0.03627261146903038
1783244293215699200,5.71869921875,-0.01826745644211769,-0.019589019939303398,-0.025123821571469307
1783244293225711000,5.728711181640625,-0.011232241056859493,0.0021307263523340225,-0.020306797698140144
1783244293235723300,5.73872314453125,-0.022301936522126198,-0.010256434790790081,-0.007161434274166822
1783244293245734100,5.748734130859375,-0.029497209936380386,-0.03890332952141762,0.004847127944231033
1783244293255746000,5.75874609375,-0.0281967855989933,-0.03886204957962036,0.007622141391038895
1783244293265757400,5.76875732421875,-0.026080919429659843,-0.04230625554919243,0.015710536390542984
1783244293275769300,5.778769287109375,-0.020852334797382355,-0.039871592074632645,0.019040551036596298
1783244293285781200,5.78878125,-0.01818176358938217,-0.02357635274529457,0.016888868063688278
1783244293295792400,5.79879248046875,-0.019958358258008957,-0.01730753853917122,0.013599330559372902
1783244293305804300,5.80880419921875,-0.021538246423006058,-0.020460372790694237,0.016083750873804092
1783244293315815200,5.818815185546875,-0.02010599710047245,-0.018331972882151604,0.00876458641141653
1783244293325827000,5.8288271484375,-0.020886456593871117,-0.01197422482073307,0.0012577865272760391
1783244293335839200,5.838839111328125,-0.02566656470298767,0.0037192506715655327,-0.005560172256082296
1783244293345850000,5.84885009765625,-0.02586342580616474,0.02285105548799038,-0.010074159130454063
1783244293355862000,5.858862060546875,-0.026416830718517303,0.024289961904287338,-0.014909127727150917
1783244293365873400,5.868873291015625,-0.035480424761772156,0.024425197392702103,-0.022082101553678513
1783244293375885300,5.87888525390625,-0.04415513947606087,0.02086002379655838,-0.025603067129850388
1783244293385897200,5.888897216796875,-0.04096968099474907,-0.003971865866333246,-0.020524397492408752
1783244293395908000,5.898908203125,-0.03166326507925987,-0.03380992263555527,-0.008214201778173447
1783244293405920300,5.908920166015625,-0.030707715079188347,-0.04102965444326401,-0.00047266436740756035
1783244293415931100,5.91893115234375,-0.0376947820186615,-0.02727656066417694,0.007135454565286636
1783244293425943000,5.928943115234375,-0.04283143952488899,0.011625400744378567,0.008164075203239918
1783244293435954400,5.938954345703125,-0.04238509386777878,0.06039906665682793,0.002286478877067566
1783244293445966300,5.94896630859375,-0.03561064973473549,0.07482270896434784,-0.009181573055684566
1783244293455978200,5.958978271484375,-0.028961803764104843,0.05176985636353493,-0.022517617791891098
1783244293465989000,5.968989013671875,-0.01860663667321205,0.01634063757956028,-0.03468338027596474
1783244293476001300,5.979001220703125,-0.013947969302535057,-0.023027805611491203,-0.03275924548506737
1783244293486012200,5.98901220703125,-0.00955598521977663,-0.05564691498875618,-0.0131080849096179
1783244293496024000,5.999024169921875,-0.0016818172298371792,-0.06996593624353409,0.015156043693423271
1783244293506036200,6.0090361328125,-0.0010303054004907608,-0.06347429752349854,0.04532836750149727
1783244293516047400,6.01904736328125,-0.008819252252578735,-0.04489555582404137,0.06484507024288177
1783244293526059300,6.029059326171875,-0.019155990332365036,-0.022739455103874207,0.06319055706262589
1783244293536070100,6.039070068359375,-0.023729702457785606,0.0015483086463063955,0.04897939786314964
1783244293546082300,6.049082275390625,-0.019649796187877655,0.014154716394841671,0.025875303894281387
1783244293556094200,6.05909423828125,-0.015519499778747559,0.008625460788607597,0.0025718463584780693
1783244293566105000,6.06910498046875,-0.006572342943400145,0.0014066965086385608,-0.01689239963889122
1783244293576117200,6.0791171875,0.0026690918020904064,-0.006840846501290798,-0.027048364281654358
1783244293586128100,6.089128173828125,0.014847242273390293,-0.016982058063149452,-0.024475906044244766
1783244293596140000,6.09914013671875,0.02298479713499546,-0.017110688611865044,-0.015739139169454575
1783244293606152200,6.109152099609375,0.027100030332803726,-0.022655144333839417,-0.007881099358201027
1783244293616163300,6.119163330078125,0.023884529247879982,-0.02525279112160206,-0.0011931024491786957
1783244293626175200,6.12917529296875,0.0187100600451231,-0.03252926841378212,0.005972327198833227
1783244293636186000,6.13918603515625,0.01719845086336136,-0.03549309819936752,0.012097332626581192
1783244293646198300,6.1491982421875,0.0135861337184906,-0.028941966593265533,0.016579080373048782
1783244293656210200,6.159210205078125,0.005237923003733158,-0.01971730962395668,0.012540395371615887
1783244293666221800,6.169221923828125,-0.007646127603948116,-0.004944821819663048,0.007022963371127844
1783244293676233700,6.179233642578125,-0.015391931869089603,-0.0018920404836535454,-0.0004911455325782299
1783244293686244600,6.18924462890625,-0.011325012892484665,-0.010184897109866142,-0.007302267011255026
1783244293696256800,6.1992568359375,-0.0028817267157137394,-0.011091170832514763,-0.01227572001516819
1783244293706268000,6.209267822265625,0.002435422269627452,-0.008012378588318825,-0.023482687771320343
1783244293716279800,6.21927978515625,0.0012372659984976053,0.0031920727342367172,-0.03401868790388107
1783244293726292000,6.2292919921875,0.002039844635874033,0.00305737741291523,-0.03859315440058708
1783244293736302800,6.239302734375,0.01187063753604889,-0.004035153426229954,-0.03970528766512871
1783244293746314800,6.249314697265625,0.018235431984066963,-0.009094594046473503,-0.03804805874824524
1783244293756325600,6.25932568359375,0.01936354674398899,-0.025425896048545837,-0.028643369674682617
1783244293766337800,6.269337890625,0.01809576526284218,-0.044625405222177505,-0.00938909687101841
1783244293776349700,6.279349609375,0.012860790826380253,-0.03835499286651611,0.0025013848207890987
1783244293786360800,6.28936083984375,0.0017771499697118998,-0.01418088749051094,0.00870872475206852
1783244293796373000,6.299373046875,-0.008274419233202934,0.0064330450259149075,0.0033033075742423534
1783244293806383900,6.3093837890625,-0.009858466684818268,0.015400707721710205,-0.006263566203415394
1783244293816395800,6.319395751953125,-0.0003927936777472496,0.00850951112806797,-0.013159021735191345
1783244293826406700,6.32940673828125,-0.0002978246193379164,-0.010797906666994095,-0.015563271939754486
1783244293836418800,6.339418701171875,0.0011626530904322863,-0.03376873582601547,-0.0096859410405159
1783244293846430700,6.3494306640625,0.0010669876355677843,-0.03694567456841469,-0.0017739718314260244
1783244293856441900,6.35944189453125,-0.0036827600561082363,-0.014202279970049858,0.0012367316521704197
1783244293866453800,6.369453857421875,-0.006776391062885523,0.017158392816781998,-0.006361037492752075
1783244293876465000,6.37946484375,-0.007329529616981745,0.03637203574180603,-0.019734101369976997
1783244293886476800,6.389476806640625,-0.0007304823957383633,0.03364655748009682,-0.03679750859737396
1783244293896489000,6.399489013671875,0.0143792275339365,0.017017513513565063,-0.05176793411374092
1783244293906499800,6.409499755859375,0.029088079929351807,-0.0030409619212150574,-0.06454864144325256
1783244293916511700,6.41951171875,0.03372836858034134,-0.01887798309326172,-0.07320310920476913
1783244293926522600,6.429522705078125,0.03353821113705635,-0.032782021909952164,-0.06601354479789734
1783244293936534800,6.43953466796875,0.032175738364458084,-0.02914867363870144,-0.050173062831163406
1783244293946546700,6.449546630859375,0.02098860964179039,-0.013552868738770485,-0.03283660486340523
1783244293956557800,6.459557861328125,0.015494508668780327,0.008070134557783604,-0.006000463385134935
1783244293966570000,6.469570068359375,0.00583463441580534,-0.0049497270956635475,0.023309115320444107
1783244293976580900,6.479580810546875,0.008709782734513283,0.004461884032934904,0.043222106993198395
1783244293986592800,6.4895927734375,0.00861971452832222,0.014593802392482758,0.048924271017313004
1783244293996603600,6.499603759765625,-0.0017029638402163982,-0.0009316268842667341,0.03843993693590164
1783244294006615800,6.50961572265625,0.0000758725218474865,-0.026604365557432175,0.01910986192524433
1783244294016627700,6.519627685546875,0.010715734213590622,-0.04757808893918991,0.0036848322488367558
1783244294026638800,6.529638916015625,0.015559911727905273,-0.0599355585873127,-0.0038539909292012453
1783244294036651000,6.539651123046875,0.009749693796038628,-0.06235051155090332,-0.003635877976194024
1783244294046662000,6.549661865234375,-0.00690128980204463,-0.046936724334955215,-0.006718344986438751
1783244294056673800,6.559673828125,-0.018446626141667366,-0.021426569670438766,-0.004960125777870417
1783244294066686000,6.56968603515625,-0.022287705913186073,-0.008601830340921879,-0.003293342422693968
1783244294076696800,6.57969677734375,-0.019702043384313583,-0.0023276894353330135,-0.0010253945365548134
1783244294086708700,6.589708740234375,-0.015646686777472496,0.00037218991201370955,-0.007312798406928778
1783244294096719600,6.5997197265625,-0.016610750928521156,-0.01052599772810936,-0.01660163700580597
1783244294106731800,6.609731689453125,-0.017285700887441635,-0.018958399072289467,-0.025427833199501038
1783244294116743700,6.61974365234375,-0.013155139051377773,-0.014477628283202648,-0.02676527202129364
1783244294126754800,6.6297548828125,-0.008291465230286121,-0.011288815177977085,-0.018933996558189392
1783244294136767000,6.63976708984375,-0.005413653329014778,-0.002417825860902667,-0.009387364611029625
1783244294146777900,6.64977783203125,-0.0061947051435709,0.015352992340922356,-0.004292009398341179
1783244294156789800,6.659789794921875,-0.006148365326225758,0.020704347640275955,0.0014593536034226418
1783244294166800600,6.669800537109375,-0.00612780824303627,0.004432390909641981,0.006703935097903013
1783244294176812800,6.679812744140625,-0.011789156123995781,-0.010773725807666779,0.006312717217952013
1783244294186824700,6.68982470703125,-0.01923428848385811,-0.018943239003419876,0.0029510087333619595
1783244294196835800,6.6998359375,-0.02147560566663742,-0.020572295412421227,-0.006206803489476442
1783244294206848000,6.709847900390625,-0.01872546598315239,-0.013508293777704239,-0.018638920038938522
1783244294216859000,6.71985888671875,-0.01781359687447548,-0.00677688792347908,-0.026486190035939217
1783244294226870800,6.729870849609375,-0.01606442779302597,-0.010372195392847061,-0.025236189365386963
1783244294236883000,6.739883056640625,-0.012847328558564186,-0.011351439170539379,-0.019829440861940384
1783244294246893800,6.749893798828125,-0.010896303690969944,-0.01683165319263935,-0.010973542928695679
1783244294256905700,6.75990576171875,-0.011705637909471989,-0.0184487234801054,-0.009194551035761833
1783244294266916900,6.769916748046875,-0.020345358178019524,-0.010035110637545586,-0.004933902528136969
1783244294276929000,6.779928955078125,-0.02001512609422207,-0.012910525314509869,-0.0017391748260706663
1783244294286940000,6.78993994140625,-0.017493216320872307,-0.0127608897164464,-0.007027360610663891
1783244294296951800,6.799951904296875,-0.0139637291431427,-0.010574433952569962,-0.015981441363692284
1783244294306964000,6.8099638671875,-0.013508920557796955,-0.0168390404433012,-0.016437653452157974
1783244294316974800,6.819974853515625,-0.015364077873528004,-0.02111554518342018,0.00022867368534207344
1783244294326986800,6.82998681640625,-0.011516815051436424,-0.017742885276675224,0.03401070833206177
1783244294336997600,6.83999755859375,0.0012911258963868022,-0.0037572942674160004,0.0820101946592331
1783244294347009800,6.850009765625,0.019113313406705856,0.09397909790277481,0.17211231589317322
1783244294357021700,6.860021728515625,0.02786446362733841,0.22033943235874176,0.21851710975170135
1783244294367032800,6.87003271484375,0.012875126674771309,0.24083378911018372,0.20772278308868408
1783244294377045000,6.880044921875,-0.0028132889419794083,0.16634516417980194,0.1437387317419052
1783244294387055900,6.890055908203125,-0.0032707666978240013,0.05458223074674606,0.0521664023399353
1783244294397067800,6.90006787109375,-0.00604391610249877,-0.04924722760915756,-0.031942617148160934
1783244294407078700,6.91007861328125,0.004768681712448597,-0.1244717389345169,-0.11455772817134857
1783244294417090800,6.9200908203125,0.013759778812527657,-0.19499783217906952,-0.1772163063287735
1783244294427102700,6.930102783203125,0.023038551211357117,-0.2707482874393463,-0.21181795001029968
1783244294437113900,6.94011376953125,0.02130456641316414,-0.27937373518943787,-0.19135501980781555
1783244294447126000,6.9501259765625,0.0097257811576128,-0.2182174026966095,-0.1068873256444931
