time,seconds_elapsed,z,y,x
1783244190270870500,0.05787060546875,0.04229449853301048,0.06647822260856628,0.19180983304977417
1783244190280881400,0.06788134765625,0.035748712718486786,0.022575743496418,0.20017056167125702
1783244190290893300,0.077893310546875,0.034562963992357254,-0.004664251580834389,0.22941356897354126
1783244190300904400,0.087904541015625,0.031625229865312576,-0.014132588170468807,0.27405452728271484
1783244190310915600,0.09791552734375,0.01769159734249115,-0.01567322574555874,0.33478835225105286
1783244190320926500,0.107926513671875,0.010594806633889675,-0.009685907512903214,0.3967081904411316
1783244190330938400,0.1179384765625,0.016324736177921295,0.009585571475327015,0.47003310918807983
1783244190340949500,0.127949462890625,0.03699725866317749,0.03201764449477196,0.5479601621627808
1783244190350960400,0.13796044921875,0.06865367293357849,0.06546996533870697,0.6045037508010864
1783244190360972300,0.14797216796875,0.104276642203331,0.11712517589330673,0.6330344676971436
1783244190370983400,0.1579833984375,0.14316412806510925,0.14114537835121155,0.6151030659675598
1783244190380994300,0.167994384765625,0.1653575897216797,0.11424557864665985,0.5613194704055786
1783244190391005400,0.17800537109375,0.15444086492061615,0.05186212435364723,0.500877857208252
1783244190401017300,0.188017333984375,0.12916186451911926,-0.04371047019958496,0.45752450823783875
1783244190411028500,0.198028564453125,0.09798356890678406,-0.1336638331413269,0.4211413562297821
1783244190421039400,0.208039306640625,0.0689026489853859,-0.1684873253107071,0.3980967700481415
1783244190431050500,0.218050537109375,0.046674273908138275,-0.16139428317546844,0.3866840898990631
1783244190441062400,0.2280625,0.03262423723936081,-0.13555096089839935,0.3749781548976898
1783244190451073500,0.238073486328125,0.013690115883946419,-0.09544627368450165,0.34854403138160706
1783244190461084400,0.24808447265625,-0.00989563763141632,-0.051136333495378494,0.31766921281814575
1783244190471096600,0.2580966796875,-0.020930059254169464,-0.04068215936422348,0.27737540006637573
1783244190481107500,0.268107421875,-0.011827107518911362,-0.08059202879667282,0.22492735087871552
1783244190491118300,0.278118408203125,-0.0201563723385334,-0.09349235892295837,0.18208347260951996
1783244190501129500,0.28812939453125,-0.024751124903559685,-0.08764219284057617,0.14348068833351135
1783244190511141600,0.2981416015625,-0.0200367271900177,-0.10562162101268768,0.11529870331287384
1783244190521152500,0.308152587890625,-0.014489362016320229,-0.151195228099823,0.11112499982118607
1783244190531163400,0.318163330078125,-0.00133843207731843,-0.18453454971313477,0.12021206319332123
1783244190541174500,0.328174560546875,0.016104474663734436,-0.18670077621936798,0.1389695107936859
1783244190551186400,0.3381865234375,0.02951337955892086,-0.1755254566669464,0.1588970571756363
1783244190561197600,0.348197509765625,0.026393486186861992,-0.1764434427022934,0.17251193523406982
1783244190571208700,0.358208740234375,0.0060402872040867805,-0.1607394963502884,0.17654818296432495
1783244190581219600,0.368219482421875,-0.015626924112439156,-0.13383224606513977,0.16608968377113342
1783244190591231500,0.3782314453125,-0.0403272844851017,-0.1217266172170639,0.15491002798080444
1783244190601243000,0.388242919921875,-0.06052469462156296,-0.1143704354763031,0.14129914343357086
1783244190611253800,0.398253662109375,-0.06604117900133133,-0.09640856832265854,0.12484563887119293
1783244190621265700,0.408265625,-0.06563185155391693,-0.05964762344956398,0.10889409482479095
1783244190631276500,0.418276611328125,-0.05359962582588196,-0.029051346704363823,0.08656258136034012
1783244190641287700,0.42828759765625,-0.039621759206056595,0.004281307570636272,0.05546324700117111
1783244190651298800,0.438298828125,-0.029680583626031876,0.040612105280160904,0.01599002443253994
1783244190661310700,0.448310791015625,-0.028461385518312454,0.032140057533979416,-0.022899584844708443
1783244190671321600,0.458321533203125,-0.04268000274896622,-0.002284495159983635,-0.06242914870381355
1783244190681332500,0.46833251953125,-0.06337010860443115,-0.030019454658031464,-0.08240126073360443
1783244190691344000,0.47834375,-0.06764621287584305,-0.060102298855781555,-0.07208269089460373
1783244190701355800,0.488355712890625,-0.05639861524105072,-0.06668882817029953,-0.048597343266010284
1783244190711366700,0.49836669921875,-0.042356181889772415,-0.04506329447031021,-0.014275135472416878
1783244190721377500,0.50837744140625,-0.024952955543994904,-0.009401971474289894,0.01886151358485222
1783244190731388700,0.518388671875,-0.01098406221717596,0.024692468345165253,0.04212762042880058
1783244190741400800,0.52840087890625,0.0012992358533665538,0.05019916221499443,0.048587918281555176
1783244190751411700,0.53841162109375,0.003793634008616209,0.07265779376029968,0.03751670569181442
1783244190761422600,0.548422607421875,0.0012127647642046213,0.08335038274526596,0.015035366639494896
1783244190771434800,0.558434814453125,-0.0047646439634263515,0.06419651210308075,-0.01235654391348362
1783244190781445600,0.568445556640625,-0.0018021431751549244,0.037835743278265,-0.03878229111433029
1783244190791456800,0.578456787109375,0.010093223303556442,0.029055507853627205,-0.05413604900240898
1783244190801467600,0.588467529296875,0.0193993728607893,0.025004839524626732,-0.051157303154468536
1783244190811479600,0.5984794921875,0.020322754979133606,0.02847469039261341,-0.042177509516477585
1783244190821490700,0.60849072265625,0.015666484832763672,0.04267386719584465,-0.0290321446955204
1783244190831501800,0.618501708984375,0.007932224310934544,0.06624703854322433,-0.011950995773077011
1783244190841512700,0.6285126953125,0.009757021442055702,0.09788326174020767,-0.0009350962936878204
1783244190851524600,0.638524658203125,0.021212894469499588,0.11678222566843033,-0.0036165816709399223
1783244190861535700,0.64853564453125,0.020227259024977684,0.1162695661187172,-0.015804538503289223
1783244190871546600,0.658546630859375,0.014722385443747044,0.102834053337574,-0.030832143500447273
1783244190881557800,0.668557861328125,0.009889280423521996,0.08763166517019272,-0.03911350667476654
1783244190891569700,0.678569580078125,0.011888809502124786,0.062333423644304276,-0.038910556584596634
1783244190901580500,0.68858056640625,0.02172253094613552,0.04759815335273743,-0.028965512290596962
1783244190911591700,0.698591796875,0.03385206311941147,0.03736873343586922,-0.01435539685189724
1783244190921603600,0.708603515625,0.04596305638551712,0.023223085328936577,0.0008145011961460114
1783244190931614700,0.71861474609375,0.05006222426891327,0.019537992775440216,0.008715583011507988
1783244190941625600,0.72862548828125,0.0475870817899704,0.019116414710879326,0.013190492987632751
1783244190951636700,0.73863671875,0.030477462336421013,0.023389412090182304,0.016492430120706558
1783244190961648600,0.748648681640625,0.014573064632713795,0.044280048459768295,0.016906019300222397
1783244190971659800,0.75865966796875,0.0034664522390812635,0.058661945164203644,0.009648771025240421
1783244190981670700,0.768670654296875,-0.00000497838482260704,0.06127530336380005,-0.0009191844146698713
1783244190991681500,0.778681640625,0.0009451627265661955,0.04931822419166565,-0.012475669384002686
1783244191001693700,0.788693603515625,0.00603286549448967,0.03363113850355148,-0.025773897767066956
1783244191011704600,0.79870458984375,0.006472830660641193,0.025649651885032654,-0.03767947480082512
1783244191021715700,0.8087158203125,0.0027281600050628185,0.03142125532031059,-0.046804796904325485
1783244191031727900,0.818727783203125,0.002192229963839054,0.04893284663558006,-0.050444670021533966
1783244191041738800,0.82873876953125,0.006175519898533821,0.06237674877047539,-0.05063668265938759
1783244191051749600,0.83874951171875,0.000930755864828825,0.05292866379022598,-0.048102010041475296
1783244191061760800,0.8487607421875,-0.010549066588282585,0.028944499790668488,-0.038834743201732635
1783244191071772700,0.858772705078125,-0.01735556311905384,-0.012520295567810535,-0.016226401552557945
1783244191081783800,0.86878369140625,-0.010720830410718918,-0.04303479194641113,0.01678933948278427
1783244191091794700,0.878794677734375,-0.0017007961869239807,-0.050184790045022964,0.04885390028357506
1783244191101805600,0.8888056640625,0.002566652838140726,-0.03752998262643814,0.07719312608242035
1783244191111817500,0.8988173828125,0.010748544707894325,-0.0028205164708197117,0.09310299903154373
1783244191121828900,0.908828857421875,0.02083074115216732,0.04516804963350296,0.08908215910196304
1783244191131839700,0.91883984375,0.03299899026751518,0.07758378237485886,0.06352247297763824
1783244191141850600,0.9288505859375,0.027582386508584023,0.08408802002668381,0.01806657388806343
1783244191151862500,0.938862548828125,0.017320509999990463,0.07242269068956375,-0.035920560359954834
1783244191161873700,0.948873779296875,0.015262152999639511,0.04486216977238655,-0.0834537222981453
1783244191171884800,0.958884765625,0.01775767281651497,0.028243288397789,-0.11783794313669205
1783244191181896700,0.968896728515625,0.021719390526413918,0.008142282254993916,-0.13342329859733582
1783244191191907600,0.978907470703125,0.022745845839381218,-0.004300507251173258,-0.12756650149822235
1783244191201918700,0.988918701171875,0.02577625773847103,-0.007773535326123238,-0.10562551766633987
1783244191211929900,0.998929931640625,0.02627783827483654,-0.003112948499619961,-0.07231287658214569
1783244191221941800,1.008941650390625,0.031669408082962036,-0.009955408051609993,-0.025333914905786514
1783244191231952600,1.01895263671875,0.03359771519899368,-0.01685713604092598,0.015334654599428177
1783244191241963500,1.028963623046875,0.0357961542904377,-0.0245685838162899,0.05132594704627991
1783244191251974700,1.038974609375,0.030771814286708832,-0.016441326588392258,0.07275167852640152
1783244191261986800,1.04898681640625,0.02226914092898369,-0.009332283399999142,0.07966497540473938
1783244191271997700,1.058997802734375,0.012209653854370117,0.002601643092930317,0.07277482002973557
1783244191282008600,1.069008544921875,0.0026584931183606386,0.008439292199909687,0.052665289491415024
1783244191292019700,1.079019775390625,-0.003371323924511671,0.009248471818864346,0.026665473356842995
1783244191302032000,1.089031982421875,-0.00876156147569418,0.009553936310112476,0.004426748026162386
1783244191312042800,1.099042724609375,-0.006564711220562458,0.007719905115664005,-0.010437987744808197
1783244191322053600,1.1090537109375,-0.0003227940760552883,0.014881943352520466,-0.01713157631456852
1783244191332065500,1.1190654296875,0.005515167489647865,0.019689586013555527,-0.018906623125076294
1783244191342076700,1.12907666015625,0.004039776045829058,0.02242332138121128,-0.017484761774539948
1783244191352087800,1.139087890625,-0.0024483087472617626,0.015424326062202454,-0.014271823689341545
1783244191362098700,1.1490986328125,-0.011435944586992264,0.003120522014796734,-0.0081044752150774
1783244191372110600,1.159110595703125,-0.017054231837391853,0.0047316160053014755,0.0019559478387236595
1783244191382121700,1.169121826171875,-0.013671750202775002,0.007443512789905071,0.013512201607227325
1783244191392132900,1.1791328125,-0.005665922071784735,0.00880521908402443,0.02367922104895115
1783244191402143700,1.189143798828125,0.003134759608656168,0.011338417418301105,0.0295267216861248
1783244191412155600,1.19915576171875,0.012952952645719051,0.014858733862638474,0.022481130436062813
1783244191422166500,1.20916650390625,0.01361155230551958,0.025591272860765457,0.011838873848319054
1783244191432177700,1.219177734375,0.005807674489915371,0.037394218146800995,-0.004303013440221548
1783244191442188800,1.229188720703125,0.0032904543913900852,0.04603804275393486,-0.019001265987753868
1783244191452200700,1.23920068359375,0.0026150119956582785,0.047967225313186646,-0.03128311038017273
1783244191462211600,1.249211669921875,0.006318403407931328,0.04113168641924858,-0.04328811168670654
1783244191472222500,1.259222412109375,0.008656632155179977,0.019079988822340965,-0.04915960133075714
1783244191482234600,1.269234619140625,0.013296658173203468,-0.011451289057731628,-0.04140634089708328
1783244191492245800,1.279245849609375,0.024355700239539146,-0.04584122076630592,-0.020961251109838486
1783244191502256600,1.289256591796875,0.029541941359639168,-0.06341169029474258,0.0023118467070162296
1783244191512267500,1.299267578125,0.024113811552524567,-0.06314593553543091,0.030404500663280487
1783244191522279700,1.30927978515625,0.014159448444843292,-0.038401708006858826,0.059937089681625366
1783244191532290800,1.319290771484375,0.008109958842396736,-0.00031205383129417896,0.08113738894462585
1783244191542301700,1.3293017578125,0.000731670530512929,0.03853840380907059,0.08297736197710037
1783244191552312600,1.3393125,-0.0072325123474001884,0.05377914384007454,0.06380792707204819
1783244191562324700,1.34932470703125,-0.015109609812498093,0.04040501266717911,0.03277651593089104
1783244191572335600,1.359335693359375,-0.02615554817020893,0.017329981550574303,0.0023631290532648563
1783244191582346800,1.3693466796875,-0.031298376619815826,-0.00025593675673007965,-0.019740842282772064
1783244191592357600,1.379357666015625,-0.03188221901655197,-0.003369466867297888,-0.0301005057990551
1783244191602369800,1.389369873046875,-0.02434786781668663,0.0016623097471892834,-0.029846439138054848
1783244191612380700,1.399380615234375,-0.02284100465476513,0.008460930548608303,-0.022123856469988823
1783244191622391800,1.409391845703125,-0.0288685392588377,0.0281483493745327,-0.012426752597093582
1783244191632403700,1.41940380859375,-0.02963886968791485,0.030673157423734665,-0.006584925577044487
1783244191642414800,1.429414794921875,-0.023672059178352356,0.017128054052591324,0.00007350929081439972
1783244191652425700,1.43942578125,-0.01598377898335457,-0.0013308478519320488,0.003473833668977022
1783244191662436600,1.4494365234375,-0.0066017284989356995,-0.016368387266993523,0.006181203294545412
1783244191672448500,1.459448486328125,-0.002582817804068327,-0.019253931939601898,0.00952279381453991
1783244191682460000,1.4694599609375,0.0020811762660741806,-0.019016645848751068,0.018325606361031532
1783244191692470800,1.479470703125,0.0003321233671158552,-0.005631216336041689,0.0243215411901474
1783244191702481700,1.489481689453125,-0.003700701519846916,0.0030211270786821842,0.030712593346834183
1783244191712493600,1.49949365234375,-0.009123081341385841,-0.001781765604391694,0.03867325186729431
1783244191722504700,1.509504638671875,-0.010481026954948902,-0.0001614983193576336,0.04256146773695946
1783244191732515800,1.519515869140625,-0.0033443435095250607,-0.0027790432795882225,0.04390990734100342
1783244191742526700,1.529526611328125,-0.0002076723612844944,0.003708417061716318,0.04633205384016037
1783244191752538600,1.53953857421875,0.0003109099343419075,0.02033587545156479,0.045413143932819366
1783244191762549800,1.5495498046875,-0.0014752722345292568,0.03521575406193733,0.036079563200473785
1783244191772561000,1.559560791015625,-0.004978926852345467,0.051591530442237854,0.01896395906805992
1783244191782572800,1.56957275390625,-0.009283128194510937,0.06342795491218567,-0.004475852474570274
1783244191792583700,1.579583740234375,-0.017824366688728333,0.06355271488428116,-0.029584091156721115
1783244191802594600,1.589594482421875,-0.02262790873646736,0.06211327388882637,-0.046787045896053314
1783244191812605700,1.599605712890625,-0.016724716871976852,0.06498149782419205,-0.05480726435780525
1783244191822617900,1.609617919921875,-0.0019244654104113579,0.055378399789333344,-0.055720195174217224
1783244191832628700,1.619628662109375,0.009337399154901505,0.040130697190761566,-0.04690082371234894
1783244191842639600,1.6296396484375,0.019313599914312363,0.023774627596139908,-0.031590044498443604
1783244191852650800,1.639650634765625,0.024970367550849915,0.01045809406787157,-0.014421626925468445
1783244191862663000,1.649662841796875,0.03257768601179123,0.0038033872842788696,0.0004803566262125969
1783244191872673800,1.659673828125,0.03799714520573616,-0.008335059508681297,0.011957816779613495
1783244191882684700,1.6696845703125,0.044521089643239975,-0.017156247049570084,0.017003975808620453
1783244191892695600,1.679695556640625,0.04670660197734833,-0.009369568899273872,0.018472889438271523
1783244191902707700,1.689707763671875,0.039405278861522675,0.007560678757727146,0.016262998804450035
1783244191912718800,1.69971875,0.02292567491531372,0.017983239144086838,0.011453844606876373
1783244191922729700,1.709729736328125,0.006622867658734322,0.02618417702615261,0.0022049532271921635
1783244191932741600,1.71974169921875,0.002029181458055973,0.018496697768568993,-0.006532345898449421
1783244191942752800,1.729752685546875,0.005971991457045078,0.0039896597154438496,-0.00956488773226738
1783244191952764000,1.739763916015625,0.0032748959492892027,-0.0072949910536408424,-0.009802121669054031
1783244191962774800,1.74977490234375,0.0033758298959583044,-0.011859116144478321,-0.0035159969702363014
1783244191972786700,1.75978662109375,-0.0012682355009019375,-0.0041758110746741295,0.006444394588470459
1783244191982797600,1.769797607421875,-0.007495771627873182,0.012302231974899769,0.016395296901464462
1783244191992808700,1.77980859375,-0.01463539432734251,0.021002348512411118,0.018926048651337624
1783244192002819800,1.78981982421875,-0.019079145044088364,0.02137332782149315,0.02023046463727951
1783244192012831700,1.799831787109375,-0.012291683815419674,0.018243612721562386,0.0163276307284832
1783244192022842600,1.809842529296875,-0.002979408949613571,0.007980854250490665,0.00983431190252304
1783244192032853800,1.819853759765625,0.0020983684808015823,-0.0024431312922388315,0.006482074968516827
1783244192042865000,1.829864990234375,0.008029760792851448,-0.0022292796056717634,0.003655661828815937
1783244192052876800,1.839876708984375,0.012867318466305733,-0.005294074770063162,-0.0008208134677261114
1783244192062887700,1.8498876953125,0.010730132460594177,0.0013180215610191226,-0.0051764133386313915
1783244192072898600,1.859898681640625,0.009409094229340553,0.0063659255392849445,-0.01071508601307869
1783244192082910700,1.86991064453125,0.015912000089883804,0.007921211421489716,-0.012100995518267155
1783244192092921900,1.879921875,0.020544404163956642,0.011790546588599682,-0.011563705280423164
1783244192102932700,1.8899326171875,0.02342514507472515,0.014466756954789162,-0.011388735845685005
1783244192112943600,1.899943603515625,0.025503044947981834,0.008835799992084503,-0.014685862697660923
1783244192122955800,1.909955810546875,0.025615962222218513,0.004688725806772709,-0.01873386651277542
1783244192132966700,1.919966552734375,0.020304426550865173,0.005312217399477959,-0.019367050379514694
1783244192142977800,1.929977783203125,0.013863837346434593,0.008153277449309826,-0.019076766446232796
1783244192152988700,1.93998876953125,0.008844742551445961,-0.0023776923771947622,-0.01245361752808094
1783244192163000800,1.950000732421875,0.007363759446889162,-0.002435216447338462,-0.004789839498698711
1783244192173011700,1.96001171875,0.0050444211810827255,0.005187639966607094,0.002852068282663822
1783244192183022800,1.97002294921875,0.005428715609014034,0.013574732467532158,0.007196749094873667
1783244192193033700,1.98003369140625,0.0046292985789477825,0.005648573394864798,0.011635443195700645
1783244192203045600,1.990045654296875,0.0028116910252720118,-0.0012210507411509752,0.009878022596240044
1783244192213056800,2.000056884765625,0.006871661636978388,-0.0020139762200415134,0.007025457918643951
1783244192223067600,2.010067626953125,0.013298667967319489,0.008969699032604694,-0.004302297253161669
1783244192233079600,2.02007958984375,0.014402776956558228,-0.012048320844769478,-0.008877734653651714
1783244192243090700,2.030090576171875,0.006307300180196762,-0.04096226021647453,-0.00809583067893982
1783244192253101800,2.040101806640625,0.002918943529948592,-0.04890311881899834,-0.008178445510566235
1783244192263112700,2.05011279296875,0.004169031046330929,-0.026517117395997047,-0.00048457318916916847
1783244192273124600,2.06012451171875,-0.0018496760167181492,0.011964776553213596,0.008070549927651882
1783244192283135700,2.0701357421875,-0.01170763373374939,0.042667027562856674,0.01329300832003355
1783244192293146600,2.080146728515625,-0.020075377076864243,0.05587130784988403,0.0114382179453969
1783244192303157800,2.09015771484375,-0.0217403843998909,0.051561515778303146,0.0008353744633495808
1783244192313169700,2.100169677734375,-0.014794696122407913,0.04189208149909973,-0.01634986698627472
1783244192323180800,2.110180908203125,-0.006564730312675238,0.02396048605442047,-0.032319776713848114
1783244192333191700,2.120191650390625,0.0007501107174903154,0.003541553858667612,-0.03604794293642044
1783244192343202800,2.130202880859375,0.005508380942046642,0.000007006339728832245,-0.03226838633418083
1783244192353214700,2.140214599609375,0.008568426594138145,0.006700892001390457,-0.024289319291710854
1783244192363225600,2.1502255859375,0.007461616303771734,0.00975287426263094,-0.009749257937073708
1783244192373236700,2.16023681640625,0.0020940613467246294,0.009704774245619774,0.007704515941441059
1783244192383249000,2.170248779296875,0.0007848513778299093,0.005813096649944782,0.02447870373725891
1783244192393259800,2.180259765625,0.002433439716696739,-0.00020517408847808838,0.036290522664785385
1783244192403270700,2.190270751953125,0.009887894615530968,-0.002865938236936927,0.04208609089255333
1783244192413281800,2.20028173828125,0.013599935919046402,0.01258487906306982,0.03957807645201683
1783244192423294000,2.2102939453125,0.014719795435667038,0.029184095561504364,0.02999735437333584
1783244192433304800,2.220304931640625,0.013614251278340816,0.037464920431375504,0.01482092309743166
1783244192443315700,2.230315673828125,0.008588866330683231,0.04237259551882744,-0.005462510045617819
1783244192453326600,2.24032666015625,0.00789465568959713,0.048304084688425064,-0.029134443029761314
1783244192463338500,2.25033837890625,0.007188118994235992,0.042887214571237564,-0.04438157379627228
1783244192473350000,2.260349853515625,0.012700043618679047,0.024585606530308723,-0.051460035145282745
1783244192483360800,2.27036083984375,0.01772223226726055,0.005802065134048462,-0.0458250530064106
1783244192493371600,2.28037158203125,0.03190238028764725,-0.002512536710128188,-0.03336046263575554
1783244192503383600,2.290383544921875,0.044224828481674194,-0.006279844790697098,-0.012778755277395248
1783244192513395000,2.30039501953125,0.04688325151801109,-0.008325757458806038,0.004308800678700209
1783244192523405800,2.31040576171875,0.044783614575862885,0.0030123835895210505,0.013796577230095863
1783244192533417700,2.320417724609375,0.03677445277571678,0.014448456466197968,0.01983611471951008
1783244192543428600,2.3304287109375,0.026736997067928314,0.030843675136566162,0.012016808614134789
1783244192553439700,2.340439697265625,0.008808615617454052,0.028815854340791702,0.0016479860059916973
1783244192563451000,2.350450927734375,-0.00382462190464139,0.012484818696975708,-0.005283955950289965
1783244192573463000,2.360463134765625,-0.001598393078893423,-0.008927588351070881,-0.005987396463751793
1783244192583474000,2.370473876953125,0.006138888653367758,-0.017411619424819946,-0.002243524417281151
1783244192593484800,2.38048486328125,0.012500638142228127,-0.026657672598958015,0.008179322816431522
1783244192603496200,2.39049609375,0.003938576206564903,-0.024358032271265984,0.018090808764100075
1783244192613508000,2.400508056640625,-0.005935819819569588,-0.01261985208839178,0.030596185475587845
1783244192623519000,2.41051904296875,-0.011179584078490734,0.005776731297373772,0.03987277299165726
1783244192633529900,2.42052978515625,-0.01772412844002247,0.03517204523086548,0.04176599904894829
1783244192643542000,2.4305419921875,-0.02026558294892311,0.04575677588582039,0.03180284798145294
1783244192653553000,2.440552978515625,-0.020973440259695053,0.045209769159555435,0.015334206633269787
1783244192663564000,2.45056396484375,-0.019378207623958588,0.035464730113744736,-0.008488834835588932
1783244192673575000,2.460574951171875,-0.015536479651927948,0.022800205275416374,-0.024800509214401245
1783244192683587000,2.470587158203125,-0.004848149139434099,0.014858661219477654,-0.03596554324030876
1783244192693598000,2.480597900390625,0.007104871794581413,0.005457332357764244,-0.03462432697415352
1783244192703609000,2.490609130859375,0.02009017951786518,0.007371879182755947,-0.03120242990553379
1783244192713620000,2.500619873046875,0.02678198367357254,0.012123079039156437,-0.02425191178917885
1783244192723631900,2.5106318359375,0.026860013604164124,0.011719344183802605,-0.01794048398733139
1783244192733643000,2.52064306640625,0.025261715054512024,0.010833865962922573,-0.011127829551696777
1783244192743654000,2.53065380859375,0.02470272034406662,0.013349487446248531,-0.0023439256474375725
1783244192753665000,2.5406650390625,0.018965287134051323,0.019404835999011993,0.005394887179136276
1783244192763677000,2.550677001953125,0.01599240116775036,0.02154894545674324,0.010256487876176834
1783244192773688000,2.56068798828125,0.011462217196822166,0.020175687968730927,0.008296852931380272
1783244192783699000,2.570698974609375,0.007949241437017918,0.014116995967924595,0.004129539709538221
1783244192793710800,2.5807109375,0.010725338011980057,0.005824622698128223,-0.0033417618833482265
1783244192803722000,2.590721923828125,0.013194089755415916,-0.001215443480759859,-0.004006486851722002
1783244192813732900,2.60073291015625,0.018701644614338875,0.0041924165561795235,-0.004060965031385422
1783244192823744000,2.610743896484375,0.0265640951693058,0.009512613527476788,-0.0022247156593948603
1783244192833756000,2.620755859375,0.02496466413140297,0.018043192103505135,-0.004295320715755224
1783244192843767000,2.63076708984375,0.021006673574447632,0.02138173021376133,-0.0076639531180262566
1783244192853778000,2.64077783203125,0.01681099273264408,0.0195787250995636,-0.011290760710835457
1783244192863789000,2.6507890625,0.009335499256849289,0.018797356635332108,-0.01853056438267231
1783244192873801000,2.660801025390625,0.004723344463855028,0.01531533244997263,-0.024147868156433105
1783244192883811800,2.670811767578125,0.004260220564901829,0.0020455995108932257,-0.020119572058320045
1783244192893823000,2.680822998046875,0.004053999669849873,-0.011495108716189861,-0.012007603421807289
1783244192903833900,2.690833740234375,0.005582920275628567,-0.02139061689376831,-0.0007275186944752932
1783244192913846000,2.700845947265625,0.010420609265565872,-0.02711789496243,0.014166245236992836
1783244192923857000,2.71085693359375,0.016270508989691734,-0.02398974634706974,0.024527806788682938
1783244192933868000,2.720867919921875,0.012724857777357101,-0.009264210239052773,0.029461245983839035
1783244192943880200,2.730880126953125,0.000003203749656677246,0.007732084020972252,0.026762664318084717
1783244192953891000,2.74089111328125,-0.018455274403095245,0.024289708584547043,0.01685335487127304
1783244192963902000,2.75090185546875,-0.034370057284832,0.03438069298863411,0.006362896878272295
1783244192973912800,2.760912841796875,-0.035562653094530106,0.03644125908613205,-0.0013861183542758226
1783244192983925000,2.770925048828125,-0.024355271831154823,0.018300870433449745,-0.011843020096421242
1783244192993936100,2.78093603515625,-0.011004375293850899,-0.008122233673930168,-0.015103146433830261
1783244193003947000,2.790947021484375,0.00276736356317997,-0.030956711620092392,-0.01548397820442915
1783244193013958000,2.8009580078125,0.010316304862499237,-0.03412792831659317,-0.009838791564106941
1783244193023969800,2.8109697265625,0.009482203051447868,-0.028377097100019455,0.0014178580604493618
1783244193033981200,2.820981201171875,0.001821674988605082,-0.007127276621758938,0.014461403712630272
1783244193043992000,2.830991943359375,-0.008312985301017761,0.010270887985825539,0.02106604352593422
1783244193054003000,2.8410029296875,-0.015240903943777084,0.016454942524433136,0.026086388155817986
1783244193064014800,2.851014892578125,-0.01672881282866001,0.017830198630690575,0.02424481324851513
1783244193074026000,2.86102587890625,-0.013364341109991074,0.017231546342372894,0.017920201644301414
1783244193084037000,2.871037109375,-0.006277402397245169,0.018550343811511993,0.0071325344033539295
1783244193094049000,2.881049072265625,0.005759728141129017,0.023391498252749443,-0.006760277785360813
1783244193104060000,2.891059814453125,0.00960373505949974,0.025992607697844505,-0.022405285388231277
1783244193114070800,2.90107080078125,0.00607915036380291,0.020696500316262245,-0.03929654881358147
1783244193124082200,2.911082275390625,0.0026242316234856844,0.011823379434645176,-0.04930683970451355
1783244193134094000,2.921093994140625,0.002996679162606597,0.0053124562837183475,-0.04649856314063072
1783244193144105000,2.93110498046875,0.0011479128152132034,-0.004142032004892826,-0.03577694296836853
1783244193154115800,2.94111572265625,0.0009908319916576147,-0.0020564072765409946,-0.020515747368335724
1783244193164127000,2.951126953125,0.00834674946963787,0.01291481964290142,-0.003874986432492733
1783244193174139100,2.96113916015625,0.019233321771025658,0.021377572789788246,0.0077695478685200214
1783244193184150000,2.97114990234375,0.030091561377048492,0.030453091487288475,0.009565850719809532
1783244193194161000,2.981160888671875,0.030475081875920296,0.029092147946357727,0.0016179350204765797
1783244193204173000,2.991173095703125,0.025355421006679535,0.01412411779165268,-0.016061194241046906
1783244193214184000,3.001183837890625,0.012687602080404758,-0.01569361425936222,-0.02672729454934597
1783244193224195000,3.011195068359375,0.0017505318392068148,-0.0407923087477684,-0.027880176901817322
1783244193234206000,3.0212060546875,0.0011539089027792215,-0.044659245759248734,-0.01114776823669672
1783244193244217900,3.0312177734375,0.0007544346153736115,-0.033349331468343735,0.01175009086728096
1783244193254229000,3.04122900390625,-0.0018123295158147812,-0.019452054053544998,0.036472104489803314
1783244193264240000,3.051240234375,-0.009133625775575638,-0.004352463874965906,0.05191444605588913
1783244193274251000,3.0612509765625,-0.019869700074195862,0.008420554921030998,0.055558208376169205
1783244193284263000,3.071262939453125,-0.026807233691215515,0.020117424428462982,0.04720466956496239
1783244193294274000,3.081274169921875,-0.0319945365190506,0.029747413471341133,0.028953762724995613
1783244193304285000,3.091284912109375,-0.03334715589880943,0.034401822835206985,0.0027408013120293617
1783244193314297000,3.101297119140625,-0.02695823460817337,0.03197062015533447,-0.023082805797457695
1783244193324308000,3.111307861328125,-0.02051045373082161,0.018570393323898315,-0.04181068763136864
1783244193334318800,3.12131884765625,-0.010244804434478283,0.009532407857477665,-0.04835698753595352
1783244193344330000,3.131330078125,-0.00004116934724152088,0.00673395860940218,-0.046328991651535034
1783244193354342000,3.141341796875,0.0075695207342505455,0.004045556765049696,-0.03280962258577347
1783244193364353000,3.15135302734375,0.010530956089496613,0.004796568304300308,-0.013623409904539585
1783244193374364000,3.161364013671875,0.013863736763596535,0.014409277588129044,0.003324812278151512
1783244193384374800,3.171374755859375,0.021146150305867195,0.017467917874455452,0.016211049631237984
1783244193394387000,3.181386962890625,0.022461337968707085,0.017991362139582634,0.018921269103884697
1783244193404398000,3.191398193359375,0.020791802555322647,0.01366878580302,0.01599605195224285
1783244193414409000,3.201408935546875,0.016769815236330032,0.009818801656365395,0.0039985766634345055
1783244193424419800,3.211419921875,0.01807636208832264,0.008059251122176647,-0.007927324622869492
1783244193434432000,3.221431884765625,0.01939808949828148,0.0031632957980036736,-0.014976180158555508
1783244193444443000,3.23144287109375,0.01705397479236126,-0.0008183962199836969,-0.017533080652356148
1783244193454454000,3.2414541015625,0.01430647261440754,0.0029751292895525694,-0.016846848651766777
1783244193464466000,3.2514658203125,0.012981018051505089,0.014135638251900673,-0.012667816132307053
1783244193474477000,3.26147705078125,0.01031435839831829,0.014839230105280876,-0.005796313285827637
1783244193484488000,3.271488037109375,0.004047140944749117,0.004773279651999474,0.0005260310135781765
1783244193494499000,3.2814990234375,-0.00022578192874789238,-0.004946057219058275,0.006931651849299669
1783244193504511000,3.291510986328125,-0.0036577978171408176,-0.001423494191840291,0.014714207500219345
1783244193514522000,3.301522216796875,-0.0009192870929837227,0.006247370503842831,0.019225548952817917
1783244193524533000,3.311532958984375,-0.0020191725343465805,0.015498925000429153,0.020781368017196655
1783244193534544000,3.3215439453125,0.002338631311431527,0.014481626451015472,0.015060598962008953
1783244193544555800,3.3315556640625,0.005067306105047464,0.010665583424270153,0.0027149831876158714
1783244193554567000,3.34156689453125,0.005508518777787685,0.004151994828134775,-0.009770416654646397
1783244193564578000,3.351578125,-0.001673228107392788,-0.001236112555488944,-0.021462759003043175
1783244193574589200,3.361589111328125,-0.005487747956067324,-0.002222648588940501,-0.023962512612342834
1783244193584601000,3.37160107421875,-0.002717527560889721,0.005273350514471531,-0.02236754633486271
1783244193594612200,3.3816123046875,-0.0010849907994270325,-0.0008544083684682846,-0.015119824558496475
1783244193604623000,3.391623046875,-0.0016969852149486542,-0.008740561082959175,-0.008792153559625149
1783244193614635300,3.40163525390625,-0.0071283187717199326,-0.009979847818613052,-0.0030103649478405714
1783244193624646100,3.411646240234375,-0.01051000040024519,-0.0026716007851064205,0.0014315214939415455
1783244193634657000,3.421656982421875,-0.018204817548394203,-0.0014954160433262587,0.008624904789030552
1783244193644668200,3.431668212890625,-0.02553516812622547,0.00404023053124547,0.01276638638228178
1783244193654680300,3.441680419921875,-0.02240827865898609,0.0050954087637364864,0.016562694683670998
1783244193664691200,3.451691162109375,-0.016309106722474098,0.010233179666101933,0.016657236963510513
1783244193674702000,3.4617021484375,-0.018484368920326233,0.010399979539215565,0.010252563282847404
1783244193684713200,3.471713134765625,-0.020158963277935982,0.01353372074663639,-0.0018730750307440758
1783244193694725400,3.481725341796875,-0.026867741718888283,0.01364122610539198,-0.012043116614222527
1783244193704736300,3.491736328125,-0.035366691648960114,0.014900634996592999,-0.012293986976146698
1783244193714747100,3.5017470703125,-0.03338733687996864,0.0048378207720816135,-0.0006968206726014614
1783244193724759000,3.511759033203125,-0.02499917708337307,-0.011343812569975853,0.014329532161355019
1783244193734770200,3.521770263671875,-0.014820106327533722,-0.024337053298950195,0.03217803314328194
1783244193744781300,3.53178125,-0.003548809327185154,-0.026866523548960686,0.04911653697490692
1783244193754792200,3.541792236328125,0.001356723834760487,-0.006509408354759216,0.05641309916973114
1783244193764804000,3.55180419921875,0.003644379088655114,0.014566315338015556,0.04862787947058678
1783244193774815000,3.56181494140625,0.0010686423629522324,0.03509080037474632,0.030803047120571136
1783244193784826400,3.571826416015625,0.0012018003035336733,0.05649169534444809,0.001801223959773779
1783244193794837200,3.581837158203125,-0.001596758607774973,0.06417513638734818,-0.030284762382507324
1783244193804849200,3.59184912109375,0.0004837028682231903,0.05468442291021347,-0.05721890926361084
1783244193814860000,3.601860107421875,0.009351477958261967,0.0281948521733284,-0.07738909125328064
1783244193824871400,3.611871337890625,0.02094448357820511,0.0015371419722214341,-0.08639909327030182
1783244193834882300,3.62188232421875,0.0325816348195076,-0.019151033833622932,-0.07239433377981186
1783244193844894200,3.631894287109375,0.0455688051879406,-0.03135336935520172,-0.046128638088703156
1783244193854905000,3.641905029296875,0.052453380078077316,-0.020859170705080032,-0.012556315399706364
1783244193864916000,3.651916015625,0.04952443763613701,0.0029814462177455425,0.017568297684192657
1783244193874928000,3.66192822265625,0.038129303604364395,0.018886908888816833,0.03664691746234894
1783244193884939300,3.671939208984375,0.02395356446504593,0.010995697230100632,0.04562736302614212
1783244193894950100,3.6819501953125,0.011814562603831291,0.001357613131403923,0.04579732194542885
1783244193904961000,3.6919609375,0.0025038851890712976,-0.0031220901291817427,0.04184359312057495
1783244193914973200,3.70197314453125,-0.0063588861376047134,-0.001534860348328948,0.03231961280107498
1783244193924984300,3.711984375,-0.008889421820640564,0.005213323049247265,0.023631848394870758
1783244193934995200,3.7219951171875,-0.008383833803236485,0.0058976225554943085,0.02061120793223381
1783244193945006000,3.732006103515625,-0.009785454720258713,0.0010139179648831487,0.012476318515837193
1783244193955018200,3.742018310546875,-0.014539243653416634,-0.0012117894366383553,0.008904536254703999
1783244193965029000,3.752029052734375,-0.016298793256282806,0.0004862421192228794,0.00831597764045
1783244193975040300,3.762040283203125,-0.009831830859184265,0.01212594285607338,0.004511618055403233
1783244193985052200,3.77205224609375,-0.006474916357547045,0.02037694863975048,0.003906813450157642
1783244193995063000,3.78206298828125,-0.007241393439471722,0.018452106043696404,0.00008551497012376785
1783244194005074200,3.79207421875,-0.011307774111628532,0.008734231814742088,-0.006075441837310791
1783244194015085300,3.802085205078125,-0.011425659991800785,0.0010400329483672976,-0.012069253250956535
1783244194025097200,3.81209716796875,-0.005832222290337086,0.010202905163168907,-0.012571791186928749
1783244194035108000,3.822108154296875,0.004814158193767071,0.022417450323700905,-0.013914406299591064
1783244194045119200,3.832119140625,0.01669531874358654,0.020539656281471252,-0.012406257912516594
1783244194055130400,3.84213037109375,0.023090947419404984,0.01746167615056038,-0.015526467934250832
1783244194065142300,3.852142333984375,0.021303165704011917,0.011758517473936081,-0.02352527156472206
1783244194075153200,3.862153076171875,0.015010557137429714,0.005967800039798021,-0.027981439605355263
1783244194085164000,3.8721640625,0.005255930591374636,0.0011733111459761858,-0.030156442895531654
1783244194095175200,3.882175048828125,-0.0026126201264560223,-0.0011612814851105213,-0.024544071406126022
1783244194105187000,3.89218701171875,-0.002665350679308176,-0.002142123645171523,-0.009341948665678501
1783244194115198200,3.9021982421875,-0.0007347851060330868,-0.0016429706010967493,0.007930632680654526
1783244194125209000,3.912208984375,0.00145726278424263,-0.009686782024800777,0.025027329102158546
1783244194135221200,3.92222119140625,0.0025089618284255266,-0.016811959445476532,0.03464353084564209
1783244194145232100,3.932232177734375,0.001599225914105773,-0.014326165430247784,0.0380244106054306
1783244194155243300,3.9422431640625,-0.0005523776635527611,-0.004572621546685696,0.03375004976987839
1783244194165254100,3.952254150390625,-0.009144533425569534,0.0031441536266356707,0.024883855134248734
1783244194175266300,3.962266357421875,-0.016256101429462433,0.007830827496945858,0.011150315403938293
1783244194185277200,3.972277099609375,-0.02044259011745453,0.00877651572227478,-0.004149278625845909
1783244194195288000,3.9822880859375,-0.020917341113090515,0.008003872819244862,-0.01583586260676384
1783244194205299200,3.99229931640625,-0.01817455142736435,0.005676004104316235,-0.022565403953194618
1783244194215311400,4.002311279296875,-0.013421617448329926,0.0040308828465640545,-0.020887311547994614
1783244194225322200,4.012322265625,-0.0050427792593836784,0.0022401735186576843,-0.015637153759598732
1783244194235333000,4.0223330078125,-0.004153558984398842,-0.0031370315700769424,-0.007470393553376198
1783244194245345000,4.032344970703125,-0.0018430002965033054,-0.0065669165924191475,0.00007034651935100555
1783244194255356200,4.042356201171875,-0.00014060689136385918,-0.006563232280313969,0.007224118337035179
1783244194265367300,4.0523671875,0.0042472174391150475,-0.003946675918996334,0.016579004004597664
1783244194275378200,4.062378173828125,0.011051604524254799,0.0006170034175738692,0.020458392798900604
1783244194285390000,4.07239013671875,0.007668590173125267,0.0010154122719541192,0.017821066081523895
1783244194295401200,4.082401123046875,0.004892823286354542,0.004911454394459724,0.009466678835451603
1783244194305412400,4.092412353515625,-0.006236792542040348,0.01050702203065157,-0.00019127409905195236
1783244194315423200,4.10242333984375,-0.01528091635555029,0.013651490211486816,-0.00686996802687645
1783244194325435100,4.11243505859375,-0.015699565410614014,0.019367167726159096,-0.009966159239411354
1783244194335446000,4.122446044921875,-0.007392522878944874,0.012311166152358055,-0.012751072645187378
1783244194345457200,4.13245703125,-0.0003623103257268667,-0.002042739186435938,-0.01111056562513113
1783244194355468300,4.14246826171875,0.0043489038944244385,-0.007694113068282604,-0.011925024911761284
1783244194365480200,4.152480224609375,0.0038365116342902184,-0.008865637704730034,-0.009039755910634995
1783244194375491000,4.162490966796875,0.0010838503949344158,-0.0009881134610623121,0.0002791211009025574
1783244194385502200,4.172502197265625,-0.003003569319844246,0.0037208879366517067,0.010000457987189293
1783244194395514400,4.182514404296875,-0.007738164626061916,0.005038090515881777,0.018628939986228943
1783244194405525200,4.192525146484375,-0.007107528857886791,0.004390942398458719,0.024128632619976997
1783244194415536000,4.2025361328125,-0.0058250888250768185,-0.0028579586651176214,0.024992182850837708
1783244194425547000,4.212547119140625,-0.009965239092707634,-0.002933059586212039,0.028753899037837982
1783244194435559200,4.22255908203125,-0.009881889447569847,0.009074581786990166,0.026809697970747948
1783244194445570300,4.2325703125,-0.00529539305716753,0.02685118280351162,0.02130095101892948
1783244194455581200,4.242581298828125,-0.0002685307990759611,0.039608586579561234,0.005673460196703672
1783244194465592000,4.252592041015625,0.005864729173481464,0.03728977218270302,-0.016543693840503693
1783244194475604200,4.262604248046875,0.00752268498763442,0.0306665301322937,-0.037458449602127075
1783244194485615400,4.272615478515625,0.013126509264111519,0.020688999444246292,-0.056109100580215454
1783244194495626200,4.282626220703125,0.018542367964982986,0.004036975093185902,-0.0641908124089241
1783244194505638100,4.29263818359375,0.02162710763514042,-0.013321508653461933,-0.056748077273368835
1783244194515649000,4.30264892578125,0.022608280181884766,-0.01731330342590809,-0.03731564059853554
1783244194525660200,4.31266015625,0.02366155944764614,-0.016987599432468414,-0.013513372279703617
1783244194535671300,4.32267138671875,0.02204916812479496,-0.007730485405772924,0.012569415383040905
1783244194545683200,4.33268310546875,0.015498058870434761,0.007130219601094723,0.029328957200050354
1783244194555694000,4.342694091796875,0.00763726606965065,0.018407480791211128,0.033360209316015244
1783244194565705200,4.352705322265625,-0.003650808706879616,0.022357482463121414,0.028676506131887436
1783244194575715800,4.3627158203125,-0.011183192953467369,0.0162812452763319,0.016015708446502686
1783244194585727700,4.372727783203125,-0.01220637932419777,0.0005435608327388763,0.0017603388987481594
1783244194595739000,4.38273876953125,-0.011852812021970749,-0.01707381382584572,-0.008426918648183346
1783244194605749800,4.392749755859375,-0.009840527549386024,-0.02971930243074894,-0.012875995598733425
1783244194615761700,4.40276171875,-0.007828665897250175,-0.027110422030091286,-0.005249545443803072
1783244194625772800,4.412772705078125,-0.005894945468753576,-0.017591750249266624,0.0025990563444793224
1783244194635784000,4.422783935546875,-0.008398788049817085,-0.009446785785257816,0.0168997123837471
1783244194645794800,4.432794921875,-0.016338204964995384,0.00360430171713233,0.026554469019174576
1783244194655806700,4.442806640625,-0.02649683691561222,0.01894780620932579,0.026655305176973343
1783244194665817900,4.45281787109375,-0.03203221783041954,0.03291315585374832,0.021659478545188904
1783244194675828700,4.462828857421875,-0.032439809292554855,0.03837721049785614,0.012302312068641186
1783244194685840000,4.47283984375,-0.0331982783973217,0.03451669216156006,0.00429818220436573
1783244194695851800,4.482851806640625,-0.029088221490383148,0.030584532767534256,-0.003301414428278804
1783244194705862700,4.492862548828125,-0.031193982809782028,0.03128201514482498,-0.0021019265986979008
1783244194715873800,4.502873779296875,-0.031905218958854675,0.022592861205339432,0.003922310192137957
1783244194725885000,4.512885009765625,-0.03326449543237686,0.017488380894064903,0.009365811944007874
1783244194735896800,4.522896728515625,-0.03003903292119503,0.020679961889982224,0.016110224649310112
1783244194745907700,4.53290771484375,-0.024302318692207336,0.027198048308491707,0.022253338247537613
1783244194755918800,4.5429189453125,-0.015729457139968872,0.04530314356088638,0.019494913518428802
1783244194765931000,4.552930908203125,-0.00918899942189455,0.0346454419195652,0.010788241401314735
1783244194775942000,4.56294189453125,-0.0008866041898727417,0.03145355358719826,0.0002762475050985813
1783244194785952800,4.572952880859375,0.006259189452975988,-0.003133183578029275,-0.01039397343993187
1783244194795963600,4.582963623046875,0.013221501372754574,-0.020523805171251297,-0.015203412622213364
1783244194805975800,4.592975830078125,0.01792890578508377,-0.028201965615153313,-0.014619646593928337
1783244194815987000,4.602987060546875,0.014679765328764915,-0.028282511979341507,-0.011290631256997585
1783244194825997800,4.612997802734375,0.015632910653948784,-0.008753018453717232,-0.0015325427521020174
1783244194836008700,4.6230087890625,0.015014203265309334,0.0021276678889989853,0.014537056908011436
1783244194846020600,4.6330205078125,0.0129145672544837,0.013017334043979645,0.022363821044564247
1783244194856032000,4.643031982421875,0.006543650757521391,0.019107423722743988,0.023837219923734665
1783244194866043000,4.65304296875,0.000132623128592968,0.019869089126586914,0.0146650280803442
1783244194876054800,4.6630546875,-0.0023028082214295864,0.02018253691494465,-0.00041789375245571136
1783244194886065700,4.673065673828125,-0.008544191718101501,0.01092645525932312,-0.015435991808772087
1783244194896076800,4.683076904296875,-0.011361882090568542,0.0016405328642576933,-0.025849096477031708
1783244194906088000,4.693087890625,-0.010630844160914421,-0.006463998928666115,-0.026091443374753
1783244194916099800,4.703099853515625,-0.007075606845319271,-0.010663658380508423,-0.018022267147898674
1783244194926110700,4.71311083984375,-0.009917998686432838,-0.015228316187858582,-0.002036110730841756
1783244194936121600,4.72312158203125,-0.011611631140112877,-0.015389925800263882,0.011947463266551495
1783244194946133000,4.733133056640625,-0.016337409615516663,-0.005450210068374872,0.029071323573589325
1783244194956145000,4.743144775390625,-0.01789812371134758,0.014310152269899845,0.03710062429308891
1783244194966155800,4.75315576171875,-0.01614656299352646,0.02899215742945671,0.0325908288359642
1783244194976166700,4.763166748046875,-0.021137584000825882,0.03263971209526062,0.016616087406873703
1783244194986178800,4.7731787109375,-0.03123921900987625,0.024675793945789337,-0.005192273296415806
1783244194996190000,4.78318994140625,-0.03426818177103996,0.01011616364121437,-0.024433689191937447
1783244195006200800,4.793200927734375,-0.030428435653448105,-0.001816928619518876,-0.03172702342271805
1783244195016211700,4.803211669921875,-0.014323554933071136,-0.009427300654351711,-0.030854079872369766
1783244195026223900,4.813223876953125,-0.00025274395011365414,-0.01848231442272663,-0.018449874594807625
1783244195036234800,4.82323486328125,0.009625471197068691,-0.02724374271929264,-0.002104668878018856
1783244195046246000,4.833245849609375,0.011833231896162033,-0.021559491753578186,0.01672893948853016
1783244195056256800,4.8432568359375,0.007871687412261963,-0.00831419974565506,0.032848089933395386
1783244195066269000,4.85326904296875,0.00002068839967250824,0.008520439267158508,0.04013476520776749
1783244195076279800,4.86327978515625,-0.006933347787708044,0.010985281318426132,0.04025164246559143
1783244195086291000,4.873291015625,-0.010566698387265205,0.004670394118875265,0.038287825882434845
1783244195096302800,4.883302734375,-0.008836612105369568,-0.003212325507774949,0.029044259339571
1783244195106313700,4.893313720703125,0.0008626203052699566,-0.007346350699663162,0.020430266857147217
1783244195116324900,4.903324951171875,0.008532271720468998,-0.0000874912366271019,0.007169951219111681
1783244195126335700,4.913335693359375,0.015449299477040768,0.0160834901034832,-0.004937577992677689
1783244195136347600,4.92334765625,0.017397813498973846,0.03133094683289528,-0.01641932502388954
1783244195146358800,4.93335888671875,0.020264973863959312,0.040816862136125565,-0.03025551326572895
1783244195156370000,4.943369873046875,0.0221413541585207,0.03180992975831032,-0.03857223317027092
1783244195166380800,4.953380859375,0.021391674876213074,0.013671406544744968,-0.04387325420975685
1783244195176392700,4.963392822265625,0.021031826734542847,-0.007302774116396904,-0.03794630244374275
1783244195186403800,4.97340380859375,0.022468335926532745,-0.021027108654379845,-0.023091189563274384
1783244195196414700,4.983414794921875,0.024180874228477478,-0.020846322178840637,-0.0014667029026895761
1783244195206425900,4.99342578125,0.021812260150909424,-0.00518560316413641,0.016871824860572815
1783244195216437800,5.003437744140625,0.01834910549223423,0.01585274189710617,0.028316151350736618
1783244195226449000,5.013448974609375,0.010592648759484291,0.025254765525460243,0.03122592344880104
1783244195236459800,5.023459716796875,0.002964859129860997,0.020269878208637238,0.025805842131376266
1783244195246472000,5.033471923828125,-0.0032914387993514538,0.00716659240424633,0.012174185365438461
1783244195256482800,5.04348291015625,-0.005009920801967382,-0.009566391818225384,0.00002209516242146492
1783244195266493700,5.05349365234375,-0.008276820182800293,-0.0254066064953804,-0.010477949865162373
1783244195276504800,5.0635048828125,-0.011122453957796097,-0.029831554740667343,-0.010753270238637924
1783244195286517000,5.07351708984375,-0.009675025939941406,-0.02368204854428768,0.0006794142536818981
1783244195296528000,5.08352783203125,-0.007128768600523472,-0.011947805993258953,0.013343509286642075
1783244195306538800,5.093538818359375,-0.009998590685427189,-0.0022943795192986727,0.02407817915081978
1783244195316550000,5.1035498046875,-0.01685226522386074,0.0008452276233583689,0.029675718396902084
1783244195326561800,5.113561767578125,-0.02533070556819439,0.0017546971794217825,0.030264809727668762
1783244195336573000,5.123572998046875,-0.03324908763170242,-0.0023359390906989574,0.026145871728658676
1783244195346583800,5.133583740234375,-0.033987317234277725,0.007162490859627724,0.018548140302300453
1783244195356595700,5.143595703125,-0.026164330542087555,0.01846051961183548,0.01025763526558876
1783244195366606600,5.153606689453125,-0.014957481995224953,0.025899261236190796,-0.0017819826025515795
1783244195376618000,5.163617919921875,-0.002539766486734152,0.02108609303832054,-0.015833860263228416
1783244195386628900,5.17362890625,0.005136262625455856,0.004402720369398594,-0.028036996722221375
1783244195396640800,5.183640869140625,0.01037321425974369,-0.01525688637048006,-0.03507430851459503
1783244195406651600,5.193651611328125,0.011881362646818161,-0.0197959803044796,-0.035033296793699265
1783244195416662800,5.203662841796875,0.009020989760756493,-0.012355683371424675,-0.027807988226413727
1783244195426674000,5.213673828125,0.006327468436211348,0.0016133955214172602,-0.012649275362491608
1783244195436685800,5.223685791015625,0.001750256633386016,0.014558473601937294,0.0008372543379664421
1783244195446696700,5.23369677734375,0.004636058118194342,0.02320895344018936,0.008180654607713223
1783244195456707800,5.243707763671875,0.006486156024038792,0.024361569434404373,0.010909861885011196
1783244195466719700,5.2537197265625,0.004046966787427664,0.012818098068237305,0.0028159827925264835
1783244195476731000,5.26373095703125,0.001925923745147884,0.002346786204725504,-0.006018119398504496
1783244195486741800,5.27374169921875,0.0012273765169084072,0.00417557917535305,-0.017300868406891823
1783244195496752600,5.283752685546875,-0.0004982233513146639,-0.003143629990518093,-0.023735180497169495
1783244195506764800,5.293764892578125,-0.0028718989342451096,0.0038527604192495346,-0.02389070764183998
1783244195516776000,5.30377587890625,-0.0025722570717334747,0.004666106775403023,-0.025527765974402428
1783244195526786800,5.313786865234375,0.0001574831549078226,0.00973543431609869,-0.0232534259557724
1783244195536797700,5.323797607421875,-0.000756237655878067,-0.0018186040688306093,-0.013508958742022514
1783244195546809900,5.333809814453125,-0.0021991380490362644,-0.014885935932397842,-0.004522920120507479
1783244195556821000,5.343821044921875,-0.002485832665115595,-0.02076650597155094,0.0070428065955638885
1783244195566831900,5.353831787109375,0.0003898486029356718,-0.02292126975953579,0.022310176864266396
1783244195576843500,5.363843505859375,-0.002407131250947714,-0.01708890311419964,0.04024508595466614
1783244195586854400,5.3738544921875,-0.0027448199689388275,-0.0017392418812960386,0.04812297970056534
1783244195596865500,5.383865478515625,-0.002409942913800478,0.017460955306887627,0.042493246495723724
1783244195606876400,5.39387646484375,-0.003757236059755087,0.02777537889778614,0.026558754965662956
1783244195616888600,5.403888671875,-0.00502278096973896,0.019649192690849304,0.0043885111808776855
1783244195626899500,5.4138994140625,-0.001356407068669796,-0.003960263915359974,-0.014319396577775478
1783244195636910300,5.423910400390625,0.01048230193555355,-0.025145230814814568,-0.02352750301361084
1783244195646921500,5.43392138671875,0.023805031552910805,-0.035721711814403534,-0.02130269818007946
1783244195656933600,5.44393359375,0.023291897028684616,-0.03347194567322731,-0.01604197733104229
1783244195666944500,5.453944580078125,0.011593693867325783,-0.015589619055390358,-0.0000678040087223053
1783244195676955400,5.463955322265625,-0.0019946806132793427,0.006303739733994007,0.012964490801095963
1783244195686967300,5.47396728515625,-0.014172250404953957,0.027010349556803703,0.02208874747157097
1783244195696978400,5.483978515625,-0.0168992280960083,0.02756824530661106,0.027541296556591988
1783244195706989600,5.493989501953125,-0.009924676269292831,0.019287412986159325,0.019226908683776855
1783244195717000400,5.50400048828125,0.002896231599152088,0.0053214081563055515,0.011235091835260391
1783244195727012400,5.514012451171875,0.016163034364581108,-0.011512166820466518,0.002672762144356966
1783244195737023200,5.524023193359375,0.021970195695757866,-0.02763490006327629,-0.0049341763369739056
1783244195747034600,5.53403466796875,0.015597251243889332,-0.03208770602941513,-0.007358452305197716
1783244195757045500,5.54404541015625,0.01175808347761631,-0.03524637967348099,0.0010192692279815674
1783244195767057400,5.554057373046875,0.006271705962717533,-0.031116347759962082,0.012722531333565712
1783244195777068300,5.564068359375,0.0023049176670610905,-0.022364221513271332,0.0337519533932209
1783244195787079400,5.574079345703125,-0.002866941038519144,-0.010324070230126381,0.0540124848484993
1783244195797091600,5.584091552734375,-0.0016040317714214325,0.002678896766155958,0.0662868469953537
1783244195807102500,5.5941025390625,-0.0006189285777509212,0.013878554105758667,0.059643860906362534
1783244195817113300,5.60411328125,-0.0013089720159769058,0.03215858340263367,0.03874743729829788
1783244195827124500,5.61412451171875,-0.0030349665321409702,0.043459970504045486,0.004865370225161314
1783244195837136400,5.624136474609375,-0.005698936525732279,0.04439438879489899,-0.02844594419002533
1783244195847147500,5.6341474609375,-0.0017188424244523048,0.02557596005499363,-0.057365208864212036
1783244195857158400,5.644158447265625,0.005708181299269199,0.003960678819566965,-0.07231060415506363
1783244195867169300,5.654169189453125,0.016379468142986298,-0.016742469742894173,-0.07009245455265045
1783244195877181400,5.664181396484375,0.026623860001564026,-0.026299402117729187,-0.050480443984270096
1783244195887192600,5.674192626953125,0.028966376557946205,-0.024671679362654686,-0.020974481478333473
1783244195897203500,5.684203369140625,0.026800647377967834,-0.016730234026908875,0.01467091403901577
1783244195907214300,5.69421435546875,0.02424907125532627,0.0008937654783949256,0.039787985384464264
1783244195917226200,5.704226318359375,0.021433016285300255,0.018296469002962112,0.05293745547533035
1783244195927237600,5.714237548828125,0.014452071860432625,0.017824824899435043,0.04540097713470459
1783244195937248500,5.72424853515625,0.00518055260181427,0.006791963241994381,0.025778766721487045
1783244195947260400,5.734260498046875,-0.0021809572353959084,-0.015517603605985641,0.0021895510144531727
1783244195957271300,5.744271240234375,-0.008938543498516083,-0.03296702355146408,-0.017322035506367683
1783244195967282400,5.754282470703125,-0.008788608014583588,-0.03205808624625206,-0.02175113745033741
1783244195977293600,5.76429345703125,-0.012412499636411667,-0.014746962115168571,-0.018845248967409134
1783244195987305500,5.774305419921875,-0.013594143092632294,0.004819281864911318,-0.006307619623839855
1783244195997316400,5.78431640625,-0.01270270999521017,0.016222240403294563,0.004906263668090105
1783244196007327200,5.7943271484375,-0.015601028688251972,0.017534645274281502,0.012230223044753075
1783244196017338600,5.804338623046875,-0.017282593995332718,0.009362099692225456,0.007480525877326727
1783244196027350500,5.8143505859375,-0.017992857843637466,0.0017686283681541681,-0.00225758901797235
1783244196037361400,5.824361328125,-0.018400387838482857,-0.006891719996929169,-0.007401897571980953
1783244196047372300,5.834372314453125,-0.010127276182174683,-0.011560240760445595,-0.00922190211713314
1783244196057384400,5.844384521484375,-0.002528407610952854,-0.01042703166604042,-0.00807863473892212
1783244196067395300,5.854395263671875,0.007223555818200111,-0.002188009675592184,-0.004009058233350515
1783244196077406500,5.864406494140625,0.013259988278150558,0.006662319414317608,-0.004730150103569031
1783244196087417300,5.874417236328125,0.0097171850502491,0.013804118148982525,-0.009747279807925224
1783244196097429500,5.884429443359375,0.005036771297454834,0.01890481263399124,-0.017054295167326927
1783244196107440400,5.8944404296875,0.0036820215173065662,0.011155012995004654,-0.02182001993060112
1783244196117451500,5.904451416015625,0.0027392329648137093,0.004547717981040478,-0.024577882140874863
1783244196127462400,5.91446240234375,0.004615429788827896,0.002336228732019663,-0.02100924402475357
1783244196137474600,5.924474609375,0.005107253789901733,-0.0012355512008070946,-0.014244559220969677
1783244196147485400,5.9344853515625,-0.0012869960628449917,-0.004974896088242531,-0.005321904551237822
1783244196157496600,5.94449658203125,-0.005160931497812271,-0.009238909929990768,0.0046128882095217705
1783244196167508500,5.954508544921875,-0.009721062146127224,-0.007634089328348637,0.014770984649658203
1783244196177519400,5.964519287109375,-0.015525119379162788,-0.00014632800593972206,0.018655989319086075
1783244196187530500,5.974530517578125,-0.01825139671564102,0.00407930975779891,0.020706357434391975
1783244196197541400,5.984541259765625,-0.018942350521683693,0.0029240732546895742,0.019969308748841286
1783244196207553300,5.99455322265625,-0.01704990677535534,0.0028566953260451555,0.014832070097327232
1783244196217564400,6.004564453125,-0.013873232528567314,0.0008432688191533089,0.008267292752861977
1783244196227575600,6.014575439453125,-0.012498242780566216,-0.0048865219578146935,0.0024639982730150223
1783244196237586400,6.02458642578125,-0.01150146871805191,-0.0058917030692100525,-0.0012305546551942825
1783244196247598300,6.034598388671875,-0.007999943569302559,0.0021611638367176056,-0.002722191158682108
1783244196257609500,6.044609375,-0.0033780280500650406,0.008754352107644081,-0.003773074597120285
1783244196267620400,6.054620361328125,-0.0004376317374408245,0.012341096997261047,-0.005429294425994158
1783244196277632500,6.064632568359375,-0.0038376175798475742,0.010142159648239613,-0.0066666267812252045
1783244196287643400,6.074643310546875,-0.010117084719240665,0.006756482645869255,-0.009500496089458466
1783244196297654300,6.084654296875,-0.016290836036205292,0.003008532105013728,-0.011692505329847336
1783244196307665400,6.09466552734375,-0.017825616523623466,-0.003226993139833212,-0.00966956838965416
1783244196317677600,6.104677490234375,-0.014000680297613144,-0.014874037355184555,-0.0022599948570132256
1783244196327688400,6.1146884765625,-0.013715455308556557,-0.02447100542485714,0.008836865425109863
1783244196337699300,6.12469921875,-0.00551703292876482,-0.020985065028071404,0.018535377457737923
1783244196347710500,6.13471044921875,0.0037401150912046432,-0.0031727778259664774,0.02483881264925003
1783244196357722600,6.14472265625,0.007050736807286739,0.01064620167016983,0.022700242698192596
1783244196367733500,6.1547333984375,-0.003249038476496935,0.020357150584459305,0.010858763940632343
1783244196377744400,6.164744384765625,-0.017723165452480316,0.02420983649790287,-0.010329170152544975
1783244196387756300,6.17475634765625,-0.029461313039064407,0.018697092309594154,-0.024691596627235413
1783244196397767400,6.184767333984375,-0.032934386283159256,0.011760055087506771,-0.03658641502261162
1783244196407778600,6.194778564453125,-0.029451770707964897,-0.0001261655706912279,-0.05246924236416817
1783244196417789400,6.20478955078125,-0.018416225910186768,-0.0071356212720274925,-0.05743805319070816
1783244196427801300,6.21480126953125,-0.005110275931656361,-0.018312642350792885,-0.0487111397087574
1783244196437812200,6.224812255859375,0.006443820893764496,-0.022927291691303253,-0.033142052590847015
1783244196447823600,6.23482373046875,0.007708821911364794,-0.016916537657380104,-0.014262637123465538
1783244196457834500,6.24483447265625,0.00714862160384655,-0.016656124964356422,0.01161305233836174
1783244196467846400,6.254846435546875,0.004229797050356865,-0.008118830621242523,0.03206906095147133
1783244196477857300,6.264857177734375,0.003854603273794055,0.006047425325959921,0.04205745831131935
1783244196487868700,6.27486865234375,0.0014423119137063622,0.0020103396382182837,0.044795721769332886
1783244196497880600,6.284880615234375,-0.0009863809682428837,0.00882168672978878,0.03598088026046753
1783244196507891500,6.294891357421875,0.00393966818228364,0.010509864427149296,0.01841866597533226
1783244196517902300,6.30490234375,0.006075799465179443,0.011418089270591736,-0.0009380246046930552
1783244196527913200,6.314913330078125,0.004389219917356968,0.014473534189164639,-0.02451365813612938
1783244196537925400,6.32492529296875,0.002956465585157275,0.0172886922955513,-0.04303538799285889
1783244196547936500,6.3349365234375,-0.0008262884803116322,0.009086954407393932,-0.05478046089410782
1783244196557947400,6.344947509765625,-0.0031779324635863304,-0.006035040132701397,-0.05434846878051758
1783244196567958300,6.354958251953125,0.001131861237809062,-0.00968836434185505,-0.0407080240547657
1783244196577970700,6.364970703125,0.0105664674192667,-0.0032494335900992155,-0.021055858582258224
1783244196587981800,6.37498193359375,0.020591137930750847,0.0027338904328644276,0.0010169516317546368
1783244196597993000,6.384992919921875,0.026965061202645302,0.001720914151519537,0.017421159893274307
1783244196608004900,6.3950048828125,0.025642534717917442,0.0036349280271679163,0.022110186517238617
1783244196618015700,6.405015625,0.024086888879537582,0.002224845578894019,0.016155460849404335
1783244196628027000,6.41502685546875,0.015163969248533249,-0.006955869495868683,0.005017589312046766
1783244196638038000,6.4250380859375,0.005690660327672958,-0.024365846067667007,-0.005185982678085566
1783244196648050000,6.4350498046875,-0.001342747826129198,-0.0338890440762043,-0.0059282053261995316
1783244196658060800,6.445060791015625,-0.00479205884039402,-0.03502476587891579,-0.0022409975063055754
1783244196668071700,6.45507177734375,-0.006961735896766186,-0.026426218450069427,0.011259364895522594
1783244196678082800,6.465082763671875,-0.007855774834752083,-0.009866796433925629,0.02361423894762993
1783244196688095000,6.475094970703125,-0.0055649238638579845,-0.0018956889398396015,0.03300214931368828
1783244196698105900,6.48510595703125,-0.006867669057101011,0.0010556596098467708,0.035142768174409866
1783244196708116700,6.49511669921875,-0.005387750919908285,-0.0012141524348407984,0.028656108304858208
1783244196718129000,6.50512890625,-0.002603764645755291,-0.005353357642889023,0.01792869344353676
1783244196728139800,6.515139892578125,-0.001490829512476921,-0.006205569952726364,0.006729569286108017
1783244196738151000,6.52515087890625,-0.0023013679310679436,-0.004694800823926926,-0.003920526709407568
1783244196748161800,6.535161865234375,0.006066284142434597,-0.012191599234938622,-0.010825037956237793
1783244196758174000,6.545174072265625,0.008610447868704796,-0.0052497005090117455,-0.01538228988647461
1783244196768184800,6.555184814453125,0.012534083798527718,-0.0019385926425457,-0.014646725729107857
1783244196778196000,6.565196044921875,0.020312489941716194,0.003270665416494012,-0.012047652155160904
1783244196788206800,6.575206787109375,0.02475118078291416,0.011069465428590775,-0.016031207516789436
1783244196798219000,6.585218994140625,0.023554904386401176,0.010543600656092167,-0.0251785758882761
1783244196808230000,6.59522998046875,0.026121659204363823,-0.000007577240467071533,-0.02920048125088215
1783244196818240800,6.60524072265625,0.027071822434663773,-0.003630131483078003,-0.03444055840373039
1783244196828252700,6.615252685546875,0.027856655418872833,-0.01098045613616705,-0.03293773904442787
1783244196838263800,6.625263916015625,0.02632812038064003,-0.017509063705801964,-0.03241610527038574
1783244196848275000,6.63527490234375,0.028515374287962914,-0.009305461309850216,-0.034251291304826736
1783244196858285800,6.645285888671875,0.024512551724910736,-0.022158615291118622,-0.02644439786672592
1783244196868297700,6.655297607421875,0.03246155381202698,-0.02378500998020172,-0.024075519293546677
1783244196878308900,6.665308837890625,0.02894846722483635,-0.03037324920296669,-0.03231223300099373
1783244196888320000,6.675320068359375,0.027950581163167953,-0.05414116010069847,-0.04971306025981903
1783244196898331000,6.685330810546875,0.02604021318256855,-0.05930249020457268,-0.06462856382131577
1783244196908342800,6.6953427734375,0.020106956362724304,-0.03787576034665108,-0.08279718458652496
1783244196918354000,6.70535400390625,0.009699029847979546,-0.032087575644254684,-0.08789102733135223
1783244196928364800,6.71536474609375,-0.002614094875752926,-0.020953165367245674,-0.08511388301849365
1783244196938377000,6.725376953125,-0.005022823810577393,-0.0197129026055336,-0.07864972949028015
1783244196948387800,6.735387939453125,0.002004193142056465,-0.0029965066350996494,-0.07369944453239441
1783244196958398700,6.745398681640625,0.002537872176617384,-0.04315448924899101,-0.0667053833603859
1783244196968409900,6.755409912109375,-0.004798071458935738,-0.05175170302391052,-0.06134018301963806
1783244196978422000,6.765422119140625,-0.007233147509396076,-0.0684296116232872,-0.055652275681495667
1783244196988433000,6.775432861328125,-0.010814833454787731,-0.0832008346915245,-0.040681853890419006
1783244196998443800,6.78544384765625,-0.009326228871941566,-0.08092891424894333,-0.037360481917858124
1783244197008455700,6.79545556640625,-0.014527382329106331,-0.07709503173828125,-0.034532204270362854
1783244197018467000,6.805467041015625,-0.018847471103072166,-0.07460317015647888,-0.03459489345550537
1783244197028478000,6.81547802734375,-0.0218720231205225,-0.07767752557992935,-0.028297048062086105
1783244197038488800,6.82548876953125,-0.021139074116945267,-0.07948832213878632,-0.021281687542796135
1783244197048500700,6.835500732421875,-0.014216985553503036,-0.07247409224510193,-0.015140170231461525
1783244197058511600,6.84551171875,-0.010257551446557045,-0.10200928896665573,-0.014002226293087006
1783244197068523000,6.85552294921875,-0.015331140719354153,-0.16241563856601715,-0.037355221807956696
1783244197078534000,6.865533935546875,-0.026042623445391655,-0.21883858740329742,-0.07557311654090881
1783244197088545800,6.8755458984375,-0.04280935600399971,-0.25898733735084534,-0.10635979473590851
1783244197098556700,6.885556640625,-0.053464408963918686,-0.2510589361190796,-0.11336369812488556
1783244197108568000,6.895568115234375,-0.04452657327055931,-0.2023678421974182,-0.1023177057504654
1783244197118579000,6.905578857421875,-0.031427860260009766,-0.17938460409641266,-0.08738718181848526
1783244197128590800,6.9155908203125,-0.02449166029691696,-0.17041854560375214,-0.087303027510643
1783244197138601700,6.925601806640625,-0.03270876035094261,-0.15766534209251404,-0.09394606947898865
1783244197148612900,6.93561279296875,-0.04173474758863449,-0.1604400873184204,-0.07500912994146347
1783244197158624800,6.945624755859375,-0.03761617839336395,-0.1531447023153305,-0.043781403452157974
1783244197168636000,6.955635986328125,-0.02821015939116478,-0.11477041989564896,-0.01601981371641159
1783244197178646800,6.965646728515625,-0.020755093544721603,-0.07840669900178909,-0.0002909805625677109
1783244197188657700,6.97565771484375,-0.035155605524778366,-0.05238974466919899,0.011165405623614788
1783244197198669800,6.985669921875,-0.03249005228281021,-0.02694353275001049,0.02281584031879902
1783244197208681000,6.995680908203125,-0.03165142238140106,-0.010424744337797165,0.03832342475652695
1783244197218691800,7.00569189453125,-0.0317908376455307,0.008333481848239899,0.04763462021946907
1783244197228703700,7.015703857421875,-0.029432076960802078,0.03017859160900116,0.054877616465091705
1783244197238715000,7.02571484375,-0.048622921109199524,0.04134676977992058,0.05654719099402428
1783244197248726000,7.03572607421875,-0.043697670102119446,0.06399615854024887,0.06104527413845062
1783244197258737000,7.04573681640625,-0.03421735763549805,0.0739179402589798,0.07456404715776443
1783244197268748800,7.055748779296875,-0.02046240121126175,0.06678253412246704,0.09097178280353546
1783244197278760000,7.065760009765625,0.0010894520673900843,0.06557982414960861,0.10587688535451889
1783244197288770800,7.075770751953125,0.0173278097063303,0.05630802363157272,0.11642886698246002
1783244197298782000,7.085781982421875,0.025182371959090233,0.051034651696681976,0.12101428210735321
1783244197308793900,7.0957939453125,0.01493506133556366,0.05183067172765732,0.11501125246286392
1783244197318804700,7.1058046875,-0.004388763569295406,0.0335230752825737,0.09721411764621735
1783244197328815900,7.11581591796875,-0.01840444654226303,0.031255125999450684,0.07148771733045578
1783244197338827800,7.125827880859375,-0.018402712419629097,0.03138486295938492,0.045022934675216675
1783244197348839000,7.1358388671875,-0.01110644917935133,0.023899782449007034,0.025895843282341957
1783244197358849800,7.145849853515625,-0.01150854118168354,0.013112751767039299,0.028649237006902695
1783244197368861000,7.15586083984375,-0.016642315313220024,0.0032433434389531612,0.050606466829776764
1783244197378872800,7.165872802734375,-0.02278883568942547,0.005215337034314871,0.07692346721887589
1783244197388883700,7.1758837890625,-0.028168419376015663,0.006944793276488781,0.1059814840555191
1783244197398894800,7.185894775390625,-0.029946807771921158,0.011074858717620373,0.12398282438516617
1783244197408905700,7.19590576171875,-0.026744090020656586,0.01349593885242939,0.13411137461662292
1783244197418918000,7.20591796875,-0.03195350617170334,0.024231119081377983,0.13161642849445343
1783244197428928800,7.2159287109375,-0.03592721000313759,0.020515210926532745,0.11307070404291153
1783244197438940000,7.22593994140625,-0.03978005796670914,0.012899176217615604,0.08270808309316635
1783244197448952000,7.2359521484375,-0.03855393826961517,0.011602217331528664,0.046517059206962585
1783244197458963000,7.245962890625,-0.03554736077785492,0.00969969853758812,0.017612289637327194
1783244197468973800,7.255973876953125,-0.03935515135526657,0.02197474054992199,0.0006591384299099445
1783244197478985000,7.26598486328125,-0.029117906466126442,0.04094456508755684,-0.0071358876302838326
1783244197488996900,7.275996826171875,-0.011162340641021729,0.04991036280989647,-0.013221210800111294
1783244197499008000,7.286008056640625,-0.0011533512733876705,0.056424979120492935,-0.015127879567444324
1783244197509019000,7.296018798828125,0.004930906929075718,0.043788813054561615,-0.01784323900938034
1783244197519029800,7.30602978515625,0.012056035920977592,0.017928238958120346,-0.02047501504421234
1783244197529041700,7.316041748046875,0.01714267209172249,-0.010829640552401543,-0.017205186188220978
1783244197539053000,7.326052978515625,0.016880109906196594,-0.031052950769662857,-0.00884176790714264
1783244197549064000,7.33606396484375,0.01293863169848919,-0.03432943671941757,0.010328996926546097
1783244197559075800,7.346075927734375,0.00407801428809762,0.0000832793302834034,0.0365605354309082
1783244197569086700,7.356086669921875,-0.006208977662026882,0.02976793795824051,0.059212055057287216
1783244197579098000,7.36609814453125,-0.0063954913057386875,0.04100627079606056,0.07179878652095795
1783244197589109500,7.376109619140625,-0.0029301857575774193,0.05328397452831268,0.06913695484399796
1783244197599121400,7.386121337890625,-0.008873343467712402,0.05013654753565788,0.054526638239622116
1783244197609132300,7.39613232421875,-0.016289712861180305,0.020367203280329704,0.03420858457684517
1783244197619143200,7.40614306640625,-0.023061975836753845,0.005156775005161762,0.019896799698472023
1783244197629154300,7.416154296875,-0.022201508283615112,0.006027095951139927,0.01115470752120018
1783244197639166500,7.42616650390625,-0.01954137720167637,0.004018512554466724,0.008197402581572533
1783244197649177300,7.43617724609375,-0.011654425412416458,-0.007188335061073303,0.00647886423394084
1783244197659188200,7.446188232421875,-0.007621656637638807,-0.01817113347351551,0.0009433054365217686
1783244197669200400,7.456200439453125,-0.006037341896444559,-0.024320373311638832,-0.0004841489717364311
1783244197679211300,7.466211181640625,-0.0009243502281606197,-0.027512256056070328,0.003885338082909584
1783244197689222400,7.476222412109375,0.0030480208806693554,-0.016360001638531685,0.013839169405400753
1783244197699233300,7.4862333984375,0.005970712751150131,0.0035628806799650192,0.018142417073249817
1783244197709245200,7.4962451171875,0.006180036813020706,0.017634226009249687,0.016925886273384094
1783244197719256300,7.50625634765625,0.008364617824554443,0.011679579503834248,0.007343339268118143
1783244197729267500,7.516267333984375,0.008442647755146027,-0.0077029066160321236,-0.004252597223967314
1783244197739279400,7.526279296875,0.007603358011692762,-0.027144473046064377,-0.018011704087257385
1783244197749290200,7.536290283203125,0.011148025281727314,-0.027269640937447548,-0.02255639061331749
1783244197759301400,7.54630126953125,0.015460200607776642,-0.011905446648597717,-0.02125869318842888
1783244197769312300,7.556312255859375,0.01754891686141491,0.013962369412183762,-0.01982218399643898
1783244197779324400,7.566324462890625,0.01373397558927536,0.032684408128261566,-0.0182232353836298
1783244197789335300,7.576335205078125,0.0035338024608790874,0.025528494268655777,-0.021450454369187355
1783244197799346200,7.58634619140625,-0.0006094153504818678,0.0153298769146204,-0.024392563849687576
1783244197809357300,7.596357421875,0.00385191198438406,-0.0012408443726599216,-0.023558994755148888
1783244197819369200,7.606369140625,0.014491531997919083,-0.019206594675779343,-0.0186837837100029
1783244197829380400,7.61638037109375,0.02018536999821663,-0.023030094802379608,-0.017702942714095116
1783244197839391200,7.62639111328125,0.018743371590971947,-0.0195450596511364,-0.022006217390298843
1783244197849403400,7.6364033203125,0.017104994505643845,-0.004186343401670456,-0.03241518512368202
1783244197859414300,7.646414306640625,0.01487225666642189,0.0034014577977359295,-0.04469697177410126
1783244197869425400,7.65642529296875,0.012959041632711887,-0.02180136740207672,-0.05546146631240845
1783244197879436300,7.666436279296875,0.005444216076284647,-0.03388959914445877,-0.05578111112117767
1783244197889448400,7.676448486328125,0.017584502696990967,-0.01608210802078247,-0.03466091305017471
1783244197899459300,7.686459228515625,0.03041262738406658,0.02581668458878994,0.011993497610092163
1783244197909470200,7.69647021484375,0.028737232089042664,0.07109814882278442,0.08422135561704636
1783244197919481300,7.7064814453125,0.024493137374520302,0.12175668030977249,0.13785535097122192
1783244197929493500,7.716493408203125,0.005529032554477453,0.1433144360780716,0.1609625220298767
1783244197939504400,7.72650439453125,-0.01128382608294487,0.12391577661037445,0.14659832417964935
1783244197949515300,7.736515380859375,-0.019195279106497765,0.0936228558421135,0.10300958156585693
1783244197959527200,7.746527099609375,-0.020405568182468414,0.06426244229078293,0.03425227850675583
1783244197969538300,7.756538330078125,-0.0103974100202322,0.016996396705508232,-0.0458257794380188
1783244197979549400,7.766549560546875,0.00603729160502553,-0.04326081648468971,-0.13598988950252533
1783244197989560300,7.776560302734375,0.014162862673401833,-0.09192982316017151,-0.22619540989398956
1783244197999572200,7.786572265625,0.04010068625211716,-0.14149978756904602,-0.29404744505882263
1783244198009583400,7.796583251953125,0.06594746559858322,-0.15684333443641663,-0.31153374910354614
1783244198019594200,7.80659423828125,0.06492992490530014,-0.15735842287540436,-0.2646399736404419
1783244198029606400,7.8166064453125,0.049485187977552414,-0.06522610038518906,-0.1813213974237442
