time,seconds_elapsed,z,y,x
1783245154327271700,0.064271728515625,-0.35405659902095793,-0.012896160321682691,-0.2800301896277815
1783245154337283800,0.074283935546875,-0.4099181869745254,-0.009079963034391403,-0.16127543458342553
1783245154347295700,0.084295654296875,-0.49763738695979115,0.05560629801824689,-0.05807429556697607
1783245154357306600,0.094306640625,-0.5437906508475542,0.18645006171986458,-0.018262290464714167
1783245154367318800,0.10431884765625,-0.4628104037284851,0.29555662538781763,-0.020730507209151983
1783245154377330700,0.11433056640625,-0.37330139771699905,0.3540400862775743,-0.08726224999800324
1783245154387342600,0.124342529296875,-0.22671149109005928,0.3408677393630147,-0.16410715087801217
1783245154397353700,0.134353759765625,-0.06019347967803478,0.2830788366086781,-0.2164139689594507
1783245154407366000,0.144365966796875,0.07825579059123992,0.22455840470939872,-0.2339289481882006
1783245154417377800,0.154377685546875,0.18878712636530398,0.22621932365894315,-0.156819039696455
1783245154427388700,0.164388671875,0.31644670707285405,0.22639672605246305,-0.06428352547064423
1783245154437400800,0.17440087890625,0.4682593167841434,0.16351444568186999,-0.008981690291687846
1783245154447413000,0.1844130859375,0.5730880570024252,0.0679416095867753,-0.028017522412166
1783245154457425000,0.1944248046875,0.6815466781556606,0.023787995083630085,-0.04131934092529118
1783245154467435800,0.204435791015625,0.6622130321323871,0.0676473028153181,-0.03178783473111689
1783245154477448000,0.214447998046875,0.5226946713268756,0.08840104476958513,0.048539063045755025
1783245154487459800,0.2244599609375,0.3043266456902027,0.052829380650818346,0.1543428588412702
1783245154497471700,0.2344716796875,0.02130290026962757,0.05388268909603357,0.2551282419528812
1783245154507483000,0.24448291015625,-0.2008335379898548,0.07784750205129384,0.3572251460544765
1783245154517495000,0.2544951171875,-0.2651905670881271,0.12426467757225036,0.42327838461138306
1783245154527507000,0.2645068359375,-0.2700128726780414,0.11839286292940378,0.37476372535452246
1783245154537517800,0.274517822265625,-0.22078969982564448,0.08353197742849588,0.2761169617068022
1783245154547530000,0.284530029296875,-0.11931260812282561,0.09747428580224514,0.15803659879267215
1783245154557542000,0.2945419921875,-0.04746493100821972,0.14453531218469143,0.08104432533122599
1783245154567554000,0.304553955078125,-0.04276186788380146,0.1303124333038926,0.054224269075319166
1783245154577565000,0.31456494140625,-0.04514905528128147,0.0540253124371171,0.000039528292790055274
1783245154587576800,0.324576904296875,-0.05961188039779663,-0.0007353285372257233,-0.03430573583617806
1783245154597588700,0.334588623046875,-0.09224924463033675,0.013096505199372768,0.006469196014106273
1783245154607601000,0.344600830078125,-0.11369535276293755,0.02721884631514549,0.07894917968288064
1783245154617611800,0.35461181640625,-0.12058452775478362,-0.006736907039582729,0.18359810635484755
1783245154627623700,0.364623779296875,-0.11289163516461849,-0.034365649329870934,0.24010982878021894
1783245154637635800,0.3746357421875,-0.14553133748471736,-0.07777604425027966,0.1619261535771191
1783245154647647000,0.38464697265625,-0.20709785908162592,-0.11380363544300198,0.0915980872452259
1783245154657659000,0.394658935546875,-0.24526129325926302,-0.10368410022780299,0.0819030610524118
1783245154667671000,0.404671142578125,-0.2632821031183004,-0.088032942109555,0.10930194010958075
1783245154677683000,0.414682861328125,-0.2625625566720962,-0.09244272137582302,0.10681962177455424
1783245154687693800,0.42469384765625,-0.27801205473840235,-0.14291867076829076,0.0729204209126532
1783245154697706000,0.4347060546875,-0.2697363938242197,-0.15575097207352517,0.08320778697542845
1783245154707718000,0.4447177734375,-0.22463293125033376,-0.11333075723424553,0.1178428278312087
1783245154717729800,0.454729736328125,-0.1445966869831085,-0.09596212767362594,0.12073007370531558
1783245154727741000,0.464740966796875,-0.09266425517201424,-0.11436726067513227,0.12907456207200885
1783245154737752800,0.4747529296875,-0.03537994093894958,-0.1486782572083175,0.15532551320306956
1783245154747764700,0.4847646484375,-0.027764205238223073,-0.18602321460992097,0.11478702045716345
1783245154757777000,0.49477685546875,-0.016584055054187773,-0.23878522911295294,0.08991554098576307
1783245154767788000,0.5047880859375,0.013598901763558387,-0.18138254919722674,0.11305654340274632
1783245154777800000,0.514800048828125,0.008350479716062545,-0.08123772901147604,0.18543218991421162
1783245154787812000,0.52481201171875,0.014973697248101233,-0.04569777520522475,0.21152144767753778
1783245154797823000,0.534822998046875,0.0053594812065362925,-0.05468392247632146,0.19543650125190615
1783245154807835000,0.5448349609375,0.028618191719055174,-0.07048164945840835,0.14870609506331384
1783245154817846800,0.5548466796875,0.04776595978140831,-0.09419687156677245,0.09898297333214431
1783245154827859000,0.56485888671875,0.08650748610794544,-0.0769216193780303,0.08111286052279174
1783245154837869800,0.574869873046875,0.09620879591107367,-0.03718026835918426,0.06943995838575065
1783245154847881700,0.5848818359375,0.14961480740606783,-0.01353445822522044,0.08559168643727898
1783245154857894000,0.594893798828125,0.16362112092673778,-0.06584376052469015,0.08744754343703388
1783245154867905000,0.604905029296875,0.13167524608969688,-0.11831804412752389,0.086516692327708
1783245154877917000,0.6149169921875,0.029545827957987783,-0.13661927836313842,0.14181348600536584
1783245154887929000,0.62492919921875,-0.14009469938874244,-0.11936214635297655,0.2134137642301619
1783245154897941000,0.63494091796875,-0.351262584388256,-0.09442863449603318,0.24369119439832865
1783245154907951900,0.644951904296875,-0.5084095408648253,-0.06456409597769379,0.25508681396394967
1783245154917964000,0.654964111328125,-0.6023369478404521,-0.027338234911113975,0.25117818915285167
1783245154927976000,0.664975830078125,-0.6021382103979587,0.009493658401817083,0.22563787050917744
1783245154937987800,0.67498779296875,-0.4835714522063732,0.0730817489542067,0.1718323383025825
1783245154947999000,0.6849990234375,-0.29847207444310186,0.09342121101915836,0.10874459848776459
1783245154958011000,0.695010986328125,-0.06406885980665683,0.06265139422416686,0.03558510812222957
1783245154968022800,0.705022705078125,0.1263946753382683,0.014788842200487852,-0.01827588059864938
1783245154978035000,0.715034912109375,0.23507950646281242,-0.01208995850533247,-0.03479980296343565
1783245154988045800,0.7250458984375,0.3135924866855144,-0.007999766582250595,0.03828874105773866
1783245154998057700,0.7350576171875,0.34315760386586186,0.020636545315384863,0.12201726397164166
1783245155008070000,0.74506982421875,0.28807167645990844,0.01111614503711462,0.23479637867249548
1783245155018081000,0.7550810546875,0.21968846058547495,-0.018591595484316346,0.33857853244729336
1783245155028093000,0.765093017578125,0.16095687015354632,-0.042696109171211714,0.42087358849197626
1783245155038104800,0.775104736328125,0.09718962364196777,-0.03615297113806009,0.441293495381996
1783245155048117000,0.785116943359375,0.009113280782103538,-0.07379384274631738,0.3989106899436563
1783245155058128000,0.7951279296875,-0.15356149920523166,-0.07603723775893449,0.33129422065801917
1783245155068139800,0.805139892578125,-0.2775257325261831,-0.05035597627460956,0.2714599296811968
1783245155078152000,0.81515185546875,-0.3236491857975721,0.02717880656570196,0.2765777841515839
1783245155088163800,0.825163818359375,-0.2938409075111151,0.09244476720243693,0.20656557883583007
1783245155098174700,0.8351748046875,-0.23974983636140823,0.09294394889622926,0.08575644854493439
1783245155108187000,0.845186767578125,-0.1599777959883213,0.08469897538125515,-0.020252295238152144
1783245155118198800,0.85519873046875,-0.09113514590859413,0.0998544589370489,-0.07952376470044255
1783245155128210000,0.8652099609375,-0.008677811974287032,0.10843494801670313,-0.06921645182818174
1783245155138222000,0.87522216796875,0.017559622088074683,0.08485095107257366,-0.0565913635328412
1783245155148234000,0.88523388671875,-0.01640343779027462,0.101627898350358,-0.07186550503224134
1783245155158246000,0.895245849609375,-0.07945522950887679,0.13242460315227508,-0.04815086744576692
1783245155168257000,0.905257080078125,-0.12222703426480293,0.18551351152211426,-0.03848156021609902
1783245155178269000,0.91526904296875,-0.1823562165349722,0.19478256738781927,-0.04903320323824882
1783245155188280800,0.92528076171875,-0.2350976266413927,0.19480302565395832,-0.06558569411039351
1783245155198293000,0.93529296875,-0.20484803432822227,0.19786592035591602,-0.054336935669556254
1783245155208303900,0.945303955078125,-0.12257073313593864,0.22047259670048952,-0.04559204980842769
1783245155218315800,0.955315673828125,-0.023709376889467237,0.18411679646670817,-0.06629062750935553
1783245155228328000,0.965327880859375,0.05231996982395649,0.1443415431782603,-0.08208367831632495
1783245155238339000,0.975339111328125,0.11921090131402015,0.13680588697642088,-0.08688442966155707
1783245155248351000,0.98535107421875,0.1486976925611496,0.1356058635368943,-0.08933218813985586
1783245155258363000,0.99536279296875,0.12444412579238415,0.10781155542135239,-0.10818396893031894
1783245155268375000,1.005375,0.09667173724770545,0.06952420260310173,-0.08759528134465216
1783245155278386000,1.015385986328125,0.06225742647051811,0.09599573768228292,-0.04710800732932985
1783245155288397800,1.025397705078125,-0.018339374288916587,0.12367957116067409,-0.03242430600374937
1783245155298410000,1.035409912109375,-0.07454349206984043,0.1420981481656432,-0.04212378917597234
1783245155308422000,1.045421875,-0.09339432301223277,0.1593304379954934,-0.054896103922277686
1783245155318432800,1.055432861328125,-0.13676526270508765,0.13195055589973925,-0.06835976193360983
1783245155328445000,1.06544482421875,-0.14872107343673704,0.08440583765357733,-0.11759966672509908
1783245155338456800,1.075456787109375,-0.12181377728879451,0.06834902134388685,-0.12333229209296405
1783245155348467700,1.0854677734375,-0.07808627924323082,0.05616612385809421,-0.13397358615994454
1783245155358480000,1.09547998046875,-0.03505027059316635,0.03155512195378542,-0.15441190548948944
1783245155368491800,1.10549169921875,-0.04477203866243362,0.030462650541961192,-0.19106456977799532
1783245155378503700,1.115503662109375,-0.05527823510766029,0.07145487840473652,-0.18073760235719383
1783245155388515000,1.12551513671875,-0.04608312126100063,0.08365385024249553,-0.13278013859167695
1783245155398527000,1.13552685546875,-0.01638648665547371,0.027821780644357204,-0.17728256653249264
1783245155408539000,1.145538818359375,-0.046208793467283245,-0.07277882048487663,-0.20078538799919188
1783245155418551000,1.155551025390625,-0.09588730887174605,-0.05869038163870573,-0.1397736507408321
1783245155428562000,1.16556201171875,-0.12051380060613155,0.006958440835773945,-0.04731953118816018
1783245155438574600,1.17557470703125,-0.16084171934127806,0.01923983025997877,0.04925575994774699
1783245155448586500,1.18558642578125,-0.14432897595763206,-0.03393149569630623,0.0833626122109592
1783245155458597400,1.195597412109375,-0.0873193870127201,-0.07801496757268905,0.07100560026727616
1783245155468609500,1.205609619140625,-0.031631986582279205,-0.058625499708950514,0.07404796363785862
1783245155478621400,1.215621337890625,0.03244213392138481,-0.024527415274083614,0.09685271983779967
1783245155488633300,1.22563330078125,0.09081248982548713,-0.022834639881551263,0.10328260675482451
1783245155498644500,1.23564453125,0.10129998157024384,-0.06923632557243109,0.11071633695214986
1783245155508656400,1.245656494140625,0.06727437784969806,-0.13434037364572285,0.10445574218742548
1783245155518668300,1.255668212890625,0.013344050219655037,-0.12833207314163445,0.12869075038619338
1783245155528680400,1.265680419921875,-0.04517126711308956,-0.046377428032457826,0.16511442822441458
1783245155538691600,1.275691650390625,-0.09820961433947085,0.009424538688361643,0.1778993832565844
1783245155548703500,1.285703369140625,-0.10821546004712582,0.041889761224389074,0.14397249067015946
1783245155558715600,1.295715576171875,-0.07930208477377891,0.045343993331491944,0.08168591117039323
1783245155568726500,1.3057265625,-0.09599953707456588,-0.008869535154104232,0.026601518134400245
1783245155578738400,1.315738525390625,-0.053906946754455565,-0.039973406209051605,-0.034859935652837154
1783245155588750600,1.32575048828125,-0.022176760494709014,-0.029498773945868015,-0.04423961228616535
1783245155598762500,1.335762451171875,0.017138181805610657,0.012429565723240376,-0.04083652584441006
1783245155608773400,1.3457734375,0.038276831424236296,0.020431670393049717,-0.03817008311413228
1783245155618785500,1.35578564453125,0.0762356829404831,0.016503683294355868,-0.042512277036905285
1783245155628797400,1.36579736328125,0.07181143675744533,0.03418956211060285,-0.03499598312266171
1783245155638809300,1.375809326171875,0.0389519542068243,0.032843115937709805,-0.030786475668847558
1783245155648820500,1.385820556640625,-0.030143209329247474,0.009803016611933708,-0.026160861694812774
1783245155658832600,1.39583251953125,-0.06994155123233795,0.030579262658953665,-0.00897051131054759
1783245155668844500,1.405844482421875,-0.08169336382448673,0.10270984836816788,0.003769946992769837
1783245155678855400,1.41585546875,-0.03030979806780815,0.128407476465404,0.003581730944290757
1783245155688867600,1.42586767578125,-0.00041442601978778834,0.045676878547668456,-0.04665763321332633
1783245155698879500,1.43587939453125,-0.013781272593140602,-0.004587035529315471,-0.0850436241004616
1783245155708891600,1.4458916015625,-0.006413958695530891,0.01862374418824911,-0.06124028531722724
1783245155718902500,1.455902587890625,0.011939444118738174,0.103765202639997,-0.02175188614614308
1783245155728914400,1.46591455078125,0.04492752148509025,0.12998393200188874,0.0005725391909480094
1783245155738926300,1.47592626953125,0.05930675997138023,0.04682634084373712,-0.03866765737272799
1783245155748938500,1.4859384765625,-0.03576397182047367,-0.04217500790655613,-0.062090253210067746
1783245155758949600,1.49594970703125,-0.14036474850177763,-0.010531038625538348,-0.02302073703818023
1783245155768961500,1.50596142578125,-0.25626725592017174,0.06017711306512356,0.023339155337586997
1783245155778973700,1.5159736328125,-0.2713309695392847,0.09486585686951875,0.04480257993116975
1783245155788984600,1.525984619140625,-0.22500819430351257,0.052800154556334015,0.025415011763572692
1783245155798996500,1.53599658203125,-0.19240122520923614,0.022087036384642125,-0.03271152544729412
1783245155809008600,1.546008544921875,-0.14737375048100948,0.02401741992533207,-0.052447395595908164
1783245155819020500,1.5560205078125,-0.09729776019155978,0.011157646091282367,-0.0195026459146291
1783245155829031400,1.566031494140625,-0.04473287569582462,-0.020245792432129383,-0.0013631781119853258
1783245155839043600,1.576043701171875,-0.04724924243092537,-0.05173895506560802,0.0002237257532775402
1783245155849055500,1.586055419921875,-0.04312251788973808,-0.019932196438312528,0.03576207212433219
1783245155859067400,1.5960673828125,-0.032488895672559734,0.02497632808536291,0.07062989882268011
1783245155869078300,1.606078369140625,0.02866144633889198,0.02869680991321802,0.10548552362658083
1783245155879090400,1.61609033203125,0.0599094020396471,0.006605389614403248,0.10616159625723957
1783245155889102300,1.626102294921875,0.046537879291176795,-0.03193272309452295,0.08227218662574887
1783245155899113500,1.636113525390625,0.054118543678522105,-0.05690905117988586,0.035033977045491334
1783245155909125600,1.646125732421875,0.042300680112838746,-0.03173310886919498,0.020154680082574487
1783245155919137500,1.656137451171875,0.025161329263448714,-0.0013078677281737328,0.085633625882864
1783245155929149700,1.666149658203125,-0.03301613441705704,-0.00857376707792282,0.09598353578783571
1783245155939160600,1.67616064453125,-0.08276946862339973,-0.039379531969130036,0.1254652124684304
1783245155949172500,1.68617236328125,-0.12810089473426342,0.00580839401781559,0.11759148341864346
1783245155959184400,1.696184326171875,-0.12200842307806015,0.03550181375294924,0.10395656049363315
1783245155969195500,1.706195556640625,-0.06532265926003455,0.030487784983217716,0.07039718604534864
1783245155979207400,1.71620751953125,0.06378478216826915,0.01561696358770132,0.050968555215001106
1783245155989219300,1.72621923828125,0.16162790128290652,0.003503624206781387,0.02019683872386813
1783245155999231500,1.7362314453125,0.20760288599431515,-0.03742722885757684,0.0167631379481405
1783245156009242600,1.74624267578125,0.25453064138591286,-0.04122574435770512,0.058586117546632885
1783245156019254500,1.756254638671875,0.23089432973265647,-0.019953239226341245,0.10083338697180151
1783245156029266700,1.7662666015625,0.14381050504148005,-0.021445523610711097,0.11913674009926617
1783245156039278600,1.776278564453125,0.027911504754424093,-0.009389759635925293,0.11232954430244863
1783245156049289500,1.78628955078125,-0.045885552862286565,0.042754269099235534,0.12449234884828328
1783245156059301600,1.796301513671875,-0.09953063381016254,0.05413111089915037,0.08614033329598605
1783245156069313500,1.8063134765625,-0.08816986636221408,0.012243103240430354,0.04637077909596264
1783245156079324400,1.816324462890625,-0.09318798678517341,-0.04254384121894836,-0.02548398534655571
1783245156089336300,1.82633642578125,-0.09025894759595393,-0.03101473146677017,-0.0927659619808197
1783245156099348500,1.836348388671875,-0.12606909664571284,-0.022023908020555972,-0.10738850770369171
1783245156109360400,1.8463603515625,-0.14433189856708048,0.004773498012125492,-0.09747348208464682
1783245156119371500,1.85637158203125,-0.16424597482681275,0.015393676225841044,-0.065587593806535
1783245156129383700,1.8663837890625,-0.18016250588297844,0.012993921607732772,-0.017041443432867526
1783245156139395600,1.8763955078125,-0.1833183395653963,-0.02338116784840822,-0.00907974383868277
1783245156149407700,1.88640771484375,-0.20785656849443912,-0.041533202871680254,-0.017240034744888545
1783245156159418600,1.896418701171875,-0.21892507499754427,-0.02062543939948082,-0.015241846664994955
1783245156169430500,1.906430419921875,-0.18705168087482452,0.0425751131400466,-0.0072694795463234185
1783245156179442400,1.9164423828125,-0.1514326704829931,0.04651829780787229,-0.013446268485113978
1783245156189453600,1.92645361328125,-0.07296586748957634,0.048263972431421276,-0.03612520634829998
1783245156199465500,1.936465576171875,-0.02739186479449272,-0.00886135184764862,-0.030773835382983086
1783245156209477400,1.946477294921875,-0.033145898276567456,-0.018827742327749728,-0.00377908014729619
1783245156219489500,1.956489501953125,-0.0344599034845829,0.008214870637655258,0.01509140534363687
1783245156229500400,1.96650048828125,-0.01755319234728813,0.008457154960930347,-0.004009089510887861
1783245156239512300,1.97651220703125,0.03140519208908081,-0.022334873665869236,-0.03144705846942961
1783245156249524500,1.9865244140625,0.014497311908006667,-0.06381167017519473,-0.04936177760548889
1783245156259536400,1.996536376953125,0.015294015243649482,-0.07283814945667981,-0.0392550288066268
1783245156269547500,2.006547607421875,0.04330839585065841,0.008542202895879744,-0.00412080625705421
1783245156279559700,2.0165595703125,0.11245908896625041,0.09573211831003427,0.04056092377342283
1783245156289571600,2.026571533203125,0.14856091443896294,0.052717736969888206,0.050920186028629535
1783245156299582500,2.03658251953125,0.1177624560713768,-0.036404607811570164,0.050228477437421676
1783245156309594400,2.046594482421875,0.05861877770721912,-0.029963468848168848,0.08683927534557878
1783245156319606500,2.0566064453125,0.009481529572606087,0.058629006840288635,0.1343804864604026
1783245156329618400,2.066618408203125,0.028373861569166183,0.10127513938993216,0.13228205287642777
1783245156339629300,2.07662939453125,0.05197042573392391,0.0504413164705038,0.0638411154653877
1783245156349641500,2.086641357421875,0.05120528658032417,0.018503624939918518,0.0022912527423352004
1783245156359653400,2.0966533203125,0.07533025853335856,0.05886603046655654,0.0006725654993206263
1783245156369665500,2.10666552734375,0.09261515533328056,0.09045067077577114,-0.002686900996416807
1783245156379676700,2.1166767578125,0.029090485405921934,0.07650953144580125,-0.005651011499017477
1783245156389688600,2.1266884765625,-0.023412439769506452,0.023431436730921268,-0.035645825333520766
1783245156399700500,2.136700439453125,-0.09459259288609027,0.062033554586768146,-0.0317751213800162
1783245156409711600,2.146711669921875,-0.13321195413768291,0.13572335243672132,-0.013730528786592184
1783245156419723500,2.1567236328125,-0.1742681871473789,0.13738251782059668,-0.03132646429706365
1783245156429735400,2.1667353515625,-0.18712006993591784,0.11865560551881789,-0.12038889558482914
1783245156439746600,2.17674658203125,-0.16519056220054626,0.11636048031896352,-0.1682807467682287
1783245156449757700,2.1867578125,-0.13781038784384728,0.11857289567142724,-0.19106515429988502
1783245156459769600,2.19676953125,-0.08997019378244876,0.11271335598826408,-0.20023085938896984
1783245156469781800,2.20678173828125,-0.060413259908556935,0.08310732227563858,-0.20897081334665416
1783245156479793700,2.216793701171875,-0.0795376470953226,0.0340785029515624,-0.18196301596630363
1783245156489804500,2.226804443359375,-0.08759878847599029,0.038375323362648484,-0.14432009853143243
1783245156499816700,2.236816650390625,-0.08127893780469894,0.061546355591714376,-0.08406381928287446
1783245156509828600,2.24682861328125,-0.07628244469165801,0.06543021128773689,-0.01947455233130604
1783245156519839500,2.256839599609375,-0.05796060605943203,0.07184709259271621,0.004457417800277471
1783245156529851400,2.266851318359375,-0.05974748947620392,0.027670389474928378,-0.0066213909011334175
1783245156539863600,2.276863525390625,-0.030897827088832854,0.013219839318096636,-0.03450549619197845
1783245156549875500,2.28687548828125,-0.009625906479358673,-0.014537643918395042,-0.04573058149628341
1783245156559886300,2.29688623046875,0.04803483985066414,-0.020991642363369464,-0.06960786229856313
1783245156569898500,2.3068984375,0.09681085345745086,-0.007441255916655063,-0.046523595037497575
1783245156579910400,2.316910400390625,0.14044424347877502,0.020383447337150574,0.002877235936746001
1783245156589922600,2.326922607421875,0.18717501499354838,0.020613748961687085,0.02457289838362485
1783245156599933700,2.33693359375,0.2280781032681465,-0.020436638829112053,-0.0008318111816421151
1783245156609945600,2.346945556640625,0.25879063691794874,-0.03012012071460485,0.004577354385517538
1783245156619957500,2.35695751953125,0.23055530703663824,-0.08128244493603706,0.02303301199786365
1783245156629968600,2.36696875,0.12761223443448544,-0.11526157916635274,0.04152754031587392
1783245156639980500,2.37698046875,0.008637479963898659,-0.07726619503200054,0.12726115597449242
1783245156649992400,2.386992431640625,-0.09842354935109615,-0.08175795349329709,0.16329499424491076
1783245156660004600,2.397004638671875,-0.17800328202247617,-0.10920973178148269,0.14166629608701914
1783245156670015500,2.407015380859375,-0.25541034682989117,-0.1203109715104103,0.14163805637322366
1783245156680027400,2.41702734375,-0.3032540480226278,-0.14201222344785927,0.10769333586916327
1783245156690039600,2.42703955078125,-0.31586335422694684,-0.15053513712137936,0.10390103091411292
1783245156700051500,2.437051513671875,-0.34103286679685113,-0.14347031330168247,0.06392050084453076
1783245156710062600,2.4470625,-0.3225087835907936,-0.08916852201074361,0.03318473244961351
1783245156720074800,2.45707470703125,-0.2518640525251627,-0.057149874198436736,-0.0226154807055369
1783245156730086700,2.467086669921875,-0.1791705722361803,-0.06301087518632412,-0.10465276259686797
1783245156740097500,2.47709765625,-0.08299217146337032,-0.07808043402433396,-0.13068747716136275
1783245156750109400,2.487109375,-0.021355507239699364,-0.04785188449919223,-0.1373239195011556
1783245156760121600,2.49712158203125,0.033416531911492346,-0.016288286978006362,-0.10362641522381454
1783245156770133500,2.507133544921875,0.08590016786456108,-0.010740589722990988,-0.08721797246485948
1783245156780144400,2.517144287109375,0.11961539046168326,0.000053483752906322475,-0.04337769822720438
1783245156790156500,2.527156494140625,0.13497896381020544,-0.026796529249846934,0.004326521429605782
1783245156800168400,2.53716845703125,0.09105155927836894,-0.056634910413622855,0.03979728245716542
1783245156810179600,2.5471796875,0.03215630271732807,-0.07528846521824598,0.051593080321513114
1783245156820191700,2.557191650390625,-0.08023322814404964,-0.03871639188528061,0.07921506407745182
1783245156830203600,2.56720361328125,-0.18017302727699278,0.03486322358846664,0.09842179578542709
1783245156840215600,2.577215576171875,-0.18513795620799064,0.1015907812103629,0.08637246155142783
1783245156850226700,2.587226806640625,-0.11182546723783016,0.1088777233481407,0.02623239256106317
1783245156860238600,2.597238525390625,-0.015680384212732313,0.07254004329293966,-0.04018544152453542
1783245156870250500,2.60725048828125,0.1331686995178461,0.04170885169953108,-0.0631687691617757
1783245156880262700,2.6172626953125,0.23204583785533903,0.009000760318338871,-0.05904343286007643
1783245156890273500,2.6272734375,0.279957928109169,-0.006370704075694083,-0.02771598218232393
1783245156900285400,2.637285400390625,0.2672743876248598,-0.032330197979509825,0.009147146519087254
1783245156910297600,2.647297607421875,0.2369271801561117,-0.01201104805022478,0.040058636807091534
1783245156920308500,2.65730859375,0.16687573880851267,0.03866407717615366,0.08596683989260345
1783245156930320400,2.6673203125,0.14587328279018402,0.05748597428500652,0.09217066296879202
1783245156940332500,2.67733251953125,0.12643208473920822,0.09527560671418905,0.054442588001117106
1783245156950344400,2.687344482421875,0.0911275471240282,0.06540127745419741,0.022320552879571912
1783245156960355600,2.69735546875,-0.010407412245869637,0.022797230480611323,0.02720244316961616
1783245156970367700,2.70736767578125,-0.09872340908050536,0.04595189609676599,0.06848660318367183
1783245156980379600,2.717379638671875,-0.15303542950451374,0.10694821659028529,0.08731840063203125
1783245156990391600,2.7273916015625,-0.1324889005601406,0.1420414495423436,0.08518555332180112
1783245157000402400,2.73740234375,-0.08069558495879173,0.14341566050499677,0.05147420318219811
1783245157010414600,2.74741455078125,-0.01289338384270668,0.1229161855727434,0.00290821559689939
1783245157020426500,2.757426513671875,0.04164075489938259,0.09035393240302801,-0.033661044724471866
1783245157030437400,2.767437255859375,0.05319850622415542,0.07363017661720514,-0.05917721530757844
1783245157040449500,2.777449462890625,0.0015554127484560011,0.07590250546336173,-0.04651307364348322
1783245157050461400,2.78746142578125,-0.06804068604707718,0.07664952443838119,-0.02340809238795191
1783245157060473300,2.797473388671875,-0.11056231543421745,0.07071633499711752,-0.05795965621136129
1783245157070484700,2.807484619140625,-0.16266016694009303,0.09022738341391086,-0.08135792132504284
1783245157080496600,2.81749658203125,-0.19092706100344656,0.09874562091231345,-0.11246201157569885
1783245157090508500,2.827508544921875,-0.2431459085404873,0.11031944658905267,-0.16800211248993874
1783245157100520700,2.837520751953125,-0.2667202608734369,0.1418266377478838,-0.18043350484408438
1783245157110531600,2.847531494140625,-0.23375030368566513,0.15604221010506153,-0.22319621297810224
1783245157120543500,2.85754345703125,-0.18340309523940085,0.10432254426181316,-0.2555043087236583
1783245157130555600,2.8675556640625,-0.13568623529672622,0.036056817287206645,-0.25446561332568524
1783245157140566500,2.87756640625,-0.10017536145448684,0.02470306410193443,-0.22045951802320776
1783245157150578400,2.887578369140625,-0.011201777493953704,0.04998246678709983,-0.1424958057137206
1783245157160590600,2.897590576171875,0.04087503122389316,0.06565759030282498,-0.04159114360399544
1783245157170602500,2.9076025390625,0.037759529551863666,0.033921851085126395,0.017214388846978543
1783245157180613600,2.917613525390625,0.06186696584820747,-0.04260667732208967,0.0491167533358559
1783245157190625800,2.927625732421875,0.06319266149401664,-0.06191752699166536,0.05615096282158047
1783245157200637700,2.9376376953125,0.059147185495495795,-0.050017830361425875,0.09472458523530512
1783245157210649600,2.947649658203125,0.03826514098644256,-0.07461129660904407,0.09910857247319071
1783245157220660500,2.957660400390625,-0.03896364464461803,-0.10984306124895811,0.06917104178387672
1783245157230672600,2.967672607421875,-0.07053367190659046,-0.0869648744866252,0.06332498263679444
1783245157240684500,2.9776845703125,-0.07398001296818256,-0.06844985136985779,0.06141030812188983
1783245157250695400,2.9876953125,-0.05582067142128944,-0.08278963462859391,0.04691076772417873
1783245157260707600,2.99770751953125,-0.08065349938273429,-0.10673545062243937,0.04082498153708875
1783245157270719500,3.007719482421875,-0.08654606455266475,-0.13547493063360452,0.04115983951464295
1783245157280731400,3.0177314453125,-0.11050094063580035,-0.07804594723284244,0.08729264513626694
1783245157290742500,3.027742431640625,-0.11101999607384204,-0.0330503289476037,0.12602858197223393
1783245157300754400,3.03775439453125,-0.07847206369042396,-0.06267331379503012,0.14059318696279077
1783245157310766300,3.047766357421875,-0.04214870442152023,-0.10428075094670057,0.10811722383704035
1783245157320778500,3.057778564453125,-0.014417232409119605,-0.10140314968377351,0.10037515834290534
1783245157330789600,3.06778955078125,0.04981178639531135,-0.06943184814453125,0.10299929630141705
1783245157340801500,3.077801513671875,0.06458966881036758,-0.0484112719476223,0.10713950137868523
1783245157350813700,3.087813720703125,0.10388649093210696,-0.051123745776712894,0.07629102985691279
1783245157360824600,3.097824462890625,0.11574351746439933,-0.05305354479551315,0.03154533121213317
1783245157370836500,3.10783642578125,0.09945289239883422,-0.028316286163032053,0.019542466468364
1783245157380848600,3.1178486328125,0.0790454796642065,-0.017983984979987145,0.020992190352641046
1783245157390860500,3.127860595703125,0.011471826606988906,-0.021748305949568746,0.01483001446109265
1783245157400871400,3.137871337890625,-0.04881868370473384,-0.005230594129860401,0.039005511024966834
1783245157410883600,3.147883544921875,-0.11149521237015723,0.006663549542427063,0.047286651831865305
1783245157420895500,3.1578955078125,-0.1474561680674553,0.007894552642107009,0.03883395385034382
1783245157430907400,3.167907470703125,-0.1581651936084032,0.013991992734372615,0.056344841425865884
1783245157440919300,3.177919189453125,-0.13254443013966083,0.026084873849153516,0.011810045585408806
1783245157450931200,3.18793115234375,-0.09039514119625092,0.04371493082493543,-0.018374189873971044
1783245157460943400,3.197943359375,-0.05669336260259151,0.07327537183016539,-0.02757752355970442
1783245157470954500,3.20795458984375,-0.023763152903318405,0.07189473112672568,-0.047965683604590595
1783245157480966400,3.21796630859375,-0.013346972829103469,0.06189034672379493,-0.05798669034875929
1783245157490978600,3.227978515625,0.015291677156090736,0.023735972635447977,-0.0499808958845213
1783245157500990500,3.237990478515625,0.060199909418821335,0.008610007435083389,-0.03341101548615843
1783245157511001300,3.24800146484375,0.08134674234390259,0.016419804403185842,-0.022735782616958022
1783245157521013500,3.258013427734375,0.11938391979336738,-0.019999416455626487,-0.002171498820185661
1783245157531025400,3.268025390625,0.12135317403972148,-0.04652472754865884,-0.025134660452231762
1783245157541037300,3.278037353515625,0.09244038328826427,-0.03126841396689415,-0.02144230874031782
1783245157551048200,3.288048095703125,0.027037060007452964,0.00151712656468153,0.009934680167585612
1783245157561060400,3.298060302734375,-0.03734451901018619,0.021506606148183345,0.02336779691018164
1783245157571072300,3.308072265625,-0.08638590555489063,0.000583060584962368,0.0061400736575946205
1783245157581083400,3.31808349609375,-0.11094517727196215,-0.029569208833575247,-0.0108547541545704
1783245157591095600,3.328095458984375,-0.12093290280103683,0.01650835946947336,-0.0193831477208063
1783245157601107500,3.338107421875,-0.13652034803330898,0.024803894127905367,-0.021951500371471047
1783245157611119400,3.348119384765625,-0.15555238076150416,0.023832711008191107,-0.009299085677787661
1783245157621130500,3.358130615234375,-0.17140110727846622,0.05246200864315033,0.005522782009467482
1783245157631142400,3.368142333984375,-0.2267763730198145,0.037808921651542184,0.006635748220048844
1783245157641154300,3.378154296875,-0.22545769163668156,0.019038170208036897,-0.003171250447258353
1783245157651166500,3.38816650390625,-0.2351402967393398,0.03390168507993221,-0.020601437469385562
1783245157661177300,3.39817724609375,-0.21916531349420545,0.06252630653977394,-0.030512773294001816
1783245157671189200,3.408189208984375,-0.13623860848248004,0.09677753570973872,-0.06903751506470143
1783245157681201400,3.418201416015625,-0.0871586434930563,0.1373468619853258,-0.10141031007692217
1783245157691212300,3.42821240234375,-0.018517068943381308,0.1629711325854063,-0.12859203925207258
1783245157701224400,3.438224365234375,0.07042553535699844,0.11821429149210452,-0.15755184748303144
1783245157711236400,3.448236328125,0.12638415394425392,0.07393588156551122,-0.13912201843168587
1783245157721248500,3.45824853515625,0.1566664794832468,0.06245119547694921,-0.09570957768466323
1783245157731259400,3.46825927734375,0.15869126330912112,0.08440320730507374,-0.029209179882146417
1783245157741271600,3.478271484375,0.14239011684954164,0.10868103173226118,-0.0005870426403358579
1783245157751283500,3.488283447265625,0.10770634148120879,0.08673632642775773,0.005269574433378875
1783245157761295400,3.49829541015625,0.09288111279308796,0.061140405139327045,-0.018740648566186426
1783245157771306200,3.50830615234375,0.05218260717988014,0.06828443167507649,-0.034183972620032727
1783245157781318400,3.518318359375,0.015545359656214713,0.05617810655683279,-0.046434966905973846
1783245157791330300,3.528330322265625,-0.022998598271608352,0.05384557195603847,-0.0625232743324712
1783245157801341200,3.538341064453125,-0.11282675323486327,0.08456511986851692,-0.0691966146165505
1783245157811353300,3.548353271484375,-0.13540098861455915,0.14459201080799103,-0.029946773441694677
1783245157821365200,3.558365234375,-0.08981646452546119,0.1419029178544879,-0.016851546883955598
1783245157831377200,3.568377197265625,0.002041150438785553,0.06527648203074932,-0.03296842281781137
1783245157841388500,3.578388427734375,0.04732873740792274,-0.011288286733627318,-0.057464675768651066
1783245157851400400,3.588400390625,0.06354980436861514,-0.00793809952288866,-0.006101824006438255
1783245157861412400,3.598412353515625,0.06727554689347744,0.043021980124711985,0.07351813107747585
1783245157871424500,3.608424560546875,0.0612643237799406,0.10253478406220674,0.12761175951045006
1783245157881435400,3.618435302734375,0.011596914291381835,0.09629179801940918,0.12413137004878372
1783245157891447300,3.628447265625,0.008202011156082153,0.1048453990921378,0.10639734124187379
1783245157901459500,3.63845947265625,0.027931963020563125,0.1284039693340659,0.06693327279444783
1783245157911470300,3.64847021484375,0.11092705709338188,0.12312778249680995,0.056977586371451616
1783245157921482200,3.658482177734375,0.13822598290741442,0.11238836181759834,0.011699790143966673
1783245157931494400,3.668494384765625,0.13456862944364548,0.09007686902731657,-0.05474716043826192
1783245157941506300,3.67850634765625,0.15825813258886337,0.08469137659668922,-0.048985966563038524
1783245157951517400,3.688517333984375,0.2093289791345596,0.12509236056804657,-0.03322385888360441
1783245157961529600,3.698529541015625,0.2500643096268177,0.13529343658685683,-0.028305910899490118
1783245157971541500,3.70854150390625,0.28862697225511075,0.08856880255192517,-0.05444415890369564
1783245157981553400,3.718553466796875,0.27331951300799845,0.04805383681207895,-0.09719890292696655
1783245157991564300,3.728564208984375,0.1619821215480566,0.008190320718288421,-0.11317585893347859
1783245158001576400,3.738576416015625,0.12433306663334369,-0.05132043739259243,-0.15611812488548457
1783245158011588400,3.74858837890625,0.05475801062583923,-0.034252398213744165,-0.11416446811202913
1783245158021599200,3.75859912109375,0.019568039301037787,-0.02454144379943609,-0.0810652950540185
1783245158031611400,3.768611328125,0.009013327538967133,-0.05711480288505554,-0.026333186054416
1783245158041623300,3.778623291015625,0.044914662003517146,-0.06924275531321764,0.052464017937146126
1783245158051635500,3.788635498046875,0.10022563033699988,-0.09770663325339556,0.1363625636557117
1783245158061646300,3.798646240234375,0.11975567571520805,-0.12661913174390793,0.1995015952663496
1783245158071658500,3.808658447265625,0.12389233712852,-0.13336129948049782,0.20445731797758487
1783245158081670400,3.81867041015625,0.0980856956988573,-0.18080051152557133,0.19310553755369037
1783245158091682600,3.8286826171875,0.11050912394225597,-0.21376900740861893,0.18360778749864548
1783245158101693400,3.838693359375,0.11801730761528015,-0.1988102154687047,0.17834716355670244
1783245158111705300,3.848705322265625,0.07011690779924393,-0.1682955424785614,0.17594945476520807
1783245158121717500,3.858717529296875,0.015608488020300864,-0.1127580719128251,0.16108747426327316
1783245158131728400,3.868728271484375,-0.005379354950785636,-0.07012158397436141,0.13286613637469707
1783245158141740300,3.878740234375,-0.019521862071752546,-0.11068944894522428,0.10558321184739469
1783245158151752400,3.88875244140625,-0.06979951241314411,-0.2602677237331867,0.03186568574029952
1783245158161764400,3.898764404296875,-0.14523966106176375,-0.36811055107563734,0.0101236268684268
1783245158171775200,3.908775146484375,-0.28005145161151884,-0.3324117534458637,-0.00474850970134139
1783245158181787400,3.918787353515625,-0.4563999521642923,-0.212724466791749,-0.003273943636752665
1783245158191799300,3.92879931640625,-0.6188917768001556,-0.131160282304883,-0.042776773191988464
1783245158201811200,3.938811279296875,-0.7013023489832878,-0.11827435111626981,-0.09129475691709667
1783245158211822300,3.948822265625,-0.7207768647819757,-0.13777064035534858,-0.18186927326824515
1783245158221834500,3.95883447265625,-0.6521376283198594,-0.12467851907014846,-0.24084793379642067
1783245158231846400,3.968846435546875,-0.4959621472239494,-0.16347762080281972,-0.29466037066783757
1783245158241857300,3.978857177734375,-0.35863398993909357,-0.23240999499261378,-0.2932665782218799
1783245158251869400,3.988869384765625,-0.2572615276545286,-0.303992299169302,-0.23497301388103514
1783245158261881300,3.99888134765625,-0.18809972862303256,-0.31558424502462146,-0.08930113541446626
1783245158271893500,4.0088935546875,-0.1531809754550457,-0.254000772292912,-0.008674304842948913
1783245158281904400,4.018904296875,-0.12029285133183001,-0.19795915159732103,0.05172072528917342
1783245158291916300,4.028916259765625,-0.10244155282080172,-0.17978256665468215,0.07347717801257968
1783245158301928200,4.03892822265625,-0.03738835815191269,-0.16444792713969944,0.045922268143482506
1783245158311940400,4.0489404296875,0.003040098348259926,-0.14010843565315007,0.012663630207441746
1783245158321951500,4.058951416015625,0.044349429336190224,-0.0984346552670002,-0.028671383211016654
1783245158331963400,4.06896337890625,0.05905716912448406,-0.07099076802432537,-0.04263597648181021
1783245158341975600,4.0789755859375,0.03837152397036552,-0.05354045152962208,-0.04595617041308433
1783245158351986400,4.088986328125,-0.010099953731894493,-0.022117431522905826,-0.05088094999678432
1783245158361998300,4.098998291015625,-0.053360418787598604,0.011738076327741145,-0.0332164062295109
1783245158372010500,4.109010498046875,-0.050023967841267586,0.07959960641562938,-0.03994750458281487
1783245158382022400,4.1190224609375,0.005479892715811729,0.13128829259872435,-0.045913317652046676
1783245158392033300,4.129033203125,0.02284136188328266,0.13918810593783854,-0.08409505467135459
1783245158402045400,4.13904541015625,0.07712181812524795,0.12495324435830116,-0.07013926576152443
1783245158412057300,4.149057373046875,0.10998831493854522,0.16484832463413476,-0.05251169300377369
1783245158422069200,4.1590693359375,0.1441442670404911,0.2076552007034421,-0.04915094786640256
1783245158432080400,4.169080322265625,0.18302023340165613,0.2279889636799693,-0.06027681057993322
1783245158442092500,4.179092529296875,0.17891922782361505,0.216486157412827,-0.0897017521046102
1783245158452104400,4.1891044921875,0.13757424100041388,0.20077800841033458,-0.11516447546742856
1783245158462115600,4.199115478515625,0.07517828284204006,0.18835428790599107,-0.10221161652244627
1783245158472127500,4.20912744140625,-0.013081015369296073,0.19502543623298405,-0.07282477851845323
1783245158482139600,4.2191396484375,-0.07904080348908901,0.23221067302823065,-0.0447334236850962
1783245158492151600,4.229151611328125,-0.15553426058292388,0.3139759330451488,-0.026636808643490075
1783245158502162400,4.239162353515625,-0.17194295907020568,0.3470224626004696,-0.014466039986908435
1783245158512174600,4.249174560546875,-0.13935703276395797,0.3173673290491104,-0.04114946425110101
1783245158522186500,4.2591865234375,-0.10469254661798477,0.2883002245187759,-0.09050145111493765
1783245158532198400,4.269198486328125,-0.08781798418462276,0.2910822564527392,-0.09876092807929962
1783245158542209500,4.27920947265625,-0.11665303352475166,0.2872559761628508,-0.10061254729535431
1783245158552221400,4.289221435546875,-0.1411111829549074,0.27686434600800275,-0.11578863524775951
1783245158562233300,4.2992333984375,-0.16049217525124548,0.2609033912882209,-0.14321849396508185
1783245158572244500,4.309244384765625,-0.18076807056069372,0.2285202940776944,-0.1607846188591793
1783245158582256600,4.319256591796875,-0.1250473523825407,0.2092094444081187,-0.13176712562423198
1783245158592268500,4.3292685546875,-0.07934417034983635,0.2083648102775216,-0.05830920030139386
1783245158602280700,4.33928076171875,-0.030122166541218756,0.18119944771528243,-0.011432261781580745
1783245158612291600,4.34929150390625,0.020147885015606878,0.14618804782778025,0.003834901987761259
1783245158622303500,4.359303466796875,0.05380582446753979,0.09788666599541902,-0.0013782660832628608
1783245158632315400,4.3693154296875,0.07146130814552307,0.05535831460654735,-0.010479344970919192
1783245158642327600,4.37932763671875,0.05324117632210254,0.06659867054522037,0.019601978103257714
1783245158652338400,4.38933837890625,0.05543722506165504,0.04963263043612241,0.04218132804948836
1783245158662350300,4.399350341796875,0.030021628776192664,0.03258446500152349,0.07143310496434568
1783245158672362500,4.409362548828125,-0.03203647572994232,0.019574761302769184,0.1042337334671989
1783245158682374400,4.41937451171875,-0.09152560653090476,0.008480243575572966,0.12441592261120676
1783245158692385500,4.429385498046875,-0.12089783148765564,0.015033610741794108,0.134767403418757
1783245158702397700,4.439397705078125,-0.11781097138822078,0.03823591489195823,0.12383983975630253
1783245158712409600,4.44940966796875,-0.12163257550299167,0.05661854380071163,0.08338182836808264
1783245158722420500,4.45942041015625,-0.038057051193714136,0.07782908961176872,0.04859656538665295
1783245158732432600,4.4694326171875,0.06797112794220447,0.05751899977177381,-0.015505356439389287
1783245158742444500,4.479444580078125,0.12297580680549144,0.018520283813774584,-0.0625564459497109
1783245158752456400,4.48945654296875,0.18993863448798656,-0.04307400257289409,-0.0966902592850849
1783245158762467600,4.499467529296875,0.22794366323351858,-0.06898118176758289,-0.10963190271630882
1783245158772479500,4.5094794921875,0.21535598433911798,-0.05002864401638508,-0.07763813361693173
1783245158782491400,4.519491455078125,0.18595161067843435,-0.02501636783480644,-0.010140614535845815
1783245158792503600,4.529503662109375,0.0984556980550289,-0.009898001419007778,0.044832828938961025
1783245158802514400,4.539514404296875,-0.022578327032923697,0.026666473129391667,0.0478233159918338
1783245158812526600,4.549526611328125,-0.09946750544607638,0.03487783663570881,0.022394348768144844
1783245158822538500,4.55953857421875,-0.13625497509539128,0.0033601240828633307,-0.03777549430597573
1783245158832549600,4.569549560546875,-0.1485316883444786,-0.013607377330958842,-0.08755074808318167
1783245158842561500,4.5795615234375,-0.16864333300292492,-0.004715045823156834,-0.11514325001630932
1783245158852573400,4.589573486328125,-0.16724223403334618,-0.0064358782663941376,-0.15687135440558195
1783245158862585600,4.599585693359375,-0.16220774699747562,0.008837094189226628,-0.17709515420161187
1783245158872596500,4.609596435546875,-0.14927812279760835,-0.00258329449146986,-0.1736092483146116
1783245158882608400,4.6196083984375,-0.12375205187499523,-0.02100362506210804,-0.1595633699685335
1783245158892620500,4.62962060546875,-0.09465162959694862,-0.00862169787287712,-0.12130232063531875
1783245158902632400,4.639632568359375,-0.08723930751383305,-0.0014013912305235862,-0.07148724630437792
1783245158912643300,4.649643310546875,-0.12244973710477351,-0.009322831879556178,-0.06466890805903822
1783245158922655500,4.659655517578125,-0.19251462245583534,-0.021790683786571025,-0.08908175704274326
1783245158932667400,4.66966748046875,-0.2230629054546356,-0.029838088902831076,-0.08812401792649179
1783245158942678500,4.679678466796875,-0.25482407137453555,-0.047531274242699144,-0.11143175521250813
1783245158952690700,4.689690673828125,-0.3149363025099039,-0.07408084299415349,-0.07703077884092926
1783245158962702600,4.69970263671875,-0.31628537903130055,-0.039202421836555,-0.07051416348852217
1783245158972714500,4.709714599609375,-0.2987713496506214,-0.03294745309501886,-0.042782326149940486
1783245158982725600,4.7197255859375,-0.2347270397633314,-0.012432488332688807,-0.018109145729616284
1783245158992737500,4.729737548828125,-0.1518997034728527,-0.036172844882309436,0.011580657276324928
1783245159002749400,4.73974951171875,-0.09003332214653491,-0.046208501206338404,0.04608242714125663
1783245159012761600,4.74976171875,-0.05562076493501663,-0.005559095431864261,0.09830153040662408
1783245159022772500,4.7597724609375,-0.025559973192214966,0.008038052766025067,0.14380246786549686
1783245159032784400,4.769784423828125,0.0021206454157829285,0.005659925457835197,0.13202457098402082
1783245159042796500,4.779796630859375,0.04682137240767479,0.012001111178100108,0.10763236292954534
1783245159052807700,4.7898076171875,0.12006138066351413,0.032196050205826755,0.09045151102598756
1783245159062819600,4.799819580078125,0.1981581813007593,0.046451662312448024,0.06295300751924514
1783245159072831700,4.809831787109375,0.23503508279919624,0.05358925910741091,0.042088571732118725
1783245159082843600,4.81984375,0.2619412099033594,0.06325199046581984,0.03674487261660397
1783245159092854500,4.8298544921875,0.23642916750609874,0.041646015596389765,0.036822687093168494
1783245159102866400,4.839866455078125,0.1625830100506544,0.003426759578287601,0.04563895769007504
1783245159112878600,4.849878662109375,0.08738426894247531,-0.001313128425180912,0.05034256880376488
1783245159122890500,4.859890380859375,-0.014855039304494857,0.008467968615889549,0.05189787195436656
1783245159132901400,4.8699013671875,-0.10671323879063128,0.053631052422523494,0.04722440025061369
1783245159142913500,4.87991357421875,-0.18273849385082722,0.07676233716309071,0.010856617318093776
1783245159152925400,4.889925537109375,-0.15949965708255767,0.12703180419802665,-0.053021249961107964
1783245159162936600,4.8999365234375,-0.11513678374290466,0.16750965279787777,-0.1052699811797589
1783245159172948500,4.909948486328125,-0.019500234761834143,0.1356806823387742,-0.13609390278216452
1783245159182960400,4.91996044921875,0.10749182194769381,0.09799421802312135,-0.16562979386802762
1783245159192972500,4.92997265625,0.19278467156887052,0.0974193407446146,-0.13987141202688216
1783245159202983700,4.939983642578125,0.2015565915673971,0.12126461897343396,-0.08181607688870281
1783245159212995600,4.94999560546875,0.2117085677474737,0.13969780902564524,-0.03254369459971786
1783245159223007500,4.960007568359375,0.198638073772192,0.15525573590248823,0.06767042796257883
1783245159233019600,4.97001953125,0.1714057834535837,0.12113982354998588,0.13974453424420208
1783245159243030500,4.980030517578125,0.09656769235134124,0.04388678026050329,0.12807813491318373
1783245159253042400,4.99004248046875,-0.017304770544171334,-0.02709463541358709,0.11007244955804198
1783245159263054600,5.0000546875,-0.1102636247485876,-0.03212503079622984,0.07082454461194575
1783245159273065500,5.0100654296875,-0.22587562478780746,-0.022568974682688713,0.012444105705246329
1783245159283077400,5.020077392578125,-0.30906478012800215,-0.01586217052042484,-0.03671257778219878
1783245159293089500,5.030089599609375,-0.33517654198408126,0.02827098571658134,-0.04687281033396721
1783245159303101400,5.040101318359375,-0.33425650452971456,0.03044306905865669,-0.09065127138178795
1783245159313112600,5.050112548828125,-0.28193945731520653,0.017320844896137715,-0.15716230017617344
1783245159323124500,5.06012451171875,-0.195243755158782,0.0022317045748233796,-0.13359846923723817
1783245159333136600,5.07013671875,-0.03877835120558738,-0.00923515359610319,-0.0703617859384045
1783245159343148500,5.0801484375,0.09081482791304588,-0.07682809587568044,-0.008484298696182668
1783245159353159400,5.090159423828125,0.14052899915277958,-0.17270166848301888,0.05854457995984703
1783245159363171600,5.100171630859375,0.16811960138976573,-0.20753829632550477,0.1325348220610991
1783245159373183500,5.11018359375,0.10727145719528197,-0.18696838650554418,0.19691548776328563
1783245159383194400,5.1201943359375,0.05067804783582687,-0.1518254691928625,0.22610702239088712
1783245159393206500,5.13020654296875,0.025837621089816094,-0.13634995990246535,0.242872023502551
1783245159403218400,5.140218505859375,-0.02384264788031578,-0.14594722480922936,0.20475874860957263
1783245159413230300,5.150230224609375,-0.06617547669708729,-0.1512234116464853,0.1766876693792641
1783245159423241700,5.16024169921875,-0.07565875983536242,-0.1455769301921129,0.15775358060020953
1783245159433253600,5.170253662109375,-0.06363923621773719,-0.11704349414706229,0.13154263268597424
1783245159443265300,5.180265380859375,-0.03796352769136429,-0.0805704972743988,0.10426990075912326
1783245159453277200,5.190277099609375,0.00008709376156330108,-0.07874240506440401,0.0490485834704712
1783245159463288000,5.2002880859375,0.07022855148017407,-0.09326777402311563,-0.008545162037946284
1783245159473300200,5.21030029296875,0.0666448477745056,-0.09252455444037913,-0.029827129117399452
1783245159483312000,5.22031201171875,0.04664776940643787,-0.046109132485091686,-0.01144424448031932
1783245159493323000,5.230322998046875,0.019231354692578313,-0.02335720245093107,0.0020987258449196816
1783245159503335200,5.240335205078125,-0.032145196801424025,-0.03280629105865955,-0.009731047354266047
1783245159513347000,5.25034716796875,-0.061222238203883166,-0.051906128326058384,-0.037600247336924075
1783245159523359000,5.26035888671875,-0.05367956773936748,-0.014894494532048701,-0.0699851346457377
1783245159533370000,5.2703701171875,-0.0713596013367176,0.007628595182299613,-0.09656761928610504
1783245159543382300,5.28038232421875,-0.05082008665502071,0.020127134488523005,-0.10627565109096467
1783245159553394200,5.290394287109375,-0.03957622358500957,-0.005044131647050381,-0.10597626628559081
1783245159563406300,5.30040625,-0.10263853669762611,-0.04792173486500978,-0.06518434676788747
1783245159573417200,5.310417236328125,-0.12090952192544936,-0.05886047750860452,0.0009579948445782065
1783245159583429000,5.32042919921875,-0.15039514412879942,-0.022163608752191064,0.07856854633484035
1783245159593441300,5.330441162109375,-0.14233400274813174,-0.02789250779300928,0.10355503048803656
1783245159603453200,5.340453125,-0.09678045831918716,-0.06707943979948759,0.07677223750259726
1783245159613464000,5.350464111328125,-0.036243279770016665,-0.10904869600087404,0.09836809283681214
1783245159623476000,5.36047607421875,-0.035754034948348994,-0.11711071416437625,0.13057619880661367
1783245159633488100,5.370488037109375,-0.025697920358180998,-0.1335077222138643,0.16864431938361377
1783245159643499000,5.3804990234375,-0.023940847557783126,-0.09268120630681514,0.20255115556269884
1783245159653511200,5.39051123046875,-0.06844108354151249,-0.05224661232680082,0.22845760410502552
1783245159663523000,5.400523193359375,-0.039487960779666896,-0.03983253643363714,0.21792422739192843
1783245159673535200,5.41053515625,-0.04315115946233272,-0.06389350323975086,0.17116185516249388
1783245159683546000,5.420546142578125,-0.04831833296716213,-0.10845803663134575,0.1310806046647951
1783245159693558300,5.430558349609375,-0.06098784492611885,-0.06811462806612253,0.11477748544383794
1783245159703570200,5.440570068359375,-0.06620353374779224,-0.015668693774938583,0.11081924933735281
1783245159713582000,5.45058203125,-0.044346506726741786,0.02042670195698738,0.11088581176754086
1783245159723593200,5.46059326171875,-0.030682138511538504,0.02759060223698616,0.07687818209510296
1783245159733605000,5.470605224609375,-0.037521044620871545,0.01353168174624443,0.07795019524078815
1783245159743617000,5.480616943359375,-0.05164601608514786,0.016304361329972743,0.09608290450908243
1783245159753628200,5.490628173828125,-0.09228548498749732,0.06026683717519044,0.10750683685373515
1783245159763640000,5.50064013671875,-0.12363222488760947,0.07756693154424428,0.09473631220571696
1783245159773652000,5.51065185546875,-0.15009002370238303,0.04476473213881254,0.053973911043442784
1783245159783664000,5.5206640625,-0.17840251047313213,0.04784750058501958,-0.015078838123008607
1783245159793675300,5.53067529296875,-0.1775192978978157,0.08006780844926834,-0.03775576669219881
1783245159803687200,5.540687255859375,-0.17582710702717302,0.10206453620195388,-0.03943743616882711
1783245159813699300,5.55069921875,-0.17002689631581305,0.11089520065039396,-0.04113748155236244
1783245159823711200,5.560711181640625,-0.14316636191904544,0.1459150761052966,-0.04970562260709702
1783245159833722000,5.57072216796875,-0.09134206665754317,0.18161475051790474,-0.03888944689724594
1783245159843734000,5.580734130859375,-0.025929391026496884,0.17598434341549873,-0.052537485032156106
1783245159853746200,5.59074609375,0.005975567278265953,0.14491671271771192,-0.07696965977083892
1783245159863757000,5.600757080078125,-0.009185761496424675,0.16477993557304144,-0.06253397838957607
1783245159873769000,5.61076904296875,-0.007617489266395569,0.19650047722160816,-0.04020586325805634
1783245159883781000,5.620781005859375,-0.03206394825875759,0.2192924470052123,-0.03321465266384184
1783245159893793000,5.63079296875,-0.039676761350035665,0.22601386421471834,-0.04519307708609849
1783245159903804200,5.64080419921875,-0.02849602664411068,0.23949147768616674,-0.04265880936812609
1783245159913816300,5.65081640625,0.017665420550107953,0.278613235501945,-0.03869494723845273
1783245159923828200,5.660828125,0.09333119464814663,0.2918295676887035,-0.053540195801295334
1783245159933840100,5.670840087890625,0.19277882634997368,0.2740866979882121,-0.08594459152817725
1783245159943851300,5.680851318359375,0.27371114267408847,0.23475626585781573,-0.11442048869971186
1783245159953863200,5.69086328125,0.30321897670924663,0.19717150835096836,-0.1550118441440165
1783245159963875000,5.700875,0.2726297771781683,0.15962445250600577,-0.16385580646544695
1783245159973886200,5.71088623046875,0.17311024928390978,0.15269553002566097,-0.15518851588517427
1783245159983898000,5.720898193359375,0.0411304672896862,0.15153934572786093,-0.14366788170039652
1783245159993910000,5.730909912109375,-0.04415244545936584,0.15710428637862203,-0.1365853030283004
1783245160003922200,5.740922119140625,-0.13552899890840053,0.1335191203907132,-0.1420238408204168
1783245160013933000,5.75093310546875,-0.1869125646650791,0.13817425272017717,-0.19398655817192045
1783245160023945200,5.7609453125,-0.19257658177614212,0.14264467613250018,-0.2387053688097745
1783245160033957000,5.77095703125,-0.16103227347731588,0.14862930350005626,-0.257090116610378
1783245160043969300,5.78096923828125,-0.12532324671447276,0.10420563988387584,-0.25067834987193344
1783245160053980200,5.790980224609375,-0.060222705772519106,0.022042904981970785,-0.2436895504305139
1783245160063992000,5.800991943359375,-0.018516484421491623,-0.03855740193128586,-0.18819095057044177
1783245160074004200,5.811004150390625,-0.02857961327433586,-0.04247632894068956,-0.09838230402525514
1783245160084015000,5.82101513671875,-0.06213701496124267,-0.0195762226074934,-0.04242964025475084
1783245160094027000,5.831027099609375,-0.12875672829449175,-0.030557343088090418,-0.009006605537235736
1783245160104039200,5.8410390625,-0.1811217063039541,-0.059684653373062606,-0.044102578435651955
1783245160114051000,5.851051025390625,-0.21699965989291667,-0.10021043276786804,-0.07439147984590382
1783245160124062000,5.86106201171875,-0.20175415996611118,-0.10395517225414513,-0.08407645956873894
1783245160134074000,5.87107421875,-0.17411971858739853,-0.0724903589323163,-0.06617251755502075
1783245160144086000,5.8810859375,-0.1243020869731903,-0.07054594686627387,-0.0021389847900718448
1783245160154098000,5.891097900390625,-0.07731529487073421,-0.10920476334542036,0.022949754161201416
1783245160164109300,5.901109375,-0.10450140796005725,-0.1681017734721303,0.0617827946960926
1783245160174121200,5.911121337890625,-0.13051730822622776,-0.13823884238898754,0.1183727334568277
1783245160184133000,5.921133056640625,-0.14926760140359402,-0.10291647685617208,0.18926939345691352
1783245160194144300,5.931144287109375,-0.08348258532881736,-0.09761194070726632,0.2363453251475468
1783245160204156200,5.94115625,-0.021026421415805817,-0.09681932902485131,0.19866130851730704
1783245160214168000,5.95116796875,0.07418459562957286,-0.07826222033202648,0.1600798315906897
1783245160224180200,5.96118017578125,0.1856283700734377,-0.08271277000010013,0.08345971590988338
1783245160234191000,5.971191162109375,0.22863106097579,-0.08651099323928356,0.007561703958548605
1783245160244203000,5.981203125,0.17492051357626914,-0.1417260999828577,-0.0020722031641751525
1783245160254215200,5.991215087890625,0.028554478833079336,-0.27188948020488024,0.03648359133191407
1783245160264227000,6.00122705078125,-0.23076339682936667,-0.2529199913188815,0.13092756952755152
1783245160274238200,6.01123828125,-0.5409165567159653,-0.16038199287503957,0.21646160749346016
1783245160284250000,6.02125,-0.7695248213380574,-0.08934943153560161,0.2354217074966058
1783245160294262300,6.03126220703125,-0.8213742510408163,0.021335633495450017,0.19144673749599606
1783245160304274200,6.041274169921875,-0.6724556092053652,0.09497107080966234,0.12886270941961556
1783245160314285000,6.05128515625,-0.39996553275883195,0.13079612516760825,0.018935659681633115
1783245160324297200,6.061297119140625,-0.05135784679353237,0.1604617801129818,-0.051493200143612916
1783245160334309000,6.07130908203125,0.292087926363945,0.16116846707761287,-0.0822082910766825
1783245160344320000,6.081320068359375,0.5421574966877699,0.1263254094943404,-0.03345584100857377
1783245160354332200,6.091332275390625,0.6843441999197006,0.09355126713961362,0.04784779284596443
1783245160364344000,6.101343994140625,0.6645107876807451,0.13611118271052836,0.2063403917778283
1783245160374356000,6.11135595703125,0.5822796637177468,0.24012831428498027,0.42161012260559944
1783245160384367000,6.1213671875,0.47789048396050926,0.32051644072979685,0.5153558528713882
1783245160394379300,6.131379150390625,0.41094636097848414,0.3200824332267046,0.4619005588745698
1783245160404391200,6.14139111328125,0.3806231189072132,0.2857625227347016,0.2991088379766792
1783245160414403300,6.1514033203125,0.39664544842541216,0.21791414438933132,0.07810706630293279
1783245160424414200,6.161414306640625,0.41443887926936146,0.12994535355716944,-0.14984638767223804
1783245160434426000,6.171426025390625,0.3689724286019802,0.10463087955862282,-0.31100035130046305
1783245160444439300,6.181439208984375,0.2729202845573425,0.10887655430436134,-0.35770573264565314
1783245160454450400,6.191450439453125,0.1119452942252159,0.13484335473179818,-0.28426267609838396
1783245160464462300,6.20146240234375,-0.0057195466905832285,0.17394377749860285,-0.1716690374996513
1783245160474474200,6.21147412109375,-0.10917349142432212,0.1718500200897455,-0.09580646218787878
1783245160484486400,6.221486328125,-0.14081307679116725,0.11903846735656261,-0.047671157637424764
1783245160494497300,6.231497314453125,-0.12531623245179652,0.06712386346310377,-0.04449521274873987
1783245160504509200,6.24150927734375,-0.06127075352072715,0.05681260506808757,-0.04789221650958061
1783245160514521300,6.251521240234375,0.05999708032310009,0.06328443143069744,-0.04966393888983875
1783245160524533200,6.261533203125,0.1872398969233036,0.03577858486771583,-0.08505958885457367
1783245160534544100,6.271544189453125,0.2585001295387745,-0.011007423965632914,-0.15062897115098312
1783245160544556300,6.281556396484375,0.2615098327487707,-0.035687983974814416,-0.16731959185218437
1783245160554568200,6.291568115234375,0.2019792008936405,-0.024021803839504717,-0.09883249547816812
1783245160564579300,6.301579345703125,0.05532090520560741,0.005168342548608779,0.012199647691193968
1783245160574591200,6.31159130859375,-0.08265548685491085,-0.02728723537623882,0.12387615317869931
1783245160584603400,6.321603271484375,-0.2076993321061134,-0.049018882451951504,0.167344068706315
1783245160594615300,6.331615234375,-0.324290990832448,-0.08902268379926681,0.14675868732258676
1783245160604626200,6.341626220703125,-0.38109833520352837,-0.0927788214623928,0.10226491761226206
1783245160614638300,6.351638427734375,-0.4101555028617382,-0.045398938389122484,0.09276630904069169
1783245160624650200,6.361650146484375,-0.3944143283724785,0.018624036449193953,0.10639233627319335
1783245160634662100,6.371662109375,-0.3729845868527889,0.04082388555854559,0.0919187340343371
1783245160644673300,6.38167333984375,-0.32897242664694787,0.04006225353628397,0.05200474812863394
1783245160654685200,6.391685302734375,-0.2215121688812971,0.013323299692571162,0.03334722953494638
1783245160664697000,6.401697021484375,-0.1371200674921274,-0.019845687198638915,0.008868987164832651
1783245160674708500,6.41170849609375,-0.062297173959016794,-0.06596884820908308,-0.030944260046444832
1783245160684720400,6.421720458984375,-0.005749941828846931,-0.04393909496963024,-0.029269933626055716
1783245160694732300,6.431732177734375,0.054469256812334055,0.0795876237168908,0.0356831616692245
1783245160704744400,6.441744384765625,0.12823065859377383,0.19277765730619428,0.07247651307005434
1783245160714755300,6.45175537109375,0.23118366806805132,0.19604951858371494,0.029930114567838607
1783245160724767200,6.461767333984375,0.3454354856699705,0.11796119351387023,-0.05449331354135647
1783245160734779400,6.471779296875,0.4323170657873153,0.04892068277448416,-0.07722664847290144
1783245160744791300,6.481791259765625,0.47356736006438727,0.025667525219917296,-0.04179057516623288
1783245160754802200,6.49180224609375,0.4760118306070566,0.013743278670310973,0.0217655493453145
1783245160764814300,6.501814453125,0.3863753988236189,-0.016258476361632346,0.06503094630446285
1783245160774826200,6.511826171875,0.2702069339454174,-0.022803660221397876,0.0771292890456505
1783245160784838100,6.521838134765625,0.11613105547726153,-0.01820055034011602,0.1014725981907919
1783245160794849300,6.531849365234375,-0.010626607954502106,-0.00827449187040329,0.11967996186418459
1783245160804861200,6.541861083984375,-0.13138123157918452,0.02329582765251398,0.11939734553052112
1783245160814873300,6.551873291015625,-0.21091420249938964,0.05634586433917284,0.10653249366255477
1783245160824884200,6.56188427734375,-0.20390870765149594,0.019606033223867416,0.06123515248438343
1783245160834896400,6.571896484375,-0.18187573954164982,-0.0618482611477375,-0.0424313572878018
1783245160844908300,6.581908203125,-0.16824527359604835,-0.08416355333030223,-0.13893456956818698
1783245160854920200,6.591920166015625,-0.16282441759109495,-0.0482762473911047,-0.11815631422717124
1783245160864931300,6.601931396484375,-0.15822890649437904,0.019326631760597228,-0.04894439244363457
1783245160874943200,6.611943115234375,-0.21853929055035112,0.02433189270198345,0.034000341415125875
1783245160884955100,6.621955078125,-0.20898469574153422,-0.024037585930526253,0.07764878287510946
1783245160894967300,6.63196728515625,-0.14004618407189845,-0.0037412323549389837,0.10968602579003199
1783245160904978200,6.641978271484375,-0.08954057019352912,-0.01016717374920845,0.08434245356116443
1783245160914990000,6.651989990234375,0.005724222865700721,-0.06570669014155864,-0.0619940993592143
1783245160925002200,6.662002197265625,0.004109188884496688,-0.12053338208943605,-0.19953626472093164
1783245160935013400,6.672013427734375,-0.04990063372254371,-0.05724310543984174,-0.24721960598649456
1783245160945025300,6.682025390625,-0.2069943987071514,-0.027819150295853613,-0.167184640360903
1783245160955037400,6.692037353515625,-0.3781763102769852,-0.021972177833318708,-0.02684106251131743
1783245160965049300,6.70204931640625,-0.470740612205863,0.010137655393779277,0.10145851486651226
1783245160975060200,6.712060302734375,-0.48900750578045843,0.07011310840696096,0.09216921993037686
1783245160985072400,6.722072265625,-0.46650165946185584,0.09364800551235675,-0.08343790593687445
1783245160995084300,6.732084228515625,-0.3581137654572725,0.11572276693731545,-0.26185437187012284
1783245161005096200,6.74209619140625,-0.21016016926169395,0.15714549517184495,-0.3845574992140755
1783245161015107000,6.752107177734375,-0.004474515065550804,0.1865446081355214,-0.37162118954509493
1783245161025119200,6.762119140625,0.2052250509470701,0.19017010515630245,-0.3282854672960937
1783245161035131100,6.772131103515625,0.3744908997625112,0.10100801288634538,-0.23123755367975682
1783245161045142300,6.782142333984375,0.4219628450334072,-0.02743804202377796,-0.05005096544604748
1783245161055154400,6.792154541015625,0.28051380842626095,-0.1130260751992464,0.013005612045526504
1783245161065166300,6.802166259765625,0.008059387814998627,-0.09077478816360235,0.022648067800886927
1783245161075178200,6.81217822265625,-0.20255144782364368,-0.006431786613166332,0.0653344227630645
1783245161085189400,6.822189453125,-0.2806944256901741,0.11928250524550675,0.10284900111053139
1783245161095201300,6.832201171875,-0.21889701794683933,0.16565554936379193,0.093811671641469
1783245161105213200,6.842213134765625,-0.09717442607283591,0.029621523542702196,-0.0028532340066507456
1783245161115225300,6.852225341796875,0.0051005380094051355,-0.030113106451928613,-0.05799965942818671
1783245161125236200,6.862236328125,0.07819967648983,-0.055418228100240226,-0.07239164779819547
1783245161135248100,6.872248046875,0.07623042224347591,-0.017910627482831478,-0.061272032162360844
1783245161145260300,6.88226025390625,0.06392740550935268,0.041757367016375065,-0.05539393390920013
1783245161155272200,6.892272216796875,0.08450257602632046,0.055257192319631575,0.00483370376676321
1783245161165283300,6.902283447265625,0.11912497659623622,0.05612988350093365,0.054959195753745735
1783245161175295200,6.912295166015625,0.12184884860217571,-0.007019815634191036,-0.01959087218735367
1783245161185307400,6.922307373046875,0.1288373923152685,-0.026463644033670426,-0.029618747063726185
1783245161195318300,6.932318359375,0.05669628521203995,-0.0010758125379681587,0.02916223546788096
1783245161205330400,6.942330322265625,-0.000054945057630538935,0.056964288498461246,0.10146277091652155
1783245161215342300,6.95234228515625,-0.051639001822471615,0.05718026933670044,0.12526125086154788
1783245161225354200,6.962354248046875,-0.09351356547772884,-0.023621406345069408,0.04705693472921848
1783245161235365000,6.972365234375,-0.1354085873991251,-0.11154197412133217,-0.0732687228936702
1783245161245377300,6.982377197265625,-0.18053484632670877,-0.06193360134363174,-0.08766418186239898
1783245161255389200,6.99238916015625,-0.17585399503409863,0.04784223988801241,-0.037729079614672804
1783245161265401300,7.0024013671875,-0.2059223855614662,0.0909405001193285,-0.011012611597403884
1783245161275412200,7.012412109375,-0.14624971488714217,0.05955898116677999,-0.0649462636956945
1783245161285424000,7.022424072265625,-0.08942775746881962,0.0093283848375082,-0.12082474798513576
1783245161295436000,7.03243603515625,-0.02246609883010387,-0.024995617307722567,-0.11097438510013743
1783245161305447400,7.042447509765625,0.024223171630501746,-0.03941752589195967,-0.04698049022583291
1783245161315459300,7.052459228515625,0.04239186552762985,-0.0637020723208785,0.009116660049278288
1783245161325471200,7.06247119140625,0.046181905460357664,-0.07109890457391739,0.014131985726952552
1783245161335483400,7.0724833984375,0.012892799320816993,-0.05589315213561058,0.02733326647505164
1783245161345494300,7.082494384765625,-0.02466916183233261,-0.04373509683012962,0.05269331491468474
1783245161355506200,7.092506103515625,-0.049364627149701114,-0.006036649815738201,-0.0037161709789186714
1783245161365518300,7.102518310546875,-0.0937900443315506,-0.022848376145958898,-0.0828890216161497
1783245161375530200,7.1125302734375,-0.11001871007680893,-0.05824029978364706,-0.0864751730072312
1783245161385541000,7.122541015625,-0.10087912580966948,-0.05178425551205873,-0.02971557676801458
1783245161395553300,7.13255322265625,-0.10918459734022616,-0.028982348856329915,0.01903588691940531
1783245161405565200,7.142565185546875,-0.07624971146583556,-0.012973171080648898,0.021894253758899865
1783245161415576300,7.152576416015625,-0.02146539735496044,-0.017533318603038788,0.008375486293155699
1783245161425588500,7.16258837890625,0.013693594309687614,0.00447509958744049,0.04466238600919023
1783245161435600400,7.172600341796875,0.013989362385869026,-0.032067747651040555,0.08015773348873481
1783245161445610800,7.18261083984375,-0.009984218397736548,-0.057711891995370385,0.060507641927432264
1783245161455621600,7.19262158203125,-0.035521979758143425,-0.062085577034950254,0.07120077577950433
1783245161465633800,7.2026337890625,-0.04888122754693031,-0.05991320143193006,0.0536803349243477
1783245161475645700,7.212645751953125,-0.0924479820728302,-0.05491612379699945,0.010708824611548333
1783245161485657600,7.22265771484375,-0.1557300754159689,-0.016684300558269024,0.004957841603085399
1783245161495669000,7.2326689453125,-0.1851268502920866,0.01733311985582113,0.001666672836896032
1783245161505681000,7.242680908203125,-0.18463702094852924,0.03181348062902689,0.018471878094784913
1783245161515692800,7.25269287109375,-0.1917623427838087,0.012766834853589534,-0.012297061917372048
1783245161525704000,7.262703857421875,-0.17215747860372066,-0.03491436925381422,-0.024434494559932497
1783245161535715800,7.2727158203125,-0.1447328805834055,-0.029873452477157114,-0.020275676113739607
1783245161545727700,7.282727783203125,-0.1493809986501932,-0.01515986746996641,0.026280177225545046
1783245161555740000,7.292739990234375,-0.09594926819205284,-0.040673078911006445,0.08632169947857037
1783245161565750800,7.302750732421875,-0.056223991525173184,-0.08824234707653522,0.09529796467646956
1783245161575762700,7.3127626953125,-0.059064183387160296,-0.07425356921255588,0.08637271727975457
1783245161585774800,7.32277490234375,-0.06694470750391483,-0.038058220237493515,0.09454862588020041
1783245161595786800,7.332786865234375,-0.07873509854078292,0.002044365309178829,0.10721603721361607
1783245161605798000,7.3427978515625,-0.06983224563896656,-0.014916998624801635,0.1090954029531218
1783245161615809800,7.352809814453125,-0.038109073641896245,-0.017194295907020568,0.05676423588171601
1783245161625822000,7.362822021484375,0.013962474378943442,0.043808162066340445,0.06939960810905323
1783245161635833900,7.372833740234375,0.058554480299353596,0.06252455297410488,0.08810715812323615
1783245161645844700,7.3828447265625,0.13148352290987966,0.047940731826424596,0.02569448629207909
1783245161655857000,7.39285693359375,0.1360878018349409,0.06373275972008705,0.005752681775204837
1783245161665868800,7.402868896484375,0.12506956421434878,0.08659779473990202,0.027859281376842408
1783245161675879700,7.412879638671875,0.16985387783646583,0.09601736499220133,0.025915271169599144
1783245161685891800,7.422891845703125,0.21512626723647116,0.1225286475598812,0.047873941067373374
1783245161695903700,7.43290380859375,0.06983925990164279,0.1370382344275713,0.08692885332517325
1783245161705915600,7.44291552734375,-0.0877203690290451,-0.0491889783218503,-0.058395673008449375
1783245161715926800,7.4529267578125,0.02264437800645828,-0.22052052749544382,-0.2810954625054262
1783245161725938700,7.462938720703125,0.22289047149717806,-0.09508709840476512,-0.2077663511940278
1783245161735950600,7.47295068359375,0.2801309465885162,0.1565396382331848,0.004257273851986974
1783245161745962800,7.482962646484375,0.20601064836680888,0.21629063484072683,0.1829302170306444
1783245161755974000,7.492973876953125,0.08556056064665317,0.17339578822702167,0.22836033600931985
1783245161765985800,7.50298583984375,-0.1702951918631792,0.17066548648029564,0.19937214193409308
1783245161775998000,7.512998046875,-0.41467210350334643,0.2314265369132161,0.15550373758049682
