time,seconds_elapsed,z,y,x
1783245163858120200,0.0651201171875,0.18321546371281147,-0.009886018720269202,0.07460325943306088
1783245163868131000,0.075131103515625,0.09634382046759128,-0.02167670201808214,0.05640285522341728
1783245163878143200,0.085143310546875,0.030239070919156074,-0.04330225837081671,0.022612448498234152
1783245163888155100,0.095155029296875,-0.06486030244529246,-0.06670359222441911,-0.025890502054523677
1783245163898167000,0.1051669921875,-0.18017361179888247,-0.09712474171221255,-0.046651240005157885
1783245163908178400,0.115178466796875,-0.2570207046359777,-0.061014148411154746,-0.028444680049363524
1783245163918190300,0.1251904296875,-0.2779822441220283,-0.04231383185535669,-0.0035084465123713013
1783245163928202200,0.1352021484375,-0.24934184057116507,-0.012536240968108176,0.024666577149601653
1783245163938213000,0.145213134765625,-0.16514789210259914,0.009866729497909545,0.024335491164866833
1783245163948225300,0.155225341796875,-0.07812076603472233,-0.025200199969112873,0.00976567114307545
1783245163958237200,0.1652373046875,-0.003763736447691917,-0.04682224919050932,0.02379363937312737
1783245163968249300,0.175249267578125,0.07874269732534885,-0.03544160799831152,0.05154675696175545
1783245163978260200,0.18526025390625,0.0870411545932293,-0.009717676416039467,0.09568020545970649
1783245163988272000,0.195272216796875,0.09469488421678543,-0.011041326235234737,0.11299991784468293
1783245163998284000,0.205283935546875,0.0890624312877655,-0.007684709283709526,0.06890174158951268
1783245164008296200,0.215296142578125,0.09902034620046615,0.003969488152861595,0.016440445332415402
1783245164018307300,0.225307373046875,0.14899170707166193,-0.00836509276330471,-0.058263187468890094
1783245164028319200,0.2353193359375,0.14250760574936866,-0.052020694616436956,-0.12310147901177405
1783245164038331400,0.245331298828125,0.10824468614161013,-0.07938011844605207,-0.1314022926335223
1783245164048342300,0.25534228515625,0.08813771765828132,-0.06910100875496863,-0.08433796004913746
1783245164058354200,0.265354248046875,0.024320202264189718,-0.03147445793300867,-0.03601882336437702
1783245164068366300,0.275366455078125,-0.11222937186360359,-0.05411357524245977,0.0070415708082728085
1783245164078378200,0.285378173828125,-0.190499190980196,-0.05612520732581615,0.02312611537510529
1783245164088389000,0.29538916015625,-0.1995920134961605,0.030020167471468448,0.023425006990134715
1783245164098401300,0.3054013671875,-0.21138298905491829,0.04906944359540939,-0.0008218012442812323
1783245164108413200,0.3154130859375,-0.20337913081943987,-0.058227440302073954,-0.0954372635493055
1783245164118425000,0.325425048828125,-0.180452428740263,-0.11550181766301393,-0.1830788317210972
1783245164128436200,0.335436279296875,-0.22348025408387182,-0.0468207878857851,-0.1584023816314526
1783245164138448100,0.3454482421875,-0.23563947843313215,0.057687049815058705,-0.10384951992258429
1783245164148460000,0.3554599609375,-0.19767653526365755,0.0958659738227725,-0.10026409918386489
1783245164158471200,0.36547119140625,-0.17570844908356664,0.047271162001788616,-0.10988226074818522
1783245164168483300,0.3754833984375,-0.13312661394178865,-0.02042377934753895,-0.13486781331961975
1783245164178495200,0.3854951171875,-0.11234978337287903,0.005663432589173316,-0.12558571530925108
1783245164188507400,0.39550732421875,-0.08160451649725436,0.06184650758206844,-0.07461705049639568
1783245164198518300,0.405518310546875,-0.014506079736351965,0.03975450276136398,-0.0800259968678467
1783245164208530200,0.4155302734375,0.03173486243486404,0.01668926899433136,-0.09710424691345543
1783245164218542000,0.4255419921875,0.10778642098009586,0.03896422916650772,-0.08994551599891856
1783245164228554200,0.43555419921875,0.11100129137337207,0.050879707887768744,-0.05728815015796571
1783245164238565000,0.445565185546875,0.12167290751338004,-0.004616553884744644,-0.02636573661714792
1783245164248577000,0.455576904296875,0.09408522788584232,-0.02037789437919855,0.005520242992509156
1783245164258589200,0.465589111328125,0.050098202121257776,0.011994681437313555,0.05208477282859385
1783245164268601000,0.47560107421875,0.001228080490231514,0.02630173147022724,0.07827794762412085
1783245164278612200,0.4856123046875,-0.027273206850886342,0.024220833542943,0.07438322347421199
1783245164288624400,0.495624267578125,-0.06775368579924106,0.031824586544930936,0.05684559402223676
1783245164298636300,0.50563623046875,-0.11722060427963733,0.010511749403178691,0.025778237319085746
1783245164308647200,0.515647216796875,-0.1337742641955614,0.004162672637403011,-0.0030363172222860157
1783245164318659300,0.525659423828125,-0.10865502050817012,0.023514731100201604,-0.011934183421730995
1783245164328671200,0.535671142578125,-0.06865268046557903,0.07245557987987995,-0.015197696996014564
1783245164338683100,0.54568310546875,-0.04246843789517879,0.055224751354753965,-0.029840646186098455
1783245164348694300,0.5556943359375,-0.015461773025989532,-0.01077536877542734,-0.008393752602208406
1783245164358706200,0.5657060546875,0.02713818229436874,0.003655892159044742,0.03657200026772916
1783245164368718000,0.575718017578125,-0.008427636605501174,0.050017538100481033,0.0869868853890337
1783245164378730200,0.585730224609375,-0.03690495854914188,0.04004004170447588,0.10949780974155292
1783245164388741400,0.595741455078125,-0.06598492256104946,0.018688333857059477,0.11947094048969446
1783245164398753300,0.605753173828125,-0.09697335054278373,0.05134732539951801,0.07984340684255585
1783245164408765400,0.615765380859375,-0.06996142497658729,0.09132190065234899,0.05183101726323366
1783245164418776300,0.6257763671875,-0.06413549530208111,0.07981792534142731,-0.0027109029265120622
1783245164428788200,0.635788330078125,-0.0515963317245245,0.009500234273076056,-0.04287890012590214
1783245164438800100,0.645800048828125,-0.02751695247888565,-0.008768705128133297,-0.0414619277337566
1783245164448812000,0.65581201171875,-0.007877016985416412,0.04242489101439714,0.013294146663323044
1783245164458823000,0.665822998046875,0.00701660076379776,0.09827449626922607,0.04428359755836427
1783245164468835000,0.6758349609375,0.05214812038838863,0.07984861274063587,0.05497433852395042
1783245164478847000,0.685846923828125,0.05776829835772514,0.049476270830631254,0.048252665586117655
1783245164488859000,0.69585888671875,0.05524082570672035,0.022715397416055202,0.02652437951127067
1783245164498870000,0.7058701171875,0.024173487269878387,0.049318157659471035,0.011557367732282726
1783245164508882000,0.7158818359375,0.004116203147172927,0.039488545301556585,0.0003428403546102345
1783245164518894000,0.72589404296875,0.03388765655457973,0.02551525726765394,-0.01989493316784501
1783245164528906000,0.735906005859375,0.05780395419299602,-0.0007864742025732994,-0.014060016469284892
1783245164538917000,0.745917236328125,0.037650808480381964,-0.034545828202366825,0.0014463080844841897
1783245164548929000,0.755928955078125,-0.0051315176695585244,-0.03409574634730816,0.036374377070087935
1783245164558941000,0.76594091796875,-0.06384966409802437,0.003241466139256954,0.06215392956342548
1783245164568952000,0.7759521484375,-0.12449439467489719,0.003096504710614681,0.09185737750222905
1783245164578964000,0.7859638671875,-0.1859498571127653,-0.019509294851124286,0.08207600646652281
1783245164588975900,0.795975830078125,-0.26132512383162976,-0.041942075933516024,0.0870547447271645
1783245164598988000,0.805988037109375,-0.2913011599004268,-0.008390227204561233,0.10118826482407749
1783245164608999000,0.8159990234375,-0.22609423597455022,0.014538520701229572,0.08929587471745908
1783245164619010800,0.8260107421875,-0.1312953068614006,0.03202244720458984,0.04404743244862184
1783245164629023000,0.83602294921875,-0.019850363373756407,0.021106793175637722,-0.01576530428351834
1783245164639035000,0.846034912109375,0.09581015198230743,0.006548690991103649,-0.06032450391286984
1783245164649046000,0.8560458984375,0.16039748270511625,0.015291969417035579,-0.06641182446992025
1783245164659058200,0.86605810546875,0.1546142231285572,0.015704641871154307,-0.08032971078846603
1783245164669070000,0.876070068359375,0.13242460315227508,0.02234334923326969,-0.10086705177938565
1783245164679081000,0.8860810546875,0.03586334054172039,0.07696838112920522,-0.08201994716404006
1783245164689093000,0.896093017578125,-0.07538403454720974,0.1357198453053832,-0.04694865204915404
1783245164699105000,0.90610498046875,-0.1493418356835842,0.15801234113425017,-0.039973113948106764
1783245164709117000,0.916116943359375,-0.180042094373703,0.13490619083493946,-0.04481962239751592
1783245164719127800,0.9261279296875,-0.17938567629158494,0.09934621715396642,-0.05900571293188259
1783245164729140000,0.936139892578125,-0.13871347416341304,0.08107055575102567,-0.0807676638143137
1783245164739152000,0.94615185546875,-0.05734919616281986,0.10056757564246654,-0.11324556316882371
1783245164749164000,0.9561640625,0.00300853416621685,0.12101941204071044,-0.11486795847257598
1783245164759175200,0.966175048828125,0.01165244387090206,0.13057692945897578,-0.10959874936537817
1783245164769187000,0.97618701171875,0.037680034574866295,0.14159867421090602,-0.09103300070837139
1783245164779199000,0.986198974609375,-0.003160509857535362,0.1435036310493946,-0.07329758366197348
1783245164789211100,0.996211181640625,-0.04752689032852649,0.11327888091653585,-0.05565919724926352
1783245164799222000,1.006221923828125,-0.0738210230141878,0.11845745259821414,-0.033175252235215155
1783245164809234000,1.01623388671875,-0.11311141539514064,0.15524258415997028,-0.0023171361022628844
1783245164819246000,1.02624609375,-0.12173545135557651,0.14978841040730476,-0.011170907431654631
1783245164829257000,1.036257080078125,-0.08342530218362808,0.11810030972361564,-0.03918850290905684
1783245164839268900,1.046268798828125,-0.04331716367900371,0.13924334325641394,-0.0515814994815737
1783245164849281000,1.056281005859375,0.012865326792001723,0.14097089770138263,-0.04377994061885401
1783245164859293000,1.06629296875,0.0696732556849718,0.11731325099915266,-0.03384458459783345
1783245164869304000,1.076303955078125,0.14701894569396973,0.060417643822729586,-0.019321024003718046
1783245164879316000,1.08631591796875,0.11707505832910536,0.025277064597606657,-0.015097762019187212
1783245164889328000,1.096328125,0.06980126597881317,0.026278350594639777,0.04757189851403236
1783245164899340000,1.106340087890625,-0.007611059525609016,0.05054711493253707,0.09282224047901108
1783245164909351200,1.11635107421875,-0.053937926414608955,0.050689153751730914,0.09477918323306367
1783245164919363000,1.126363037109375,-0.07384381936788559,0.020667817236483095,0.10855685736332088
1783245164929375000,1.136375,-0.08948620965778827,-0.0353618207603693,0.0984620729968883
1783245164939385900,1.1463857421875,-0.08120002734959125,-0.026046295404434202,0.10235263242833316
1783245164949398000,1.15639794921875,-0.037005496314167975,0.004138999500870704,0.1132021989511326
1783245164959410000,1.166409912109375,-0.014676175606250763,-0.01182633913308382,0.09461885983850807
1783245164969422000,1.176422119140625,0.007428104174137115,-0.07172785012722015,0.06863675224408507
1783245164979433000,1.186432861328125,-0.012227028888463973,-0.07541004577130078,0.08924929562937468
1783245164989444900,1.19644482421875,-0.09575637596845626,-0.019768238048255442,0.11477611547065898
1783245164999457000,1.20645703125,-0.1357131233036518,0.006460720446705818,0.11759847941501066
1783245165009469000,1.216468994140625,-0.12632920888662338,-0.005392506693303585,0.09381026513567194
1783245165019480000,1.22647998046875,-0.10665829373300074,-0.013372107270359992,0.047767457618750626
1783245165029492000,1.236491943359375,-0.05257482136785984,-0.018258125746250152,0.006719060855638235
1783245165039504100,1.246504150390625,0.004423077139258384,-0.021251754604279995,-0.009448230091203004
1783245165049515000,1.256514892578125,0.06272153685092925,-0.021544600071012974,0.015418408808298409
1783245165059527000,1.26652685546875,0.06712240215837956,-0.039890111839771265,0.038955351740308106
1783245165069539000,1.2765390625,0.05113222134411335,-0.009706278239190578,0.05466804905375466
1783245165079551000,1.286551025390625,0.03348492097258567,0.024303835651278496,0.07906723483828827
1783245165089561900,1.296561767578125,0.030583354312181472,0.025603227812051772,0.07608054717769847
1783245165099574000,1.306573974609375,0.015115736067295073,-0.014081424583494663,0.05430621173772961
1783245165109586000,1.3165859375,-0.02625730780661106,-0.03886135331392288,0.02396746157007292
1783245165119597800,1.326597900390625,-0.02840016505420208,-0.014992694209516048,-0.006876753901690244
1783245165129609200,1.336609130859375,-0.0007844283759593963,0.0029237784922122954,-0.0432921023029834
1783245165139621000,1.34662109375,0.00017243395745754242,-0.012125906601548194,-0.09959582626717164
1783245165149633000,1.356633056640625,-0.003474398112297058,-0.04208791414499283,-0.07706963128028436
1783245165159644000,1.366643798828125,-0.025372926187515257,0.0075868018671870225,-0.022552900330722332
1783245165169656000,1.376656005859375,-0.08988076193332671,0.05013911865353584,0.022900453393068163
1783245165179668000,1.38666796875,-0.1291115330815315,0.006220189689099789,-0.00007492839973419904
1783245165189680000,1.39668017578125,-0.13457038300931454,0.005817454107105732,-0.030743312380556016
1783245165199691000,1.40669091796875,-0.1523614757657051,0.055468496982753274,-0.02689425400327891
1783245165209703000,1.416702880859375,-0.14766718046963215,0.07581278135329485,-0.020453516898676753
1783245165219715000,1.426715087890625,-0.09869885916113853,0.03698854517936706,-0.037982433321233834
1783245165229727000,1.43672705078125,-0.07227379357218743,0.015889058527350425,-0.0417093448898755
1783245165239738000,1.446738037109375,-0.03848492121696472,0.034845395670831204,-0.0026393903265707194
1783245165249750000,1.45675,0.02070551889836788,0.06313245573937892,0.03470489122159779
1783245165259762200,1.46676220703125,0.09714169284701346,0.017450316494703293,0.001882653675135225
1783245165269774000,1.476774169921875,0.09845043735802173,-0.04025573028177023,-0.0003000606588087976
1783245165279785000,1.486784912109375,0.09526362401545047,-0.04619739529043436,0.00500098662506789
1783245165289797000,1.496797119140625,0.08619885855019092,-0.007590016737580299,0.022113376402296124
1783245165299809000,1.50680908203125,0.06037058981060981,0.03259352509081363,0.004171056873258203
1783245165309820000,1.51681982421875,0.02829845824539661,0.015782383282482625,-0.03707799529479816
1783245165319832000,1.52683203125,-0.0022001403927803037,-0.0034366964504122734,-0.05242176796430722
1783245165329844000,1.536843994140625,-0.044563364347815514,0.02808335418999195,-0.038438232531026004
1783245165339856000,1.54685595703125,-0.07801847470402717,0.03927402576804161,-0.030602040746342388
1783245165349867000,1.556866943359375,-0.11028408301472663,-0.022673896361887453,-0.026328546411916613
1783245165359879000,1.56687890625,-0.11815174764990806,-0.07093202357441186,0.017367277853749693
1783245165369890800,1.576890869140625,-0.060251931867003436,-0.033789456877112385,0.03699323962079361
1783245165379903000,1.586903076171875,-0.046961657661199564,0.012757482503354548,0.05069527296526357
1783245165389914000,1.5969140625,-0.01568506038784981,-0.010569032548367977,-0.006943407663423567
1783245165399926000,1.606926025390625,-0.033871289941668506,-0.017624796278774738,-0.07032943630507216
1783245165409938200,1.616938232421875,-0.0528857870131731,-0.004943886142969131,-0.08192929147221148
1783245165419949000,1.626948974609375,-0.06763619689941405,0.051344402790069577,-0.07822060968000441
1783245165429961000,1.6369609375,-0.13781915567219258,0.016650982810556887,-0.06833581480244175
1783245165439973000,1.64697314453125,-0.1594067181020975,0.0003638648763298988,-0.043670854221191255
1783245165449985000,1.656985107421875,-0.13315350194871425,0.041166999907791615,-0.012759619661513715
1783245165459996000,1.666995849609375,-0.09434183299541472,0.06923194165825844,-0.02590864049941301
1783245165470007800,1.6770078125,0.027002573215961456,0.04078501485288143,-0.059771929797716436
1783245165480020000,1.68702001953125,0.10926759944856167,-0.015114859284460543,-0.09398531117532402
1783245165490031900,1.697031982421875,0.15725743111371993,-0.01754004060477018,-0.07958358686259016
1783245165500043000,1.70704296875,0.16633622510433196,0.010275018037855625,-0.028760632397048173
1783245165510055200,1.71705517578125,0.12179273450076579,0.03272270442843437,-0.004666128647513687
1783245165520067000,1.727067138671875,0.043859599992632864,-0.008185352282226084,0.0035532172358594834
1783245165530078000,1.737077880859375,-0.040833530169725414,0.0019569792866706848,0.022553813646174967
1783245165540090000,1.747090087890625,-0.11666530848443507,0.039644904907047744,0.04761286984523758
1783245165550102000,1.75710205078125,-0.16927461664378643,0.03199409789294004,0.0443317110164091
1783245165560114000,1.767114013671875,-0.17447218528687952,0.01370119309425354,0.04588217359511181
1783245165570125000,1.777125,-0.22122750672101973,-0.05932517241090536,0.06877913812315091
1783245165580137000,1.787136962890625,-0.20470131933391092,-0.04417494955211877,0.0995178291275166
1783245165590148900,1.79714892578125,-0.13277882341742514,0.020723931337893006,0.11865122160464525
1783245165600161000,1.8071611328125,-0.035569326031208034,0.04257657444477081,0.11065602159965783
1783245165610172200,1.817172119140625,0.06115618723034858,-0.014132277987897394,0.07613730059992521
1783245165620184000,1.82718408203125,0.12166706229448318,-0.05416852030009031,0.03889963949769735
1783245165630196000,1.837196044921875,0.15449439614117144,-0.03799684543907642,0.03868915681848302
1783245165640208100,1.8472080078125,0.17098434317111968,0.009316402138769626,0.05492684612041339
1783245165650219000,1.857218994140625,0.12037351535260676,0.023991408701241015,0.07218324747821316
1783245165660231200,1.867231201171875,0.052770636200904844,0.00886836611032486,0.05840772877242416
1783245165670243000,1.8772431640625,0.02450491118133068,0.008520575585961341,0.04892053664401173
1783245165680254000,1.88725390625,0.04275076196789741,0.02036006646156311,0.0270518374514766
1783245165690265900,1.897265869140625,0.04824760581851005,0.035839959666132924,-0.02501832232987508
1783245165700278000,1.907278076171875,0.037972295519709584,0.03386193759143352,-0.06597882161382586
1783245165710290000,1.9172900390625,0.030147885504364966,0.04745791674554348,-0.0970929766007699
1783245165720300800,1.92730078125,-0.0048363341152668,0.06873129865974187,-0.09213601178051903
1783245165730313000,1.93731298828125,-0.04122749792337417,0.08383943594247102,-0.07659182116808369
1783245165740324900,1.947324951171875,-0.04532791897952557,0.03250964619964361,-0.0900109641842544
1783245165750336800,1.957336669921875,-0.06117956810593605,0.008587503342330455,-0.07547447104332969
1783245165760348200,1.96734814453125,-0.08112696211338043,0.07053454868942499,-0.05233642776841298
1783245165770360000,1.977360107421875,-0.0787356830626726,0.06525105532854795,-0.04951278518242761
1783245165780372000,1.9873720703125,-0.05885375550687313,0.0070250763311982154,-0.11085039339428766
1783245165790383000,1.997383056640625,-0.05753332055807113,-0.02774696184247732,-0.14940414206376298
1783245165800395000,2.00739501953125,-0.08148644307553768,-0.01009615433961153,-0.15904078913284464
1783245165810407000,2.017406982421875,-0.10749591360092163,0.011651859349012373,-0.1427464377402328
1783245165820419000,2.027419189453125,-0.13017185578942297,0.009751578685641289,-0.11403059433298185
1783245165830430000,2.037429931640625,-0.16615911497175692,0.013842939652502537,-0.07093003254672511
1783245165840441900,2.04744189453125,-0.16241116061508654,0.025765432636439798,-0.027953352868463843
1783245165850454000,2.0574541015625,-0.1383142457127571,0.030666940942406653,-0.008167981022316962
1783245165860466000,2.0674658203125,-0.1141109478265047,-0.005891980648040771,0.013917594057600945
1783245165870477000,2.07747705078125,-0.038141806867718696,-0.012752514067292213,0.03196578511390835
1783245165880489200,2.0874892578125,0.04859714990854263,0.006867839942872524,0.05220286451661959
1783245165890501000,2.097501220703125,0.11312836652994156,0.01774842265844345,0.05358982536299154
1783245165900512000,2.107511962890625,0.15157821643352506,-0.016635492980480192,0.045715073399897665
1783245165910524000,2.11752392578125,0.13741817365586756,-0.06497486873567104,0.04771278655575588
1783245165920536000,2.1275361328125,0.12489420764744281,-0.05961451074630022,0.046756198216974736
1783245165930548000,2.1375478515625,0.09818272633254528,-0.05627864432185888,0.033841826385166494
1783245165940558800,2.147558837890625,0.0574041412204504,-0.09062836543023586,-0.005640563170239329
1783245165950571000,2.157571044921875,-0.0017348609685897826,-0.1198842705309391,-0.04802435498926788
1783245165960583000,2.1675830078125,-0.04919570032358169,-0.08733721493035554,-0.06183015923546627
1783245165970595000,2.177594970703125,-0.10321662884652615,-0.023103519950807092,-0.031391108764801175
1783245165980606000,2.18760595703125,-0.11366320405900478,-0.012841361394524574,-0.004186729366425425
1783245165990618000,2.1976181640625,-0.13033786000609396,-0.03323533012568951,0.007712053948361426
1783245166000630000,2.207630126953125,-0.17109306424260137,-0.019773498745262623,0.02594157465463504
1783245166010641200,2.21764111328125,-0.1819277619898319,-0.006502513761818408,0.06357243632553145
1783245166020653000,2.227653076171875,-0.1618161173313856,-0.05349105942994356,0.062157966417726127
1783245166030665000,2.2376650390625,-0.1083686047822237,-0.0909270561158657,0.06053383581461384
1783245166040677000,2.247677001953125,-0.0738823978126049,-0.054982174770534034,0.05936482856785878
1783245166050688000,2.25768798828125,-0.08213175524175166,-0.004070902700722218,0.020102840297482907
1783245166060700000,2.267699951171875,-0.05294657728970051,0.055602644756436344,-0.017315036209858952
1783245166070712000,2.277712158203125,-0.03974281232357025,0.06399257970005273,-0.0502505979376845
1783245166080724000,2.287723876953125,-0.05067804783582687,0.04543839361667633,-0.09293035876229405
1783245166090734800,2.29773486328125,-0.0369172335088253,0.058878305426239966,-0.08622797504682093
1783245166100747000,2.3077470703125,-0.0007575403690338134,0.07166326045840979,-0.06204798497091978
1783245166110759000,2.317759033203125,0.021394670206308364,0.09455781383365393,-0.03448061747904867
1783245166120770000,2.32777001953125,0.07089256834685802,0.08865677309632301,-0.00292975157527253
1783245166130782000,2.337781982421875,0.10795534780621528,0.09247545460164547,0.01787931902911514
1783245166140794000,2.347794189453125,0.1251952364206314,0.08662526726871729,0.004325461983680725
1783245166150806000,2.357805908203125,0.15636428166627883,0.06187222654521465,0.022051435348298398
1783245166160817000,2.36781689453125,0.1413122584849596,0.07662380547523498,0.04153504776889458
1783245166170829000,2.3778291015625,0.11499182231426239,0.08225801196992397,0.047117469277419145
1783245166180841000,2.387841064453125,0.06055997490286827,0.004439736013114452,0.04955015805074945
1783245166190853000,2.39785302734375,0.03194412127137184,-0.017168284682929514,0.033430432572681454
1783245166200864000,2.407864013671875,-0.02166413479745388,0.03607026129066944,0.06174469117540866
1783245166210876000,2.4178759765625,-0.030823592808842656,0.092412910759449,0.025706998713780193
1783245166220887800,2.4278876953125,-0.023831541964411736,0.08369739712327719,-0.02609123052470386
1783245166230900000,2.43789990234375,-0.02615793908536434,0.035923546296358105,-0.06942492521340027
1783245166240911000,2.4479111328125,-0.0758212569206953,0.021579086862504482,-0.06563937879269942
1783245166250923000,2.457923095703125,-0.11639116771817207,0.04371873021721839,-0.03699901177445426
1783245166260935200,2.46793505859375,-0.1428103880882263,0.05276508324295282,0.0009434731288813054
1783245166270946000,2.477946044921875,-0.11836626718342304,0.0256891525298357,0.023375450493674725
1783245166280958000,2.4879580078125,-0.07979249863922595,0.024601065032184122,0.031092271948698905
1783245166290970000,2.49797021484375,-0.033574352821707724,0.02598638191074133,0.02007235382767394
1783245166300982000,2.50798193359375,0.057609892925620076,0.021719664376974104,0.028290274938941
1783245166310993000,2.517992919921875,0.09587503391206265,0.017976093934476373,0.03035672421576455
1783245166321005000,2.528005126953125,0.10588146414160728,0.002449438978731632,0.032147900215163824
1783245166331017000,2.538016845703125,0.0721744248509407,-0.02664601486325264,0.015194080266822129
1783245166341028900,2.54802880859375,0.07428688696026801,-0.00840951642692089,0.02188585125673562
1783245166351040000,2.5580400390625,0.0653776043176651,-0.0038870705664157865,-0.0451270261125639
1783245166361052200,2.56805224609375,0.00029109190106391906,-0.04270604604333639,-0.04368024310404434
1783245166371064000,2.57806396484375,-0.0685667557477951,-0.008541618373990058,-0.018343739936780182
1783245166381075000,2.588074951171875,-0.11084113237559795,-0.00691635525971651,0.0030939839599654077
1783245166391087000,2.598087158203125,-0.137870593598485,-0.029213235002756115,0.024009711542911826
1783245166401099000,2.60809912109375,-0.10225742842555045,-0.007300386141240596,0.014826945721171795
1783245166411111200,2.618111083984375,-0.05125029476583004,-0.0033808746099472046,0.032809834722615776
1783245166421122000,2.6281220703125,0.013302549165487289,-0.0258525263980031,-0.0038975006288848816
1783245166431134000,2.638134033203125,0.046024084550142286,-0.08964373830705881,-0.01994679121924564
1783245166441145900,2.648145751953125,0.0273100317299366,-0.09649813424646854,0.0019040252567268908
1783245166451161600,2.65816162109375,-0.033789456877112385,-0.048803193874657154,0.05004314746577292
1783245166461172500,2.66817236328125,-0.0851975725531578,0.0007531564548611641,0.059280986209306864
1783245166471184400,2.678184326171875,-0.13476912045180797,-0.0027393618360161778,-0.00544297650521621
1783245166481196500,2.688196533203125,-0.17834464280605314,-0.02793167075961828,-0.08792856841962784
1783245166491207700,2.698207763671875,-0.2563309688061476,-0.04389847069829702,-0.0954994055327028
1783245166501219600,2.708219482421875,-0.27732874864935875,0.006776654528081416,-0.0420867268349044
1783245166511231700,2.718231689453125,-0.23486790953874587,0.05390051701366901,-0.005938358806725591
1783245166521243600,2.72824365234375,-0.1646826126784086,0.04538754021227359,-0.009762100079655646
1783245166531254500,2.738254638671875,-0.06665595369040965,0.022552315808832643,-0.03518339545354247
1783245166541266700,2.7482666015625,0.04989361945986748,-0.01514642346650362,-0.07611404758850113
1783245166551278600,2.758278564453125,0.11678396642804145,-0.0011196516796946525,-0.07588460448049009
1783245166561290500,2.76829052734375,0.1443617091834545,0.007354162155091762,-0.03724189888592809
1783245166571301600,2.778301513671875,0.13708733426630496,0.03140811469852924,0.015960735524073243
1783245166581313500,2.7883134765625,0.10667641391158103,0.05910013148337602,0.07566785645727067
1783245166591325400,2.798325439453125,0.05931845040917396,0.03372515946924686,0.11271571234213187
1783245166601336600,2.808336669921875,0.06513561225533485,-0.018022271163761615,0.07505093013532459
1783245166611348700,2.8183486328125,0.07674597055017948,-0.06424509315639734,0.03396757165668532
1783245166621360600,2.828360595703125,0.08879530478417873,-0.05265402408391237,-0.021517017944343388
1783245166631372800,2.838372802734375,0.08811842843592166,-0.05674538505077362,-0.06951379080694169
1783245166641383700,2.8483837890625,0.09215104495286941,-0.08375438800752162,-0.11715038858763872
1783245166651395600,2.8583955078125,0.09234861335158348,-0.08201631216853857,-0.12290111586777493
1783245166661407500,2.868407470703125,0.060300447183847423,-0.0842915636241436,-0.08456177713396028
1783245166671419600,2.878419677734375,0.006091302612423896,-0.09726970314085483,-0.061842836053948844
1783245166681430500,2.888430419921875,-0.07930968355834483,-0.11010434253364801,0.00604251330094412
1783245166691442400,2.8984423828125,-0.16420622733831405,-0.11443594199717044,0.058981455273460597
1783245166701454600,2.90845458984375,-0.20472528473138807,-0.1203635784804821,0.08067768397592008
1783245166711466500,2.918466552734375,-0.25298633455336095,-0.10936112295091152,0.07875488095348701
1783245166721477600,2.9284775390625,-0.27009178313314913,-0.10340922880917787,0.079609177961573
1783245166731489500,2.938489501953125,-0.2610603354156017,-0.06621727001219987,0.04329862337531522
1783245166741501700,2.948501708984375,-0.21916063731908797,-0.05724573578834533,0.019176683629583566
1783245166751512600,2.9585126953125,-0.14816051694452761,-0.043181554600596424,0.017297683216258884
1783245166761524700,2.968524658203125,-0.04995090260505676,-0.015556757833063602,0.021129826991353184
1783245166771536600,2.97853662109375,0.05991700082421302,0.0024719430714845655,0.04944666114365682
1783245166781548500,2.988548583984375,0.1497773044914007,0.017447978407144547,0.08016087529389188
1783245166791559700,2.9985595703125,0.2532704121917486,0.006012392157316208,0.0793789128696546
1783245166801571600,3.008571533203125,0.34220483318567274,0.052857729962468146,0.07448430922850965
1783245166811583500,3.01858349609375,0.38804070168733595,0.11035422564148903,0.04657258527837693
1783245166821594400,3.028594482421875,0.41953240301609035,0.10509937385320663,0.00766431494965218
1783245166831606500,3.0386064453125,0.3831330559015274,0.05154518605917692,-0.07476876132623292
1783245166841618400,3.048618408203125,0.3059054393142462,0.03040010669976473,-0.14144762096819466
1783245166851630600,3.058630615234375,0.18289982189238072,0.05634644886106252,-0.15972652464099227
1783245166861641700,3.068641845703125,0.03633212709724903,0.06325666664093732,-0.18348679146748034
1783245166871653600,3.078653564453125,-0.13368190973699093,0.06840513544529676,-0.17548022981826214
1783245166881665500,3.08866552734375,-0.3453741108715534,0.1129930497124791,-0.1507373725620564
1783245166891677700,3.098677734375,-0.5019090729296207,0.16756372107267378,-0.14203013356388547
1783245166901688600,3.1086884765625,-0.5774713866531849,0.19085458028912544,-0.12593054669154807
1783245166911700500,3.118700439453125,-0.5296265164166689,0.199924898712337,-0.11145256053851917
1783245166921712600,3.128712646484375,-0.47407647863030433,0.15103870272934436,-0.1194282886580564
1783245166931724500,3.138724609375,-0.4083089982122183,0.0678045392036438,-0.16731111628478393
1783245166941735400,3.1487353515625,-0.3422200307548046,0.03355506359934807,-0.11629394528823904
1783245166951747600,3.15874755859375,-0.33434476733505725,0.09675415483415126,0.000382322981627658
1783245166961759500,3.168759521484375,-0.3692185123175382,0.1766997982084751,0.12784839954422786
1783245166971770600,3.1787705078125,-0.316299407556653,0.18587533057183026,0.22024393904376774
1783245166981782800,3.18878271484375,-0.20091887818574905,0.17366759090572595,0.2602648559226654
1783245166991794700,3.198794677734375,-0.045503860068321224,0.1704094658926129,0.2648178247855976
1783245167001806600,3.208806640625,0.11133213076293468,0.12745032187104224,0.221411284056399
1783245167011817700,3.218817626953125,0.24961656585931777,0.056820496113598344,0.1755743743751198
1783245167021829600,3.22882958984375,0.35479251208007334,0.0599661006629467,0.13139350653886794
1783245167031841500,3.238841552734375,0.4375730866193771,0.10150865588486194,0.08940668728132732
1783245167041853700,3.248853759765625,0.5063666368603706,0.1252849605306983,0.08123201165674254
1783245167051864600,3.258864501953125,0.5090338102430105,0.12044336571842432,0.07234007287458516
1783245167061876500,3.26887646484375,0.48887481931149956,0.09310469241589307,0.0424556514788419
1783245167071888600,3.278888671875,0.4369593386352062,0.044484746153652666,-0.003806278681475669
1783245167081899500,3.2888994140625,0.4032797718733549,0.01639379317909479,-0.08514034420689567
1783245167091911700,3.29891162109375,0.3705418698757887,-0.01308773737102747,-0.17680556013789026
1783245167101923600,3.308923583984375,0.32661563438773156,-0.014005144476890562,-0.2756117155984044
1783245167111935500,3.318935546875,0.2869160766839981,-0.0031336218506097793,-0.35770920324437316
1783245167121946600,3.328946533203125,0.21514964811205864,-0.00024696049839258193,-0.3929614992156625
1783245167131958500,3.33895849609375,0.10402736070752143,-0.019642565841972826,-0.4063413514010608
1783245167141970700,3.348970703125,0.029112697237730023,-0.024469547607004642,-0.3785056152965873
1783245167151982600,3.358982666015625,-0.03984802626371384,-0.022431612038612363,-0.33203955913260574
1783245167161993500,3.368993408203125,-0.07183247954547405,-0.042380759611725806,-0.26704087112993
1783245167172005600,3.379005615234375,-0.039132571470737454,-0.09256985488682985,-0.19229305212702602
1783245167182017500,3.389017578125,-0.08133855903744697,-0.10972644913196564,-0.16279997726958245
1783245167192028400,3.3990283203125,-0.19114216505885123,-0.1633086939767003,-0.1987481100179255
1783245167202040600,3.40904052734375,-0.24878596025407312,-0.19368249719142913,-0.22339600986652075
1783245167212052500,3.419052490234375,-0.3721352765470743,-0.14316986905038356,-0.1752337990428321
1783245167222064400,3.429064453125,-0.5026052385002374,-0.07731880200207233,-0.1320473308051005
1783245167232075800,3.43907568359375,-0.5744248585641384,-0.10821341422051191,-0.11409265411798841
1783245167242087700,3.449087646484375,-0.6318506270945072,-0.14655541983544826,-0.09357729663001373
1783245167252099600,3.459099609375,-0.6299690511316061,-0.14814502711445093,-0.08494587194756605
1783245167262111700,3.46911181640625,-0.601559533727169,-0.11898410682082175,-0.09025319370860234
1783245167272122600,3.47912255859375,-0.5117898309528828,-0.10149579640328883,-0.10546235281354747
1783245167282134500,3.489134521484375,-0.40535599362552166,-0.09783581259101629,-0.10480634572338313
1783245167292146700,3.499146728515625,-0.33007425040900706,-0.07204027707725763,-0.10552074107043445
1783245167302158600,3.50915869140625,-0.21710078217983245,-0.06806728179305792,-0.13356615613652392
1783245167312169500,3.51916943359375,-0.06742576901912689,-0.03533756310194731,-0.13922343297954648
1783245167322181600,3.529181640625,0.03331716319024563,-0.01806727934926748,-0.1269932805522345
1783245167332193500,3.539193603515625,0.12554302694499492,-0.04845335752367973,-0.10904003777038306
1783245167342204700,3.54920458984375,0.13792904578745363,-0.06677607293874024,-0.07119484379563946
1783245167352216600,3.559216552734375,0.05553600926101208,-0.08262100006341934,-0.041249380961619314
1783245167362228700,3.569228759765625,-0.05626666162312031,-0.056036944520473475,-0.0008747872402658685
1783245167372240600,3.57924072265625,-0.2125362507432699,-0.017643208718299865,0.058706350959395054
1783245167382251500,3.58925146484375,-0.3454173654913902,0.011176058530807494,0.06679148513700348
1783245167392263700,3.599263671875,-0.43445057068467136,0.042105449801683424,0.05697594240363687
1783245167402275600,3.609275634765625,-0.43373453136980533,0.10706395192444323,0.11345957124568522
1783245167412287500,3.61928759765625,-0.36110534848868847,0.1484410874515772,0.17790818761754779
1783245167422298600,3.629298583984375,-0.22220774993002412,0.12830635417848824,0.26249997629728167
1783245167432310500,3.639310546875,-0.052097851505875585,0.10371464149653911,0.318084245146811
1783245167442322400,3.649322509765625,0.15595336277782917,0.10311024586260319,0.359453781889379
1783245167452329500,3.65932958984375,0.31536066540181634,0.10887947691380977,0.38231322741862384
1783245167462341400,3.66934130859375,0.43237434893250465,0.14484949270039796,0.42746184430848805
1783245167472353300,3.679353271484375,0.4835930795162916,0.21945815896093845,0.5097609189411625
1783245167482365400,3.689365478515625,0.5174480028450489,0.28108634761720896,0.5563556064534932
1783245167492376300,3.699376220703125,0.5604173759996891,0.279308816550672,0.5644824334815144
1783245167502388200,3.70938818359375,0.6105915659666061,0.27412966034710406,0.534899305720441
1783245167512400400,3.719400390625,0.604483896741271,0.2982578471705317,0.5118413419444113
1783245167522412300,3.729412353515625,0.6715279729664325,0.336137495970726,0.49964288156330583
1783245167532423200,3.739423095703125,0.7421428934156894,0.3242059428974986,0.48970776300430297
1783245167542435300,3.749435302734375,0.8356038519233465,0.22518296634852886,0.445210778423585
1783245167552447200,3.759447265625,0.8535486739367246,0.12216449042260646,0.3817649824187159
1783245167562458400,3.769458251953125,0.7599176195591688,0.08027589824199675,0.3534278726633638
1783245167572470500,3.779470458984375,0.5546797091305256,0.15842326002269982,0.3918997152030468
1783245167582482400,3.789482421875,0.24438275685906408,0.30128216342777014,0.4479952215103432
1783245167592494300,3.799494384765625,-0.017815642675757408,0.3475204752504825,0.42424127482678736
1783245167602505500,3.80950537109375,-0.1382183841228485,0.2486865915328264,0.33418537552226335
1783245167612517400,3.819517333984375,-0.1258960781663656,0.09090922819823026,0.12923760714661328
1783245167622529300,3.829529296875,-0.06604980449080466,-0.04307283352911472,-0.021224770699231885
1783245167632541400,3.83954150390625,-0.025853987702727316,-0.07312661100924014,-0.1397295741370879
1783245167642552300,3.84955224609375,-0.04612111518383026,-0.06967237890213727,-0.1502943506354466
1783245167652564200,3.859564208984375,-0.12079261754751204,-0.03844049755334854,-0.08631941618993878
1783245167662576400,3.869576416015625,-0.2661369080275297,-0.07540361603051424,-0.03735173420226201
1783245167672587500,3.87958740234375,-0.44210371578633784,-0.14435206457227467,-0.007319803227763623
1783245167682599400,3.889599365234375,-0.5704226371854544,-0.1992518217563629,-0.006253206042712554
1783245167692611300,3.899611328125,-0.6733277158647776,-0.21107026984393595,-0.0077857128396164625
1783245167702623500,3.90962353515625,-0.7181734042853116,-0.166127258528769,-0.07204663375280797
1783245167712634400,3.91963427734375,-0.7506973712712526,-0.15646218908280132,-0.1598376020663418
1783245167722646300,3.929646240234375,-0.6440893464207649,-0.1832137101471424,-0.27826445859689264
1783245167732658400,3.939658447265625,-0.5525257459670305,-0.20959873598664996,-0.35405290922652927
1783245167742670300,3.94967041015625,-0.44097909567058086,-0.17792992452532053,-0.4116302150567993
1783245167752681200,3.95968115234375,-0.33157939427495003,-0.16059563562572002,-0.4481937032245099
1783245167762693400,3.969693359375,-0.21768881120085715,-0.15568331366479396,-0.44576161723937835
1783245167772705300,3.979705322265625,-0.12393851435780524,-0.14978022710084915,-0.4199715250857174
1783245167782716200,3.989716064453125,-0.07655716997981071,-0.1346875796481967,-0.3460781674876809
1783245167792728300,3.999728271484375,-0.02651742004752159,-0.13326163849830627,-0.25643030099477615
1783245167802740200,4.009740234375,0.014973112726211548,-0.15077449883520602,-0.22645190857211125
1783245167812752100,4.019752197265625,0.02810848863124847,-0.16493775648325681,-0.2219034514875151
1783245167822763500,4.029763427734375,0.007587094128131866,-0.15537351706326008,-0.23962549759568647
1783245167832775400,4.039775390625,0.02138648689985275,-0.1334454706326127,-0.28125100012701004
1783245167842787300,4.049787353515625,0.022981062614917752,-0.13570347869247198,-0.26815663208579643
1783245167852799500,4.059799560546875,0.01357961254119873,-0.12162117732614278,-0.24235092223789542
1783245167862810400,4.069810302734375,-0.017256255227327346,-0.11204904686063527,-0.22056580967558548
1783245167872822300,4.079822265625,-0.06228723708689213,-0.11516162592321634,-0.17084756504893303
1783245167882834400,4.08983447265625,-0.11931611525416373,-0.08294219484180211,-0.12873233363875186
1783245167892845300,4.09984521484375,-0.1214700784176588,-0.023300796088576315,-0.06504926741244271
1783245167902857200,4.109857177734375,-0.09351765713095664,-0.011883037756383419,0.0027210041954182085
1783245167912869400,4.119869384765625,-0.03820727331936359,-0.015628361764550208,0.05153263710485771
1783245167922881300,4.12988134765625,0.026348493221402168,-0.015395429791510104,0.09136425108988769
1783245167932892400,4.139892333984375,0.040164837127923965,0.007711597290635109,0.14530446079312823
1783245167942904300,4.149904296875,0.06472527788877487,0.017681494902074334,0.18058811088390647
1783245167952916500,4.15991650390625,0.12410276500880718,0.039112697726488115,0.14963598719141444
1783245167962928400,4.169928466796875,0.1784860971033573,0.09747574710696935,0.14957016454674302
1783245167972939300,4.179939208984375,0.20730945600569248,0.12189882522374391,0.13917193112117238
1783245167982951400,4.189951416015625,0.22760113340616225,0.14768676195293665,0.13598200337290764
1783245167992963300,4.19996337890625,0.22725568096935747,0.17616817554980516,0.1504506189093925
1783245168002975200,4.209975341796875,0.21740531808435914,0.19818536156862973,0.18019421619549392
1783245168012986400,4.219986328125,0.21324352222979068,0.21123568953871727,0.21354115346949545
1783245168022998300,4.229998291015625,0.22617197738587855,0.21072277158051728,0.24114185697538776
1783245168033010200,4.24001025390625,0.2945505170851946,0.1990890324100852,0.24289423533435908
1783245168043021600,4.250021484375,0.36765725435018537,0.19258505734354256,0.21630300113195552
1783245168053033500,4.260033447265625,0.4617769690275192,0.2290609768256545,0.20465578142544252
1783245168063045400,4.27004541015625,0.4760556697487831,0.1973068251684308,0.11679589432785287
1783245168073057500,4.2800576171875,0.4539332697898149,0.19866671534478664,0.0604499843229074
1783245168083068400,4.290068359375,0.5177297423958778,0.1648284508898854,0.05702570896265097
1783245168093080300,4.300080322265625,0.4550058674573898,0.13731003710627554,0.017195209222473203
1783245168103092500,4.310092529296875,0.42423721970617767,0.04110913224071264,0.029340679041016844
1783245168113104400,4.3201044921875,0.3117173404633999,-0.03412146531045437,0.06251609567301347
1783245168123115300,4.330115234375,0.16470891616344452,-0.037949499166011806,0.13430484567461534
1783245168133127400,4.34012744140625,-0.049718847414851185,-0.036997605268657204,0.19151753770988433
1783245168143139300,4.350139404296875,-0.350507382106781,-0.04970043497532606,0.2569057730194181
1783245168153150200,4.360150146484375,-0.6261947932898998,-0.08227204049527645,0.26626771306665614
1783245168163162000,4.370162109375,-0.7789870616883039,-0.07550561510026454,0.2852530205762945
1783245168173174300,4.38017431640625,-0.877470232272148,-0.06545680703371763,0.27559642669772727
1783245168183186200,4.390186279296875,-0.8238269048899411,-0.09238134657740592,0.2345352800508961
1783245168193197300,4.400197265625,-0.6476368097692727,-0.126113520309329,0.13612124744681642
1783245168203209500,4.41020947265625,-0.44031215619444847,-0.17032061856538055,0.05066686885468662
1783245168213221400,4.420221435546875,-0.2248497888714075,-0.16989917828291654,0.03991210447587073
1783245168223233300,4.4302333984375,-0.00024900632500648496,-0.15266630393117667,0.04988671479504555
1783245168233244400,4.440244384765625,0.17697686158418655,-0.15490239242017267,0.06492074566194787
1783245168243256300,4.45025634765625,0.27617431791722774,-0.1718444671317935,0.07669259639512747
1783245168253268200,4.460268310546875,0.30969255663752554,-0.19649989269971846,0.11405508945342152
1783245168263279400,4.470279296875,0.2765495809704065,-0.17638357186615466,0.174876802298706
1783245168273291300,4.480291259765625,0.19637071336209772,-0.15518413197100162,0.19168388898642733
1783245168283303200,4.49030322265625,0.0595610269933939,-0.19122195229679345,0.14195170716596767
1783245168293315300,4.5003154296875,-0.0791635530859232,-0.1856312926828861,0.06742421638285741
1783245168303326500,4.510326416015625,-0.17388181817829607,-0.11824205628186464,-0.025762217766046522
1783245168313338400,4.52033837890625,-0.27056290777623654,-0.06210603530108928,-0.13125824452033266
1783245168323350500,4.5303505859375,-0.29530221223533154,-0.032601416136324404,-0.2253204385904595
1783245168333362400,4.540362548828125,-0.22582418686151504,0.0010720131456851958,-0.3183907903453335
1783245168343373300,4.550373291015625,-0.14006430425047875,0.026602760243415832,-0.3932346901338547
1783245168353385500,4.560385498046875,-0.09176818311512469,0.02502075174897909,-0.4070155974008143
1783245168363397400,4.5703974609375,0.01376256789267063,0.04812076456844806,-0.38281237257979805
1783245168373408300,4.580408203125,0.07071370464861393,0.07904694096893072,-0.37621293778214604
1783245168383420200,4.590420166015625,0.09403671256899833,0.11151099446117878,-0.3854177327726036
1783245168393432300,4.600432373046875,0.07962181824743747,0.1707894051209092,-0.3841020105315372
1783245168403444200,4.6104443359375,0.008552724289894103,0.14229483978152274,-0.37348314749207345
1783245168413455400,4.620455322265625,-0.07914894003868103,0.11626403420716523,-0.4210778788924217
1783245168423467500,4.630467529296875,-0.21219605900347233,0.10368950705528258,-0.4431140618726611
1783245168433479400,4.6404794921875,-0.31241993577480315,0.13968611858785152,-0.46765813602060075
1783245168443491300,4.6504912109375,-0.38726854827105994,0.19845833329111337,-0.5147599328048527
1783245168453503200,4.660503173828125,-0.47674599010050295,0.21409809323251247,-0.5256086590774357
1783245168463515100,4.67051513671875,-0.5109627324789762,0.16706190903037785,-0.4931490625645965
1783245168473527300,4.68052734375,-0.5333060817122459,0.1355935885772109,-0.3801217452563345
1783245168483538200,4.6905380859375,-0.47766485851109025,0.13146248012185097,-0.26228485397556794
1783245168493550000,4.700550048828125,-0.40115035862922666,0.11944032615572213,-0.16672816529767587
1783245168503562200,4.710562255859375,-0.24764438900351524,0.09348726199269294,-0.03787665312550962
1783245168513574100,4.72057421875,-0.09053542644977569,0.09313245720565319,0.04756385220489465
1783245168523585000,4.7305849609375,0.07978665342032909,0.034310265880823136,0.08219536766302771
1783245168533597200,4.74059716796875,0.18655366822481154,-0.01547317120283842,0.14587654332634992
1783245168543609000,4.750609130859375,0.25521102486550806,0.002694353650510311,0.22627350153159348
1783245168553621000,4.76062109375,0.29323943448662754,0.01514730024933815,0.25319036922547966
1783245168563632000,4.770632080078125,0.32204467321038244,-0.018318916022777555,0.2348002328637056
1783245168573644300,4.780644287109375,0.3439005311876535,-0.07127513792365789,0.17298505200166253
1783245168583656200,4.79065625,0.3041232320725918,-0.11976502806544304,0.14500996222542598
1783245168593667000,4.8006669921875,0.21717384741604326,-0.1276329849615693,0.15269228775580412
1783245168603679200,4.81067919921875,0.1398521228045225,-0.10164397270232438,0.16033187012299893
1783245168613691100,4.820691162109375,0.06325578985810279,-0.08407207565456629,0.1628853174654767
1783245168623703300,4.830703369140625,0.07136603107750415,-0.11096008258014917,0.0980840334647335
1783245168633714200,4.840714111328125,0.031845921593904494,-0.13179741116464136,0.05622466737860814
1783245168643726000,4.85072607421875,-0.02553016257584095,-0.1687722200796008,0.04009851215975359
1783245168653738000,4.860738037109375,-0.06290040054917335,-0.14729133289456367,0.06397009387360886
1783245168663750100,4.870750244140625,-0.1521785204142332,-0.09539864857196807,0.10064100620485841
1783245168673761000,4.880760986328125,-0.2830634929090738,-0.030281741017103195,0.1612855541186407
1783245168683773000,4.89077294921875,-0.36066461898386476,-0.022677403493225574,0.1543827159276232
1783245168693785000,4.90078515625,-0.3549491639465093,-0.07606938646286726,0.12785598006248475
1783245168703796200,4.910796142578125,-0.34219723440110683,-0.10320903006196021,0.09673996191201731
1783245168713808100,4.92080810546875,-0.2860223427146673,-0.12360592140257358,0.030544026948790996
1783245168723820300,4.9308203125,-0.2362994036465883,-0.12570581629127264,0.0028992468391545114
1783245168733832200,4.940832275390625,-0.1871393591582775,-0.09472966326922178,-0.00745048040272668
1783245168743843000,4.950843017578125,-0.1719768613398075,-0.07512363004535436,0.048423199847433714
1783245168753855200,4.960855224609375,-0.15201426976323126,-0.03903934022933245,0.15582646672884
1783245168763867100,4.9708671875,-0.14089198724627494,-0.04198971446752548,0.2661277931393124
1783245168773879000,4.980879150390625,-0.13343290341198444,-0.030334347987174985,0.3431390087632462
1783245168783890000,4.990889892578125,-0.10817980421185493,-0.016069091269373892,0.36122488321512936
1783245168793902000,5.000902099609375,-0.05609948836266994,-0.024513094487786293,0.3623896892108023
1783245168803914000,5.0109140625,0.03684942896962166,-0.006790975314378738,0.3028471659884788
1783245168813925000,5.020925048828125,0.14026070360541343,0.002370528523623943,0.2401111622207798
1783245168823937300,5.030937255859375,0.25055823062360283,0.04311638040989637,0.11978093802062793
1783245168833949200,5.04094921875,0.32691490959525105,0.05603635999858379,0.04244271893203258
1783245168843961300,5.05096142578125,0.370403338187933,0.06392828229218721,-0.016349132053460926
1783245168853972200,5.06097216796875,0.3972229560524225,0.06807780318707227,-0.033271862743794914
1783245168863984000,5.070984130859375,0.36565585139989853,0.06979892789125441,-0.03249384584231302
1783245168873996000,5.08099609375,0.30933950541615485,0.08762041578590869,-0.06330123643502593
1783245168884008200,5.09100830078125,0.2912117280513048,0.101691318975389,-0.10437297754110768
1783245168894019000,5.10101904296875,0.26493396197855473,0.11129559814482927,-0.1302179234208539
1783245168904031000,5.111031005859375,0.24822891089320182,0.09809124865680932,-0.15088166727041824
1783245168914043100,5.121043212890625,0.2177700597435236,0.10027063852250576,-0.1598296379555948
1783245168924054300,5.13105419921875,0.18170564367175102,0.0754182290777564,-0.17819173553297296
1783245168934066200,5.141066162109375,0.11752397114038467,0.065482233735919,-0.18602118704961612
1783245168944078000,5.151078125,0.0005658171892166138,0.039808278775215145,-0.18999491298617793
1783245168954090200,5.16109033203125,-0.08998363778591155,0.033088322870433326,-0.17108321870202198
1783245168964101000,5.17110107421875,-0.14201952997148037,0.039134617297351355,-0.14006404852215198
1783245168974113300,5.18111328125,-0.19865677847266197,0.05580781193971634,-0.12123484488967805
1783245168984125200,5.191125244140625,-0.25227029523849487,0.024820845262706278,-0.14991475846702232
1783245168994137000,5.20113720703125,-0.2623153039127588,0.01295914255529642,-0.15628358111288398
1783245169004148200,5.211148193359375,-0.23245851030945777,0.03898088804036379,-0.18525995688615365
1783245169014160100,5.22116015625,-0.17686404885947704,0.05421323622465133,-0.21119382315836846
1783245169024172000,5.231172119140625,-0.1783943271666765,0.014349720130860805,-0.2520850017994642
1783245169034183000,5.241182861328125,-0.1403922210305929,0.01108779572546482,-0.2738040085893124
1783245169044195000,5.251195068359375,-0.1781722088485956,0.04459259044229984,-0.24832826134813948
1783245169054207000,5.26120703125,-0.1964817725211382,0.0590007627621293,-0.23349214593982323
1783245169064219100,5.27121923828125,-0.19281506670713425,0.09663812723904848,-0.21567990079754962
1783245169074230300,5.281230224609375,-0.17331658551096915,0.07338818455487489,-0.19154011486787348
1783245169084242200,5.2912421875,-0.16804770519733428,0.043887364782392975,-0.15912766369869932
1783245169094254000,5.301254150390625,-0.16024199988245963,0.043349604643881316,-0.12443112018033861
1783245169104266200,5.311266357421875,-0.10242752429544925,0.06398147378414869,-0.08944322903258725
1783245169114277000,5.321277099609375,-0.040080665975809095,0.06802519621700048,-0.044622474123910065
1783245169124289000,5.3312890625,0.012601707419753074,0.0342681803047657,-0.05781695980504155
1783245169134301200,5.34130126953125,0.08178045758605003,-0.00350654681622982,-0.05141808908078819
1783245169144312000,5.35131201171875,0.1317401280194521,0.014222586619853973,-0.004720817976817488
1783245169154324000,5.361323974609375,0.18251520648896694,0.05434650721549988,0.024573738633841276
1783245169164336000,5.371336181640625,0.23010522518157958,0.025125965689122676,0.0363157604843378
1783245169174348000,5.38134814453125,0.25384324364364147,-0.0263142986908555,0.020273758151289074
1783245169184359200,5.391359130859375,0.25902795280516144,-0.0430976757094264,0.022587405388522892
1783245169194371300,5.401371337890625,0.2359779166072607,-0.034655426056683064,0.05153292936580255
1783245169204383200,5.41138330078125,0.16745850713253022,-0.03878682677298784,0.09423342245118692
1783245169214395100,5.42139501953125,0.15141221221685408,0.01384235513061285,0.14007272501895204
1783245169224406300,5.43140625,0.12954115667045116,0.03415156818777323,0.10133233120357617
1783245169234418200,5.441418212890625,0.11058511178791522,0.007730886512994766,0.07162550399759784
1783245169244430000,5.45143017578125,0.13281740186214447,0.0020911270603537558,0.057745867330208416
1783245169254441000,5.46144091796875,0.1177232931047678,0.006284487096965313,0.06457584121441468
1783245169264453000,5.471453125,0.09440203875005244,-0.011472118867933749,0.013894121850468217
1783245169274465000,5.481465087890625,0.08824468516409396,-0.010039163455367088,-0.006511847845744341
1783245169284477200,5.491477294921875,0.021132219877839087,-0.015121289025247096,-0.01696726395180449
1783245169294488000,5.501488037109375,-0.06499474247992039,-0.0593450461551547,-0.03479454226642847
1783245169304500200,5.511500244140625,-0.14355974515080452,-0.0939446503713727,-0.06982826358359306
1783245169314512100,5.52151220703125,-0.29547464619278907,-0.06791969001591205,-0.062150184970069675
1783245169324524300,5.531524169921875,-0.4628127418160438,0.00317453838288784,-0.06349593702321872
1783245169334535200,5.54153515625,-0.5590156925082206,0.0290396320015192,-0.049165451315790414
1783245169344547000,5.551547119140625,-0.5921060612052679,0.01791091974377632,-0.06968890991182998
1783245169354559200,5.561559326171875,-0.5370698181599378,-0.010384323631227016,-0.08851992190890014
1783245169364570000,5.571570068359375,-0.4180366115003824,-0.02613748081922531,-0.07468489156821742
1783245169374582000,5.58158203125,-0.2861345709174871,-0.046022038723528384,-0.0383899181435816
1783245169384594200,5.59159423828125,-0.15008768561482427,-0.03252572055160999,0.011145042338036
1783245169394606000,5.601606201171875,-0.046209377989172934,-0.004919043962657452,0.05462285820515826
1783245169404617000,5.611616943359375,0.0466202968776226,-0.027592940324544905,0.09017782691745087
1783245169414629000,5.621629150390625,0.08507774556577205,-0.014704232656955718,0.11833674882799386
1783245169424641000,5.63164111328125,0.10709493158459663,0.0036111762344837187,0.135960650057625
1783245169434653000,5.64165283203125,0.08014613438248634,-0.0050648821741342545,0.13618801080640405
1783245169444664300,5.651664306640625,0.07685059996843338,-0.006513035155832767,0.11260498197665438
1783245169454676200,5.66167626953125,0.035034488502144814,0.006528232724964618,0.08305398465320467
1783245169464688000,5.671688232421875,-0.02335632566809654,0.014055705620348453,0.07210419089263305
1783245169474699000,5.681698974609375,-0.047156887972354886,0.0298936184823513,0.06252331086508929
1783245169484711200,5.691711181640625,-0.06045943713784217,0.04300999742597341,0.06559245264474302
1783245169494723000,5.70172314453125,-0.07137830603718757,0.07103665299266576,0.06458488303739578
1783245169504735200,5.7117353515625,-0.08291267648637295,0.0660068421319127,0.07644516097269952
1783245169514746000,5.72174609375,-0.09098141665160656,0.08790507794618606,0.10064951830487698
1783245169524758000,5.731758056640625,-0.06785246999859809,0.11943798806816339,0.10184861016264185
1783245169534770000,5.74177001953125,-0.0832236421316862,0.08586217394173144,0.06855502877738326
1783245169544782000,5.751781982421875,-0.06985562651455401,0.07096709488779306,0.03852021172605455
1783245169554793200,5.761793212890625,-0.0541319876819849,0.10475041428506374,0.043376730112824585
1783245169564805000,5.77180517578125,-0.055202831783890724,0.13170154957473276,0.05046393016111105
1783245169574817300,5.7818173828125,-0.04098433681726456,0.12147504685372114,0.052172177117411046
1783245169584828200,5.791828125,-0.024717677149176595,0.11513970635235309,0.012893621304724365
1783245169594840000,5.801840087890625,-0.03813011642992496,0.12330255454182625,0.0003189114897511899
1783245169604852200,5.811852294921875,-0.037138182783126826,0.14276128824949263,-0.013808982583973556
1783245169614864100,5.821864013671875,-0.047644963750243186,0.17222849801331758,-0.022810930212400854
1783245169624875000,5.831875,-0.05726093335747719,0.1631128791436553,-0.049581064645666625
1783245169634887200,5.84188720703125,-0.06262099908590317,0.13554390421658755,-0.06426149630192667
1783245169644899000,5.851899169921875,-0.049015667581558224,0.11843319493979215,-0.0987834504383616
1783245169654911000,5.861910888671875,-0.035377602851390834,0.12771832515746354,-0.1198974405397661
1783245169664922000,5.871922119140625,-0.00175415019094944,0.16251666681617497,-0.13126717674545943
1783245169674934300,5.881934326171875,0.004334229812026024,0.15995704546123743,-0.12001681086942553
1783245169684946200,5.8919462890625,0.05048749369978905,0.13819032707214354,-0.11788124187914654
1783245169694957000,5.90195703125,0.07330313661992549,0.14010259043425322,-0.11661693929806351
1783245169704969200,5.91196923828125,0.07907938193380833,0.14298399108946322,-0.09440384711464866
1783245169714981000,5.921981201171875,0.0785579884082079,0.12593611791580914,-0.06520617500720545
1783245169724993300,5.9319931640625,0.05013619604408741,0.07564414678812026,-0.04250140858301893
1783245169735004200,5.942004150390625,-0.014562193837761878,0.0769648739978671,-0.0047325997461564835
1783245169745016000,5.95201611328125,-0.07122983747720718,0.08020926274657249,0.027585926061868667
1783245169755028000,5.962028076171875,-0.09393851289153099,0.07162468201369046,0.032613252704590555
1783245169765040000,5.9720400390625,-0.12593816374242306,0.06996230175942182,-0.016022530447598545
1783245169775051000,5.982051025390625,-0.10677519811093807,0.053587213280797,-0.06232919479878619
1783245169785063000,5.99206298828125,-0.08078560132980346,0.04769260228425264,-0.09134999423567206
1783245169795075000,6.002074951171875,-0.05202127913832664,0.016460720935463906,-0.0729031592505984
1783245169805086200,6.012086181640625,-0.062166825577616686,-0.012978724038600922,-0.06537292814254761
1783245169815098000,6.02209814453125,-0.08529343414306641,-0.03996376159787178,-0.013716335864458232
1783245169825110300,6.0321103515625,-0.07229834349155426,0.0010895488023757935,0.047973611182719464
1783245169835122200,6.0421220703125,-0.04385024764239788,0.020149054059386252,0.12023478273535147
1783245169845133000,6.052133056640625,0.012384265276789664,-0.03219166629165411,0.1077340332057327
1783245169855145200,6.062145263671875,0.03926350437402725,-0.10401946966201066,0.09809369634222238
1783245169865157000,6.0721572265625,0.0331657720208168,-0.12335282342433929,0.09222911515776068
1783245169875168000,6.08216796875,-0.002610474759340286,-0.07940729871392249,0.07288429015334695
1783245169885180200,6.09218017578125,-0.04050385982394218,-0.03347790670990944,0.07450849382169544
1783245169895192000,6.102192138671875,-0.09853811564147472,-0.0564738746330142,0.043996195451728996
1783245169905204000,6.112203857421875,-0.12244213832020759,-0.07224106034636497,0.00914069851199165
1783245169915215000,6.122215087890625,-0.1330728379279375,-0.041964580026268954,0.03102357236035168
1783245169925227300,6.132227294921875,-0.14823708931207655,-0.0210161922827363,0.026392624624073505
1783245169935239200,6.1422392578125,-0.13157704641222953,-0.08178659506589174,0.041573425284214316
1783245169945251300,6.152251220703125,-0.11376432634592056,-0.10787614509016274,0.05845025273989886
1783245169955262200,6.16226220703125,-0.13898819945156574,-0.08410276305377483,0.07996334342779592
1783245169965274000,6.172274169921875,-0.13318681969642637,-0.024240999548137188,0.1254524260520935
1783245169975286300,6.182286376953125,-0.12682722153663634,0.010324994659423827,0.12146920163482428
1783245169985297200,6.192297119140625,-0.07644494177699089,-0.0006599252134561538,0.06701559904934838
1783245169995309000,6.20230908203125,-0.002492401337623596,0.022123569002747534,0.02579569991054013
1783245170005321000,6.212321044921875,0.05532967303395271,0.0041489363729953765,-0.006046641486790031
1783245170015333000,6.2223330078125,0.13067512913644314,-0.0016311083331704138,-0.035452878310997034
1783245170025344300,6.23234423828125,0.1769704318434,-0.017405308309197426,-0.021825919496733695
1783245170035356200,6.242356201171875,0.1856272010296583,-0.01661561923623085,-0.01229627646608278
1783245170045368300,6.252368408203125,0.18265958339571953,-0.010494213746488094,0.04051586078898981
1783245170055380200,6.262380126953125,0.13887246411740778,-0.040078327888250345,0.05588186355661601
1783245170065391000,6.27239111328125,0.06778992615640163,-0.04443681535869837,0.04385313371922821
1783245170075403300,6.2824033203125,-0.006483516800403595,0.014267010283470154,0.05520374509934336
1783245170085415200,6.292415283203125,-0.1010351931542158,0.06013385844528675,0.022798052464518694
1783245170095426000,6.302426025390625,-0.16927286307811737,0.0244321382060647,-0.028051643877476454
1783245170105438200,6.312438232421875,-0.2154512614071369,0.007925532302260398,-0.06844749501598998
1783245170115450000,6.3224501953125,-0.23139117333889006,0.013553309056162833,-0.11062020136760548
1783245170125462000,6.3324619140625,-0.1983107415139675,0.03754997845441103,-0.10472096899487078
1783245170135473000,6.342472900390625,-0.12180500946044921,0.05257540588974952,-0.1064158815455623
1783245170145485000,6.352485107421875,-0.04504384134113788,0.048283553914725774,-0.10040060331141576
1783245170155497000,6.3624970703125,0.016946458625793456,0.04009937067627906,-0.09999602283220738
1783245170165508000,6.372508056640625,0.053721653315424917,0.0358256388798356,-0.08348505128053947
1783245170175520300,6.382520263671875,0.012827917391061781,0.03566840249150991,-0.05138858899166807
1783245170185532200,6.3925322265625,-0.018430559703707695,0.021999358101189134,-0.040625750904250885
1783245170195544300,6.40254443359375,-0.04981470900475979,0.06021247663944959,-0.032076661609858274
1783245170205555200,6.41255517578125,-0.08420446986258029,0.08620791863948106,-0.043138190382905305
1783245170215567000,6.422567138671875,-0.05597323163449764,0.10101502714902162,-0.09805889902347699
1783245170225579000,6.4325791015625,-0.011586977419257164,0.09319032487273216,-0.15356876919623463
1783245170235591200,6.442591064453125,0.01768178716301918,0.05321399605423212,-0.17349479162208734
1783245170245602000,6.45260205078125,0.04070435083210468,0.016408698487281798,-0.16909118636827916
1783245170255614000,6.462614013671875,0.08103110052347183,0.013422376152873039,-0.13423327827574685
1783245170265626000,6.472626220703125,0.07924012545347213,0.00974193407446146,-0.052217404498625546
1783245170275637200,6.48263720703125,0.057490065938234323,0.011532616883516311,-0.009371639457345008
1783245170285649200,6.492649169921875,0.03165127580463886,0.005552957952022552,0.017041918356902896
1783245170295661300,6.502661376953125,-0.016219313395023346,-0.003516775949299335,0.054870056165568525
1783245170305673200,6.512673095703125,-0.07224164486825466,-0.007493278364837169,0.09103044342510401
1783245170315684000,6.52268408203125,-0.0730675742983818,-0.014334522561728954,0.08247686061868444
1783245170325696300,6.5326962890625,-0.06827274123728275,-0.017717735259234903,0.08175886680874973
1783245170335708200,6.542708251953125,0.014137830945849418,-0.025996026521921158,0.025547296373732386
1783245170345720000,6.552719970703125,0.01193476794362068,-0.0434898898974061,0.052741757166292515
1783245170355731000,6.56273095703125,0.0367734411239624,-0.02177256360799074,0.09370536172278225
1783245170365743000,6.5727431640625,0.044161213287711144,-0.023092998556792733,0.14386588849052787
1783245170375755000,6.582755126953125,0.07285948450565338,-0.019418109436333177,0.12191294508064165
1783245170385766100,6.59276611328125,0.027339842346310615,-0.037356793969869614,0.10014153225012123
1783245170395778300,6.6027783203125,0.026791560813784598,-0.06144990947991609,0.06718273577718063
1783245170405790200,6.612790283203125,0.0350783276438713,-0.04749328031986952,0.04530791737111285
1783245170415802400,6.62280224609375,0.02040273655951023,-0.038596272636950014,0.030461134438309816
1783245170425813200,6.632813232421875,0.035351883888244624,-0.02531388947665691,-0.006758095958083868
1783245170435825200,6.6428251953125,0.059112698704004284,-0.05672668035030365,-0.0032372283555567264
1783245170445837000,6.652837158203125,0.07088146243095397,-0.09537643674015998,0.0006784289845265447
1783245170455848000,6.662847900390625,0.04754267241954803,-0.10176789134293794,0.0072936641395092
1783245170465859800,6.67285986328125,-0.001994388687610626,-0.09441197562217712,0.012017824850883334
1783245170475872000,6.6828720703125,-0.06840308961868286,-0.06330021352171898,-0.006475717086438089
1783245170485884000,6.6928837890625,-0.11818155826628207,-0.019703356118500232,-0.0280870805170387
1783245170495894800,6.702894775390625,-0.1609580391973257,-0.030789690539240834,-0.04282539810668677
1783245170505907000,6.712906982421875,-0.1689227344661951,-0.07413812613934279,-0.08695762276193127
1783245170515918800,6.7229189453125,-0.15906360375285147,-0.08707008842676878,-0.09349323507575318
1783245170525931000,6.732930908203125,-0.11109773748517036,-0.05920505316257477,-0.04020434715440496
1783245170535942100,6.742942138671875,-0.04271744422018528,-0.07778904986232518,-0.049937513400521126
1783245170545954000,6.7529541015625,-0.011289455777406691,-0.09477116432338953,-0.08280048481617122
1783245170555966000,6.762966064453125,-0.006027589726448059,-0.06198416248708963,-0.1233562574904412
1783245170565976800,6.772976806640625,-0.046667058628797525,-0.042182898952066894,-0.12613982379436492
1783245170575989000,6.782989013671875,-0.13124094632565975,-0.023818390221893786,-0.12201108995918183
1783245170586001000,6.7930009765625,-0.1937836194783449,-0.03951894043982029,-0.09484055803148075
1783245170596013000,6.803012939453125,-0.2573667415946722,-0.01762158140838146,-0.044763764024432745
1783245170606024000,6.81302392578125,-0.27829554785490035,0.017708090648055074,-0.012035250909719615
1783245170616035800,6.823035888671875,-0.229834007024765,0.03433978423625231,-0.029853249939344823
1783245170626047700,6.8330478515625,-0.1265250237196684,0.03680909695923328,-0.06032326180385425
1783245170636060000,6.843059814453125,-0.022573650857806205,0.04157645749151707,-0.05502970370668918
1783245170646071000,6.853071044921875,0.04267769673168659,0.026851474307477474,-0.011729144102614372
1783245170656083000,6.8630830078125,0.12053601243793964,0.030166005682945248,0.03996357893478125
1783245170666095000,6.87309521484375,0.2067547447323799,0.08939765459150076,0.07647162885451689
1783245170676106000,6.88310595703125,0.26786533925533296,0.07810118455141782,0.09796371328700333
1783245170686118000,6.893117919921875,0.3405617421537637,0.045287294708192344,0.0814400466505438
1783245170696130000,6.903130126953125,0.39565234573483465,0.0048471477702260015,0.029818233424890785
1783245170706142000,6.913141845703125,0.4103191689908504,0.023037176716327667,-0.021843747414369136
1783245170716152800,6.92315283203125,0.36194238383471966,0.043311026199162,-0.024163221604190765
1783245170726165000,6.9331650390625,0.30669805099666114,0.06657879680097102,-0.017588610720541326
1783245170736177000,6.943177001953125,0.2797001539558172,0.10308481916040181,0.00399659535549581
1783245170746188000,6.95318798828125,0.2618757434517145,0.12661533235162495,-0.02114749051220715
1783245170756200200,6.9632001953125,0.1145294654995203,0.02567570852637291,0.058169262107741086
1783245170766212000,6.973212158203125,-0.04372340639233589,0.044103637881577014,0.1345879734649323
1783245170776224000,6.98322412109375,-0.2834726582318544,0.048697687673568725,0.17453589817285536
1783245170786235000,6.99323486328125,-0.4609259051561355,0.04752572128474712,0.15979056632053107
1783245170796247000,7.0032470703125,-0.46295478063523765,0.05718523777276277,0.10685500361518933
1783245170806259000,7.013259033203125,-0.4820166239798069,0.06242956816703081,-0.022181235740426925
1783245170816271000,7.02327099609375,-0.4897101010918617,0.03163900084495544,-0.13800455870907752
1783245170826282000,7.033281982421875,-0.34411271263360976,0.0380959218993783,-0.19175227804752065
1783245170836294000,7.0432939453125,-0.30782676276564597,0.07014496484994888,-0.1810719306117855
1783245170846305800,7.053305908203125,-0.2430412791222334,0.10598170964568852,-0.17100357759455218
1783245170856317000,7.06331689453125,-0.14597557412087916,0.09751900172680616,-0.15003000061083585
1783245170866328800,7.073328857421875,-0.07416004571020603,0.06974427509456872,-0.11010510971862822
1783245170876341000,7.083341064453125,-0.022479542833566665,0.036648645700514314,-0.07521318975863978
1783245170886353000,7.093352783203125,0.0010153145223855973,0.01751052224934101,-0.027106819041725246
1783245170896364000,7.103364013671875,0.01804769786596298,0.018853753551840782,0.006150905578862875
1783245170906376000,7.1133759765625,0.02053600755035877,0.01455254922658205,0.0523801390459761
1783245170916388000,7.12338818359375,0.040619595158100125,0.0016825462594628332,0.045374388469755646
1783245170926400000,7.13339990234375,0.041003041517734526,-0.032984277974069116,0.01822983123352751
1783245170936411000,7.143410888671875,0.07275310152173042,-0.04764905540347099,0.014556421684101224
1783245170946423000,7.153423095703125,0.06632219169139862,-0.01946691701412201,0.0069125010685063895
1783245170956435000,7.16343505859375,0.06790916862189769,-0.006061199735105037,0.007825012803543358
1783245170966445800,7.17344580078125,0.08433364920020103,-0.040728900751471515,0.011981511428486556
1783245170976458000,7.1834580078125,0.06344634399414062,-0.04411737414598465,0.03036691681621596
1783245170986470000,7.193469970703125,0.015144377639889716,-0.04144084841310978,0.05909740980332717
1783245170996481800,7.203481689453125,-0.05113923560678959,-0.05900485441535711,0.07652524047158658
1783245171006493000,7.213492919921875,-0.08670446998476981,-0.02524082424044609,0.1061165515391156
1783245171016505000,7.223505126953125,-0.08814356287717819,0.010776537819206714,0.114276020461414
1783245171026517000,7.23351708984375,-0.09147533764839172,-0.01703735177963972,0.058389882588479665
1783245171036527900,7.24352783203125,-0.08584931446015834,-0.03736234692782164,0.013443528538756072
1783245171046540000,7.2535400390625,-0.07875029610991477,0.0046419805869460104,0.001396806386951357
1783245171056552000,7.263552001953125,-0.07281506084203719,0.01244242520481348,-0.0072396506636403495
1783245171066563800,7.273563720703125,-0.058273909792304034,0.021905542337894438,-0.034529059730656446
1783245171076575000,7.283574951171875,-0.04449906693994999,0.057958560232818125,-0.018671985510457307
1783245171086587000,7.2935869140625,-0.0023468553870916366,0.08213438559025525,-0.02510735232019797
1783245171096598800,7.303598876953125,0.012848960179090499,0.0578638676866889,-0.028103520195186138
1783245171106611000,7.31361083984375,0.028638649985194206,0.008257540735602378,-0.036937837905436754
1783245171116622000,7.3236220703125,0.05986731646358966,-0.002340133385360241,-0.021690346950944513
1783245171126634000,7.333634033203125,0.02698796016871929,0.020727438469231127,-0.012896434316318482
1783245171136646100,7.343646240234375,-0.04455693460702896,0.0601861731544137,0.017190076389629393
1783245171146657000,7.353656982421875,-0.07296352940201759,0.08184943116903305,0.0393492646950297
1783245171156669000,7.3636689453125,-0.09385258817374706,0.07633826653212308,0.009155786483269184
1783245171166681000,7.37368115234375,-0.1177010812729597,0.08201660442948341,-0.013017594744265079
1783245171176693000,7.38369287109375,-0.13128361642360686,0.08196692006886006,-0.06531027470249683
1783245171186704000,7.393703857421875,-0.12577215952575205,0.06753945852667093,-0.0975783854975365
1783245171196716000,7.403716064453125,-0.1160977377295494,0.05609568897038698,-0.08364199540792032
1783245171206728000,7.41372802734375,-0.10647475385963916,0.08857786264121532,-0.04680473180012777
1783245171216739800,7.42373974609375,-0.06939210065603256,0.08734218336641789,-0.00043471988914534445
1783245171226751000,7.4337509765625,0.007582417953014373,0.0731485305801034,0.022814035484939814
1783245171236763000,7.443762939453125,0.04817278701663017,0.03261047622561455,-0.0010619118767790496
1783245171246774800,7.45377490234375,0.0818032539397478,0.015169512081146239,-0.016375106744933872
1783245171256786000,7.463785888671875,0.07615852605104446,0.015284955154359339,-0.03256599776307121
1783245171266798000,7.473798095703125,0.028114333850145338,0.013220131579041481,-0.0417592849788256
1783245171276810000,7.48381005859375,-0.026871640312671658,0.0005748772785067557,-0.00476443792283535
1783245171286822000,7.49382177734375,-0.0884784939199686,-0.018947861576080322,0.021321148312371224
1783245171296833000,7.5038330078125,-0.12766542592644692,-0.02235299384444952,0.051592897658422586
1783245171306845000,7.513844970703125,-0.1460954011082649,-0.039571255148947236,0.06781838506590575
1783245171316856800,7.52385693359375,-0.10389058258533478,-0.042077977272868154,0.0754391988005489
1783245171326868000,7.533867919921875,-0.09858721548020839,-0.04324877461791038,0.027764223504532125
1783245171336879900,7.5438798828125,-0.06294073255956173,-0.042515784168243406,0.014043138399720191
1783245171346891800,7.553891845703125,-0.024724691411852837,-0.0001999064862728119,0.028404585500992834
1783245171356904000,7.563904052734375,0.011872224101424217,-0.007070084516704082,0.058590446661878376
1783245171366915000,7.5739150390625,0.06413374173641205,-0.05393938771933317,0.022694318095408377
1783245171376927000,7.583927001953125,0.11504735189378261,-0.06968816099315882,0.0038594884397462007
1783245171386939100,7.593939208984375,0.11574644007384777,-0.05086158770918846,0.006662490096502005
1783245171396951000,7.603950927734375,0.10542553706765175,-0.05022358206659555,-0.03778544944440946
1783245171406962000,7.6139619140625,0.07130933245420455,-0.04039075483828783,-0.08119162484742701
1783245171416974000,7.62397412109375,0.0619961451858282,0.004639934760332107,-0.08510793977463617
1783245171426986000,7.633986083984375,0.03522854976952076,0.010682137534022331,-0.0995371731488034
1783245171436996900,7.643996826171875,-0.017003741770982742,0.00048486090749502177,-0.09119482194026932
1783245171447008800,7.6540087890625,-0.058655018064379685,0.013843816435337065,-0.0675240600281395
1783245171457021200,7.664021240234375,-0.17340426379442214,0.0020154314756393433,-0.0847355262656696
1783245171467033000,7.674033203125,-0.2669043852686882,0.018407471089065073,-0.09293085195263848
1783245171477044200,7.684044189453125,-0.24834581527113914,0.02561550277173519,-0.10001056281421333
1783245171487056100,7.69405615234375,-0.2228764429718256,0.03142565035521984,-0.15816665491312742
1783245171497068300,7.704068359375,-0.15907295610308647,0.054854456737637516,-0.21387060461957005
1783245171507079200,7.7140791015625,-0.039918168890476224,0.09223024766892195,-0.18252265914306043
1783245171517091300,7.72409130859375,-0.03215454915165901,0.09849281519502401,-0.1833847375988029
1783245171527103200,7.734103271484375,-0.03741173902750015,0.08171265304684638,-0.2009236456924118
1783245171537115100,7.744115234375,-0.02625906137228012,0.06394026499092578,-0.15103841046839953
1783245171547126300,7.754126220703125,-0.01104337206184864,0.02494680972993374,-0.10446332270568236
1783245171557138200,7.76413818359375,-0.008530512458086014,0.05102233122885227,0.003181041188910603
1783245171567150000,7.774150146484375,0.07215455110669136,0.046640462882816786,0.0466868045088835
1783245171577162200,7.784162353515625,0.15309505073726176,0.006909925518929958,0.048190633200574665
1783245171587173000,7.794173095703125,0.17419103025794028,0.024561902065575122,0.07705943867983296
1783245171597185000,7.80418505859375,0.19975451058149338,0.021832477101683616,0.06436645451374351
1783245171607197200,7.814197265625,0.20240823996067045,-0.02170855846107006,0.08344665549891069
1783245171617208300,7.824208251953125,0.17536358116865158,-0.07935147687345742,0.12441194055583327
1783245171627220200,7.83422021484375,0.12696166157126426,-0.1252066345974803,0.07259378277417272
1783245171637232400,7.844232421875,-0.022478958311676976,-0.10425123259127139,0.005882427368406206
1783245171647244300,7.854244384765625,-0.0445855761796236,-0.040350422827899454,0.0872518747344613
1783245171657255200,7.864255126953125,-0.009690788409113884,0.009165595491230487,0.18423653212254865
1783245171667267300,7.874267333984375,-0.09605272856652736,-0.0259288065046072,0.17190995184974744
1783245171677279200,7.884279296875,-0.15880349151194095,-0.06768003604114055,0.10216116497684269
1783245171687290000,7.8942900390625,-0.15868483356833457,-0.0656523296058178,0.0791089368218556
1783245171697302000,7.904302001953125,-0.1482879427164793,-0.0541407555103302,0.0899849346938543
1783245171707314200,7.914314208984375,-0.08586158941984176,-0.04605594099313021,0.06912409736961125
1783245171717326000,7.924326171875,-0.0675210460871458,-0.04589578199535608,0.004044106025341898
1783245171727337200,7.934337158203125,-0.07663023521602154,-0.01716156268119812,-0.0014968326953239738
1783245171737349400,7.944349365234375,-0.05693652370870113,0.02746288420408964,0.0331728776150383
1783245171747361300,7.954361328125,-0.021885084071755406,0.04172083439826965,0.054835423243604596
1783245171757373200,7.964373291015625,0.015935820278525352,0.016412790140509604,0.04847724985592067
1783245171767384300,7.97438427734375,0.02262918043732643,-0.0388297891318798,0.05134462198577821
1783245171777396200,7.984396240234375,0.019386837515234946,-0.05433393999487161,0.03582817789679393
1783245171787408100,7.994408203125,0.05865034188926219,-0.019142507365345954,0.05391513006091118
1783245171797419300,8.004419189453126,0.03607259937822819,0.0075683894276618955,0.06988994890926406
1783245171807431200,8.01443115234375,-0.026537293791770934,0.011646890912950039,0.05520113301714882
1783245171817443000,8.024443115234375,-0.028821605336666105,0.03459609708487987,0.043367414295207705
1783245171827455200,8.034455322265625,-0.05467383947372436,0.041752398580312725,0.004917253864370286
1783245171837466000,8.044466064453125,-0.10348024821877479,0.013699439528584479,-0.044160573966894295
1783245171847478300,8.054478271484374,-0.1052010806620121,0.009658347444236277,-0.04097366929277777
1783245171857490200,8.064490234375,-0.0548030188113451,0.029804478894174098,-0.019295268507953732
1783245171867501300,8.074501220703125,-0.04878419691324234,0.03574351355433464,-0.03961264660526067
1783245171877513200,8.08451318359375,-0.006671148326992988,0.03566284953355789,-0.026832112019881605
1783245171887525400,8.094525390625,0.03767009770274162,0.029920798750221727,-0.02015181227205321
1783245171897537300,8.104537353515624,0.027201310658454894,0.015380232222378254,-0.010735858748946338
1783245171907548200,8.114548095703125,-0.004932780227065086,0.024942718076705932,-0.024867113823536784
1783245171917560000,8.12456005859375,-0.024247137027978895,0.05672784939408302,-0.026105459979455917
1783245171927572200,8.134572265625,-0.016208792001008988,0.07825286798179149,-0.019359401519037783
1783245171937584000,8.144584228515624,-0.025482231780886648,0.08512421505600214,-0.08630304957702756
1783245171947595000,8.154594970703124,-0.005211597168445587,0.057468730889260765,-0.17030991450827568
1783245171957607200,8.164607177734375,-0.009485621225833893,0.04363631263077259,-0.22278863682420924
1783245171967619000,8.174619140625,-0.019803017100691794,0.023176585187017915,-0.2427950127435848
1783245171977630200,8.184630126953126,-0.02366495322585106,0.02195025826245546,-0.18575164939323438
1783245171987642400,8.194642333984374,-0.00490121604502201,0.04149491668790579,-0.08540759857464582
1783245171997654300,8.204654296875,-0.006240355694293975,0.023454525345563887,0.00624099501511082
1783245172007666200,8.214666259765625,-0.01633797133862972,-0.008542202895879744,0.04732387856971472
1783245172017677300,8.22467724609375,-0.012552607581019401,-0.017908289395272732,0.07049558665221557
1783245172027689200,8.234689208984374,-0.04149930060207844,0.015111644414067267,0.08466395886680111
1783245172037701000,8.244701171875,-0.02432663200497627,0.0075879709109663955,0.08421882718149572
1783245172047712300,8.254712158203125,-0.0259200386762619,-0.013653846821188927,0.08149515610495582
1783245172057724200,8.26472412109375,-0.05392448241114616,-0.03404664650857448,0.06889034341266378
1783245172067736000,8.274736083984376,-0.054096331846714016,0.009501111055910587,0.08321014332929626
1783245172077748200,8.284748291015624,-0.023672552010416983,0.05595481919497251,0.08826686046328396
1783245172087759400,8.29475927734375,0.016900865918397904,0.0691162063241005,0.036410800090339035
1783245172097771300,8.304771240234375,0.09529811080694198,0.0700567020446062,-0.024127492703683674
1783245172107783400,8.314783447265626,0.14240472989678382,0.025831775870919227,-0.08082385098095983
1783245172117795300,8.32479541015625,0.11663082169294356,-0.027025661830604075,-0.08843403372373432
1783245172127806200,8.33480615234375,0.08350479716062545,-0.02702683087438345,-0.035387137864716346
1783245172137818000,8.344818115234375,0.027286650854349136,-0.01452595348060131,0.03657311451258138
1783245172147830300,8.354830322265625,-0.006923661783337593,-0.0007552022814750671,0.07512415976831689
1783245172157841200,8.364841064453126,-0.048931496429443354,-0.010112520952522753,0.06470929486835375
1783245172167853000,8.37485302734375,-0.14567220726013183,0.016478548853099344,0.051530810473952436
1783245172177865200,8.384865234375,-0.16106617574691773,0.014682020825147628,0.045563115974888206
1783245172187877000,8.394877197265625,-0.1921025345236063,0.04678688561618328,-0.016976141378004104
1783245172197888300,8.40488818359375,-0.1845160249173641,0.042383389960229396,-0.10686152468752115
1783245172207900200,8.414900146484374,-0.15472528228759766,0.06893354323357344,-0.16034662930071353
1783245172217912300,8.424912353515625,-0.10665244851410388,0.09017536096572876,-0.17303760417280717
1783245172227924200,8.43492431640625,-0.08171323756873607,0.0941971638277173,-0.16205644715959205
1783245172237935400,8.444935302734375,-0.05885960072576999,0.07981938664615154,-0.1274594915581867
1783245172247947300,8.454947265625,-0.000602057546377182,0.08844780652076005,-0.074763071370963
1783245172257959200,8.464959228515625,0.01737842030227184,0.09244096781015396,-0.02442390010068193
1783245172267970300,8.47497021484375,0.019883096599578855,0.11773644484728574,-0.02606268028365448
1783245172277982200,8.484982177734375,0.06072013390064239,0.10987462543100118,-0.04970266346503049
1783245172287994000,8.494994140625,0.05999883388876914,0.06826514245271682,-0.1038229424429126
1783245172298006300,8.50500634765625,0.09366437212526797,0.029724399395287034,-0.13080558711569756
1783245172308017200,8.51501708984375,0.12444821744561195,0.03680266721844673,-0.15692615333274007
1783245172318029000,8.525029052734375,0.06196633456945419,0.0513344659179449,-0.15933087638691068
1783245172328041200,8.535041259765626,-0.04530278453826904,0.11605623667538166,-0.08747954601049422
1783245172338052400,8.54505224609375,0.040047932749986644,0.05338233835846185,-0.16947275129808112
1783245172348064300,8.555064208984374,-0.0023100305080413818,0.009652794486284255,-0.15161376267094165
1783245172358076200,8.565076171875,-0.03896422916650772,0.040426995195448394,-0.07402586140390485
1783245172368088300,8.57508837890625,-0.004984802675247192,-0.004196867167949677,-0.06794988422477617
1783245172378099200,8.58509912109375,0.041945290803909296,-0.033767245045304296,-0.06993758744327351
1783245172388111000,8.595111083984374,0.02661152807176113,-0.01592851375490427,-0.019173213030863553
1783245172398123300,8.605123291015625,0.03871639188528061,-0.029197745172679423,0.03493879130901768
1783245172408134100,8.615134033203125,0.03511690608859062,-0.06059270812869071,0.015087131027318536
1783245172418146000,8.62514599609375,-0.03787643392980099,-0.06519640253186225,-0.11519569258959964
1783245172428158200,8.635158203125,-0.06446107399463653,0.0656821402221918,-0.14897448194222523
1783245172438170000,8.645170166015625,-0.056420390880107876,0.1641863535940647,-0.10379620056645944
1783245172448181200,8.65518115234375,-0.27941841440498827,0.22970278186053036,-0.036832276905421166
1783245172458192600,8.665192626953125,-0.2699748787552118,-0.10578618707358836,-0.17842587308241054
1783245172468204500,8.67520458984375,-0.04933832366466522,-0.39899873355329035,-0.3895412059107795
1783245172478216700,8.685216796875,0.1283107380926609,-0.2701543269753456,-0.2495537114898674
1783245172488227600,8.6952275390625,0.14510931268036364,-0.04163315611481666,0.06177512284629046
1783245172498239500,8.705239501953125,0.07597147904634476,0.09699293202608823,0.24419726249063387
1783245172508251600,8.715251708984376,-0.12793430599570274,0.17160276733040808,0.2082753601620905
1783245172518262500,8.725262451171876,-0.4711275656968355,0.141529700627923,0.048095392665173854
1783245172528274400,8.7352744140625,-0.6620113720804452,-0.026416005499660968,-0.0847618662833236
