time,seconds_elapsed,z,y,x
1783244241131807500,0.061807373046875,0.06183540166616439,0.021715134332329033,-0.033053397687524556
1783244241141818600,0.071818603515625,0.09482757068574428,0.06915507702976464,0.018347265334427355
1783244241151830800,0.081830810546875,0.055443070280551905,0.03277253491953015,0.055040334698557854
1783244241161841700,0.091841552734375,0.0847398919135332,-0.031376404386013745,0.06949921429231762
1783244241171852500,0.1018525390625,0.10539572645127773,-0.09594912206158042,0.10600552891269326
1783244241181864400,0.111864501953125,0.10909399644732475,-0.11706307563036679,0.14800971029698848
1783244241191875600,0.12187548828125,0.08019464969933032,-0.12184972538501024,0.18295549760237334
1783244241201887500,0.131887451171875,0.01969897220432758,-0.1231793665535748,0.22298940182700752
1783244241211898600,0.141898681640625,-0.07907061410546302,-0.12561843026876449,0.18623261957690118
1783244241221909500,0.151909423828125,-0.1331026485443115,-0.10618600004613399,0.1704268554188311
1783244241231921700,0.161921630859375,-0.1046913775742054,-0.09227394068017601,0.1617012587800622
1783244241241932500,0.1719326171875,-0.10321253719329833,-0.11529694274067878,0.11617927853316068
1783244241251943700,0.181943603515625,-0.09780804780125617,-0.11484671475514768,0.062137599483132355
1783244241261955600,0.19195556640625,-0.09226970289647579,-0.07619009023308754,0.0647086190149188
1783244241271966700,0.201966796875,-0.009609539866447449,-0.02767506565004587,0.05952084111347794
1783244241281977600,0.2119775390625,0.04661211357116699,-0.0787315914094448,0.02729673385694623
1783244241291989500,0.221989501953125,0.05008358907401562,-0.16676628708466887,-0.04060015980526804
1783244241302000600,0.232000732421875,0.03428922309279442,-0.09859218391627073,-0.0019140169277787208
1783244241312012800,0.2420126953125,0.025618425381183623,0.04269537851884961,0.05732961467951536
1783244241322023700,0.252023681640625,0.07076806518435477,0.10893559101521968,0.03063303867280483
1783244241332034600,0.26203466796875,0.09066226769983768,0.014741788188368082,-0.028814444943517446
1783244241342046500,0.27204638671875,0.10620178213715553,-0.045913902173936365,-0.12676613899916409
1783244241352057600,0.2820576171875,0.08783668888509273,-0.02751242243424058,-0.14065394070670006
1783244241362068700,0.29206884765625,-0.022696400454640386,0.022393471985310314,-0.10220262949839233
1783244241372080600,0.30208056640625,-0.13526596405804156,0.11114259954020381,-0.07370441089719533
1783244241382091500,0.312091552734375,-0.16799217561781404,0.13449541807696222,-0.058665393327921624
1783244241392103700,0.322103759765625,-0.15712883629798888,0.10081570518463849,-0.0662727995917201
1783244241402114600,0.332114501953125,-0.13834873250424862,0.01576864701807499,-0.14976999796777962
1783244241412125700,0.342125732421875,-0.09850655145943164,0.015414134491980074,-0.18470394870489834
1783244241422137600,0.3521376953125,-0.04295300654172897,0.07196078210026026,-0.15325594038739798
1783244241432148700,0.362148681640625,-0.07771510784327984,0.06834960586577654,-0.1518719386830926
1783244241442159600,0.37215966796875,-0.05076631064116954,0.07025368592143058,-0.1467677474118769
1783244241452171500,0.382171630859375,-0.03893851020336151,0.06931961994171142,-0.11310630082860589
1783244241462182400,0.392182373046875,-0.08091536518931389,0.014088146585226058,-0.11874240701943635
1783244241472193500,0.402193603515625,-0.1262719257414341,0.05833908398300409,-0.12389803621694445
1783244241482205700,0.412205810546875,-0.18570260435342786,0.13670783342942594,-0.08693623291403055
1783244241492216600,0.422216552734375,-0.13650515046417713,0.14208075863942504,-0.09419950191527604
1783244241502228500,0.432228515625,-0.09781506206393241,0.06946750397980213,-0.11796060899198055
1783244241512239600,0.442239501953125,-0.12056173140108585,-0.016067629964649676,-0.11455153120085597
1783244241522250800,0.452250732421875,-0.007436287480592727,0.06490501836985349,-0.06292246625050903
1783244241532262700,0.4622626953125,0.031606267619132995,0.12234949160069226,-0.0541948237851262
1783244241542273500,0.4722734375,0.05199439113140106,0.059792789922654625,-0.06496098634079098
1783244241552284400,0.482284423828125,0.1267202540308237,0.022608283779770134,-0.03708148415982723
1783244241562296600,0.492296630859375,0.15897475642561912,-0.0016509820774197577,-0.03030906741544604
1783244241572307700,0.5023076171875,0.2143137818098068,-0.045806642407178876,-0.029744857661426066
1783244241582318600,0.512318603515625,0.18613982672691345,-0.0812280844002962,0.0012368483185768127
1783244241592330800,0.522330810546875,0.13428279823958872,-0.07460588978156447,0.04930719787403941
1783244241602341600,0.532341552734375,0.07411854465603827,-0.046388095556944606,0.11281710862368345
1783244241612353500,0.542353515625,-0.020498013627529142,-0.024470424389839172,0.14639248435869812
1783244241622364200,0.5523642578125,-0.11834522439539431,-0.05232552278190851,0.10608604680299759
1783244241632375000,0.562375,-0.25417992825210095,-0.06459083785414696,0.05271466822996735
1783244241642387200,0.57238720703125,-0.28426117826104164,0.00359086409881711,0.04931830378994345
1783244241652398000,0.582398193359375,-0.26774726583361624,0.02426701077222824,0.016580547922849655
1783244241662409000,0.592408935546875,-0.22958266261219976,-0.024153905786573886,-0.05473258392363786
1783244241672420900,0.6024208984375,-0.12986673536300658,-0.030102585057914254,-0.0792871794655919
1783244241682432000,0.612431884765625,-0.028650924944877622,-0.007356500242650508,-0.03965396499633789
1783244241692444200,0.622444091796875,0.04360299488306045,0.008979571399837731,0.00751198306530714
1783244241702455000,0.632455078125,0.06548457182347774,-0.002736439226567745,0.025561726757884023
1783244241712466000,0.6424658203125,0.06380407139062881,-0.030504005465656518,0.027721096748858687
1783244241722478000,0.65247802734375,0.04735854802429676,-0.03171279673352837,0.04817249475568533
1783244241732489200,0.6624892578125,-0.013243512454628943,-0.03199468241482973,0.05729337432235479
1783244241742500000,0.6725,-0.06857260096669196,-0.004949585231393576,0.04911094464957714
1783244241752512000,0.682511962890625,-0.08177227427959442,0.04299173111692071,0.06981660967841744
1783244241762523000,0.69252294921875,-0.03218260620236397,0.06450885865911841,0.07391454651653766
1783244241772535000,0.70253515625,0.0024129063606262205,0.007259615739434957,0.034509149453788995
1783244241782546000,0.7125458984375,0.06118307523727417,-0.06652618983089924,0.0003425298273563385
1783244241792557000,0.72255712890625,0.13146248012185097,-0.018270108444988727,0.048840749406069514
1783244241802569200,0.7325693359375,0.15159633661210536,0.05164557769373059,0.08282543659433722
1783244241812580000,0.742580078125,0.17029811447262763,0.011936083117872476,0.05562514884918928
1783244241822591000,0.752591064453125,0.1191261456400156,-0.04618468193933367,0.04514963980317115
1783244241832603000,0.762602783203125,0.05761398457884788,-0.008727496334910392,0.05798764019683003
1783244241842614000,0.772614013671875,-0.008997545447945595,0.06242021581679582,0.07587956297919153
1783244241852625200,0.782625244140625,-0.04940612820386886,0.04194309884682298,0.051954789773374796
1783244241862637000,0.792636962890625,-0.024075872114300727,-0.005806202060729265,0.010409019681066275
1783244241872648000,0.80264794921875,-0.004113280537724495,-0.027321137645840644,-0.008343173192441463
1783244241882660000,0.81266015625,-0.01934825907051563,-0.004548164823651313,-0.025771277855336665
1783244241892671200,0.822671142578125,0.014189268872141838,0.02495835403725505,-0.04397752728387713
1783244241902682000,0.83268212890625,0.028667876079678533,-0.020815262883156535,-0.09335092226192354
1783244241912694000,0.842694091796875,0.0007148702710866927,-0.036634763305634255,-0.11393281478062271
1783244241922705000,0.852704833984375,-0.03164543058574199,-0.008496902449429035,-0.09745499657988548
1783244241932716000,0.862716064453125,-0.10961305188536644,0.030040625737607476,-0.10018734415322542
1783244241942728000,0.87272802734375,-0.17059037541747094,-0.006977145536243915,-0.09483750755786895
1783244241952739000,0.882739013671875,-0.15828092894256113,-0.00770458302795887,-0.05970175063833594
1783244241962751200,0.892751220703125,-0.07123276008665562,0.009273585910350084,-0.02378857960551977
1783244241972762000,0.90276220703125,0.006061491996049881,-0.021131050834059716,-0.03027604192867875
1783244241982773000,0.91277294921875,0.02169979063272476,-0.07235138885304332,-0.08057809605896472
1783244241992785000,0.922784912109375,-0.05223404510617256,-0.10479995251521468,-0.0708640729047358
1783244242002796000,0.932796142578125,-0.06570610561966896,-0.05373801992833614,-0.03578632978275418
1783244242012807200,0.94280712890625,-0.13183482056558132,0.009256634775549173,-0.0530633355371654
1783244242022819000,0.952819091796875,-0.1453863760560751,0.0146298522464931,-0.054156975992769
1783244242032830000,0.962829833984375,-0.08460311379134655,0.00041340310648083686,-0.08479805184155702
1783244242042840800,0.9728408203125,-0.04798340192437172,0.0022401801422238347,-0.0972546517021954
1783244242052853000,0.98285302734375,-0.002359130346775055,-0.02477759064286947,-0.05664543180763721
1783244242062864100,0.992864013671875,0.09518588260412215,-0.015225187791138886,-0.014852116695046423
1783244242072876000,1.0028759765625,0.10186638328135013,-0.025994711347669362,0.06650105538964271
1783244242082887000,1.012886962890625,0.022871172499656676,-0.027113486244529483,0.13803119098767638
1783244242092898000,1.02289794921875,-0.09473872335851193,-0.05225903341695666,0.1739171817526221
1783244242102910000,1.032909912109375,-0.21033143417537212,-0.09536080077961087,0.16717179914563893
1783244242112921000,1.042921142578125,-0.2919464720666408,-0.053277562809735536,0.14614640064314008
1783244242122933200,1.052933349609375,-0.3213362326800823,-0.01459346575886011,0.13319690269902348
1783244242132944100,1.062944091796875,-0.25904899559319017,0.007378419813513755,0.0817256586588919
1783244242142955000,1.072955078125,-0.14697043037712573,0.024078648593276738,0.04978679808452725
1783244242152967000,1.082966796875,-0.012402385455369948,0.020224603513628245,0.013611322853714226
1783244242162978000,1.09297802734375,0.07174597030580043,-0.034195407329499716,0.052377399099618194
1783244242172989200,1.1029892578125,0.1493675546467304,-0.01845160249173641,0.0664037324950099
1783244242183001000,1.1130009765625,0.1300140348792076,0.0055469666026532645,0.09922697468847036
1783244242193012000,1.123011962890625,0.1274351243019104,-0.042264732016623015,0.05284457821995019
1783244242203022800,1.13302294921875,0.1381751295030117,-0.044459611712396145,0.002809504462778568
1783244242213035000,1.143034912109375,0.04284954616725445,-0.015561580138653516,0.006338263110816479
1783244242223046100,1.153046142578125,-0.0466898549824953,0.01484466404095292,0.0279601662017405
1783244242233058000,1.16305810546875,-0.10511983211934565,0.033872751246392725,0.0022090543515980244
1783244242243069000,1.17306884765625,-0.13557108448445795,0.028898908356577158,-0.012002718613296746
1783244242253080000,1.183080078125,-0.1238835693001747,0.022551877417415378,-0.023236937072128056
1783244242263092000,1.193092041015625,-0.03326046456694603,0.030044425129890442,-0.050635085476934905
1783244242273103000,1.20310302734375,0.03804302266836166,0.037871173232793806,-0.07440335294678807
1783244242283114000,1.213114013671875,0.10401800835728645,0.056984746764600275,-0.08337985560670494
1783244242293126100,1.223126220703125,0.12538579055666924,0.037186698099970814,-0.09073241032660007
1783244242303137000,1.233136962890625,0.06558569411039351,0.036083997555077074,-0.09771803143024443
1783244242313149000,1.24314892578125,-0.008321253621578217,0.03302431772351265,-0.10045958522334694
1783244242323159800,1.253159912109375,-0.07089081478118896,0.041847529517859215,-0.11358049421161412
1783244242333171200,1.263171142578125,-0.09966507384479045,0.06504808010235429,-0.13861819709539414
1783244242343183000,1.27318310546875,-0.12654898911714554,0.06594356763735414,-0.15372370402961968
1783244242353194000,1.283194091796875,-0.08290741578936577,0.0919653131224215,-0.20385829263851046
1783244242363204900,1.293204833984375,-0.06096738665997982,0.069256053186208,-0.21422493448257446
1783244242373217000,1.303217041015625,-0.022089082211256026,0.03192234783098102,-0.16346154645085334
1783244242383228200,1.313228271484375,0.020809563794732092,0.04224631957709789,-0.10672536761984229
1783244242393239000,1.323239013671875,-0.006953472399711609,0.02825359619036317,-0.044766047313064335
1783244242403251000,1.3332509765625,-0.001222235271334648,0.02165361340343952,-0.0019175240591168402
1783244242413262000,1.343261962890625,-0.011329203265905379,0.005531622903048991,0.015784429109096526
1783244242423274000,1.35327392578125,0.02012391961812973,-0.0038747956067323682,0.05163038012459874
1783244242433285000,1.36328515625,0.03117255237698555,0.0013959844030439852,0.04607099243178964
1783244242443296000,1.3732958984375,0.051040451407432554,0.02189969711899757,0.03739975632876157
1783244242453308200,1.38330810546875,0.09828560218513012,0.002855389431118965,0.04161708176285028
1783244242463319000,1.393319091796875,0.15245207665860652,0.01086947679966688,0.042851445863395926
1783244242473330000,1.403329833984375,0.15989654744565485,0.0005082417830824851,0.05734276642203331
1783244242483341800,1.413341796875,0.10051730675995349,-0.019351912332326172,0.07893968120217323
1783244242493353200,1.423353271484375,0.0028559739530086515,0.014926643235981463,0.11270736463889479
1783244242503365000,1.433365234375,-0.08523498195409775,0.08092384075671434,0.1375222185522318
1783244242513376000,1.4433759765625,-0.142214175760746,0.07124182017594576,0.13880875123143196
1783244242523387000,1.453386962890625,-0.14702303734719752,0.022900544724613427,0.0978757062099874
1783244242533399000,1.46339892578125,-0.11539514241814612,-0.04261676032468676,0.06637260670438408
1783244242543410200,1.47341015625,-0.07550444605648517,-0.07045797632187605,0.04326616414412856
1783244242553421000,1.483421142578125,-0.027079730105400084,-0.014675737214833498,0.061699646457284686
1783244242563433000,1.493432861328125,-0.053315995123982426,0.02737491365969181,0.03844721955507994
1783244242573444000,1.503444091796875,-0.05941957269608974,0.03579509761109948,0.028482582640647885
1783244242583456000,1.5134560546875,-0.08648468975424765,0.01578106810823083,-0.0016968670457601547
1783244242593467000,1.523466796875,-0.09279869520664215,0.008243804471194743,-0.010817162090539931
1783244242603478000,1.53347802734375,-0.07216214989125729,0.018313655325770378,-0.0386468337804079
1783244242613490200,1.543490234375,-0.028022563913464544,0.011976268997788428,-0.036065292854607106
1783244242623501300,1.553501220703125,0.001249123278260231,0.030201076996326445,-0.06659063336923718
1783244242633512200,1.56351220703125,0.025498598393797874,0.042714667741209265,-0.10944982414767146
1783244242643524400,1.5735244140625,0.04072364005446434,0.047959436526894564,-0.12324950918033718
1783244242653535500,1.583535400390625,0.0376665905714035,0.04981383222192526,-0.12601634354516864
1783244242663547400,1.59354736328125,0.019881343033909798,0.010223141720145941,-0.12756854142323135
1783244242673558300,1.603558349609375,-0.02334463523030281,-0.024938918684422967,-0.08964008504524826
1783244242683569200,1.613569091796875,-0.06811901198029517,-0.019350304897129536,-0.015013883128017186
1783244242693581300,1.623581298828125,-0.11725918272435665,-0.04053966178968549,0.023321400485187768
1783244242703592200,1.63359228515625,-0.21557518004775045,-0.08090791253522038,0.034454496657103297
1783244242713603300,1.643603271484375,-0.25008359884917736,-0.04637669738009572,0.03850684078782796
1783244242723615500,1.653615478515625,-0.24627251612842083,-0.0044387130998075,0.018270108444988727
1783244242733626400,1.66362646484375,-0.2312771915704012,-0.011279957296699285,-0.04988967393711209
1783244242743637200,1.67363720703125,-0.19687574027478694,-0.06418196479231118,-0.1003209074050188
1783244242753649200,1.683649169921875,-0.1670189466714859,-0.03673004037365317,-0.09724033091589808
1783244242763660300,1.693660400390625,-0.14536708683371544,0.05415726825371384,-0.03490194816365838
1783244242773672400,1.70367236328125,-0.09908172099888324,0.09205284527540207,-0.02346986904516816
1783244242783683300,1.713683349609375,0.04254617930650711,0.054533992611616844,-0.048596711517125364
1783244242793694200,1.723694091796875,0.2036345668852329,-0.003163724727928638,-0.05483925916850566
1783244242803706400,1.733706298828125,0.3193213857263326,-0.03983078286796808,-0.05391600684374571
1783244242813717200,1.74371728515625,0.36616906161904333,-0.06982669268101453,-0.026634324425458905
1783244242823728400,1.753728271484375,0.32639468511343,-0.06994491223320365,0.004151420591026544
1783244242833740300,1.763740234375,0.2766547949105501,-0.046690585634857416,0.045784138314425946
1783244242843751200,1.773751220703125,0.1719768613398075,-0.006203823076188564,0.09409209601804613
1783244242853763300,1.783763427734375,-0.026245617368817326,0.011093640944361686,0.12817761323228477
1783244242863774200,1.793774169921875,-0.20537936472594737,0.002093026756495237,0.12325389309450983
1783244242873785300,1.803785400390625,-0.30654607530534267,0.013246435064077376,0.07939253953620791
1783244242883797500,1.813797607421875,-0.3401139983862638,0.015234686271846293,-0.012349047832936048
1783244242893808400,1.823808349609375,-0.3759744163185358,-0.0427304498322308,-0.06029840135723352
1783244242903819300,1.8338193359375,-0.29341888270676136,-0.04601911611407995,-0.07218611528873443
1783244242913831200,1.8438310546875,-0.1618073495030403,-0.012887100232392548,-0.06256678468063473
1783244242923842300,1.85384228515625,-0.08005494896769523,-0.010446282951533794,-0.08658873465061187
1783244242933854500,1.8638544921875,-0.04085749556720256,-0.05580898098349571,-0.11378273878544569
1783244242943865300,1.873865234375,-0.09040507806837558,-0.0030569033525884148,-0.0872093507669866
1783244242953876200,1.883876220703125,-0.12459493243992328,0.08219780621528625,-0.03777063546776771
1783244242963888400,1.893888427734375,-0.13852642715871333,0.10414236538931727,-0.062112172780930994
1783244242973899300,1.903899169921875,-0.11247019488215446,0.015497282730787992,-0.08395283318907022
1783244242983910400,1.913910400390625,-0.09182721982598305,-0.007266483871638775,-0.06575681289359926
1783244242993922300,1.92392236328125,-0.011448445731401443,0.04800926701799035,-0.013455109378695488
1783244243003933200,1.93393310546875,0.07561316712796688,0.0575162232927978,-0.009417670556157828
1783244243013945300,1.9439453125,0.1731529193818569,0.0368625807121396,-0.008118424525856972
1783244243023956200,1.953956298828125,0.2414461188852787,0.03337356955260038,0.02669949861615896
1783244243033967400,1.96396728515625,0.19957155523002146,0.01269113926887512,0.062164195229113095
1783244243043979500,1.9739794921875,0.1685737748980522,0.01291194241270423,0.07491714768782258
1783244243053990400,1.983990478515625,0.12612579526901244,-0.019514263287186622,0.03319602102860808
1783244243064001300,1.994001220703125,0.06033844110667705,-0.08084551482349633,0.035591391732543706
1783244243074013200,2.00401318359375,-0.05689911430776119,-0.06359218220561742,0.06498495173826813
1783244243084024000,2.014024169921875,-0.14293547577261925,0.0032110710009932517,0.08078121741563081
1783244243094035500,2.024035400390625,-0.17787585625052452,0.031127105800062418,0.007352554719895124
1783244243104047400,2.03404736328125,-0.16583528984487056,-0.0201534379735589,-0.0732100515089929
1783244243114058200,2.044058349609375,-0.1084773258537054,-0.08077113441303371,-0.08759718104079366
1783244243124070400,2.0540703125,-0.058680737027525895,-0.0481007446937263,-0.06477583903223276
1783244243134081300,2.064081298828125,-0.06334639075100422,-0.0109830201767385,-0.04162716476544737
1783244243144092400,2.074092529296875,-0.08048632612228393,-0.03506678333654999,-0.029109043975919482
1783244243154104300,2.084104248046875,-0.10416939952671528,-0.02260156177803874,-0.00023804653957486152
1783244243164115200,2.094115234375,-0.131024088704586,0.04636676050797105,0.0007116554006934165
1783244243174126300,2.104126220703125,-0.1627928534090519,0.05666048324629664,-0.018643617932498455
1783244243184138200,2.11413818359375,-0.08346738775968551,0.03671761928349733,-0.05136062327250838
1783244243194149400,2.1241494140625,-0.005846972462534904,-0.0018910744436085223,-0.07751330166086554
1783244243204161300,2.134161376953125,0.030716040781140326,-0.03686857206150889,-0.0759413761690259
1783244243214172400,2.14417236328125,0.04326631027460098,-0.038583559285849334,-0.029646219592541455
1783244243224183300,2.154183349609375,0.04718903667628765,0.0013230652973055838,0.0003761398360133171
1783244243234195200,2.1641953125,0.0014835165560245513,0.010248714552819728,0.021176351280510423
1783244243244206000,2.1742060546875,0.0023451018214225767,-0.00656739569157362,0.03884279474392533
1783244243254217500,2.184217529296875,-0.033249358651041984,-0.017542232561856507,0.019338468328863382
1783244243264229400,2.1942294921875,-0.06222469324469566,0.009482552485913037,-0.0053410687670111655
1783244243274240300,2.204240234375,-0.05598141494095325,0.03728752812594175,-0.03676818042695522
1783244243284252400,2.21425244140625,-0.019017419680953024,0.06468596879169344,-0.03832666191533208
1783244243294263300,2.22426318359375,-0.032653730845451354,0.030985943763703106,-0.0683899378761649
1783244243304274400,2.2342744140625,-0.004134907847642899,-0.009053659549355506,-0.0570261016882956
1783244243314286300,2.244286376953125,0.00909399155974388,-0.024189123230427503,-0.03917480317726731
1783244243324297200,2.254297119140625,-0.06443593955338,-0.043233723179250956,-0.012721242146193981
1783244243334308400,2.264308349609375,-0.13561024745106695,-0.05414674685969949,0.03950461965352296
1783244243344320300,2.2743203125,-0.19212299278974532,-0.021894290291517973,0.09383563703894615
1783244243354331100,2.2843310546875,-0.2397510054051876,0.030234540874511003,0.09253536809533834
1783244243364343300,2.29434326171875,-0.21529051788747308,0.025358605401217937,0.038405718500912185
1783244243374354400,2.3043544921875,-0.13714520193338392,0.015753157187998294,-0.02824044444784522
1783244243384365300,2.314365234375,-0.07470774272084235,0.014449673373997211,-0.06050766019374132
1783244243394377200,2.324377197265625,0.012360299879312515,0.021521949847787616,-0.03494827152341604
1783244243404388000,2.33438818359375,0.09750701902806758,0.015983166551589965,0.021525456979125737
1783244243414399500,2.3443994140625,0.17598668150305746,0.02675532045662403,0.06767974378019571
1783244243424411400,2.354411376953125,0.24310849913954732,0.055930561536550516,0.08541501469612121
1783244243434422300,2.36442236328125,0.2565881584376097,0.04976590142697095,0.041719519224017856
1783244243444434400,2.374434326171875,0.20401333706974983,0.03808817698433995,-0.003344195861369371
1783244243454445300,2.3844453125,0.17250702269375323,0.03568666880056262,-0.049647389613837
1783244243464456200,2.394456298828125,0.10722995614111423,0.0016768471710383892,-0.08576981948316097
1783244243474468400,2.40446826171875,-0.0012958850294351577,-0.009827420400828122,-0.09674304891824721
1783244243484479200,2.414479248046875,-0.07681611317694187,0.023427052816748617,-0.05539207074567675
1783244243494490400,2.424490478515625,-0.134183429518342,0.032124884665757414,-0.009081862730532884
1783244243504502300,2.434502197265625,-0.1924813047081232,0.030544337476044892,-0.018068156132102012
1783244243514513200,2.44451318359375,-0.1919751087516546,0.010415011030435562,-0.035916093642264606
1783244243524525300,2.454525390625,-0.1999889038592577,-0.0022086159601807593,-0.03898731778115034
1783244243534536400,2.464536376953125,-0.1788134293615818,-0.011661503960192204,-0.033510493805259466
1783244243544547300,2.47454736328125,-0.14023615368604658,-0.0004915829092264175,-0.030326164680719372
1783244243554559200,2.484559326171875,-0.13989771551191807,0.0053417994193732735,-0.03025046909600496
1783244243564570000,2.494570068359375,-0.12705927672684192,-0.00216959912404418,-0.03795388308018446
1783244243574581500,2.50458154296875,-0.13009879055321216,-0.0014259411498904228,-0.0564455253213644
1783244243584593400,2.514593505859375,-0.1651888086348772,0.02850084894970059,-0.07129457327648997
1783244243594604300,2.524604248046875,-0.15755553727746008,0.0572144638672471,-0.062072279161959884
1783244243604616400,2.534616455078125,-0.15944354298114777,0.030281887147575615,-0.06939560778737068
1783244243614627300,2.54462744140625,-0.10646364794373511,-0.007606529480963945,-0.10146773935258388
1783244243624638200,2.55463818359375,-0.07202361820340156,0.02784969156458974,-0.08249547398760915
1783244243634650400,2.564650390625,-0.020815993535518645,0.05453852265626192,-0.04461377936080098
1783244243644661500,2.57466162109375,0.05134732539951801,0.07339534494802355,-0.05469692808836698
1783244243654672400,2.58467236328125,0.11482523357570171,0.06306538185253739,-0.05384454904273152
1783244243664684500,2.5946845703125,0.17105565484166144,0.032290012099593875,-0.04366773068234324
1783244243674695400,2.6046953125,0.17287293339669704,-0.011471972737461329,-0.030740882961452005
1783244243684707300,2.614707275390625,0.11595336082279681,-0.02106236951202154,-0.0068720777265727515
1783244243694718500,2.624718505859375,0.06976385657787322,0.018501140721887348,0.06203881528377533
1783244243704729300,2.634729248046875,0.007587094128131866,0.07018120520710945,0.07519450332447886
1783244243714741500,2.644741455078125,0.008138298270106314,0.08657105286344885,0.08434563189893961
1783244243724752400,2.65475244140625,0.04797638766169548,0.06464066834524274,0.0869601983115077
1783244243734763300,2.66476318359375,0.17116496043503285,0.08990750380977988,-0.009108458476513624
1783244243744775400,2.674775390625,0.11349369271099567,0.07320756729096174,-0.06281330678761005
1783244243754786600,2.68478662109375,-0.08004851922690868,-0.02376549099087715,0.02870236287117004
1783244243764798500,2.694798583984375,-0.14032850814461706,0.039945641419291494,0.12107771809920669
1783244243774809300,2.704809326171875,-0.186273097717762,0.1229046412654221,0.13107479597851635
1783244243784820200,2.7148203125,-0.19529870021641255,0.055602060234546655,0.0806292417243123
1783244243794832400,2.724832275390625,-0.14402970075011254,0.0016994973942637442,0.005063420869410038
1783244243804843500,2.734843505859375,-0.09243161545991897,0.019750848522037266,-0.05033332605138421
1783244243814854400,2.7448544921875,-0.1069435404151678,0.05074950563684105,-0.059073974128812545
1783244243824866600,2.754866455078125,-0.13446166193783282,0.06395882356092333,-0.07968976891711353
1783244243834877400,2.76487744140625,-0.14334814822673797,0.052703270053118464,-0.12045797876566648
1783244243844888600,2.774888671875,-0.12662380791902542,0.025482670172303913,-0.10362506351694464
1783244243854900500,2.784900390625,-0.07500935601592064,0.02850684029906988,-0.054297553507238625
1783244243864911400,2.794911376953125,-0.04795008417665958,0.04173033287897706,-0.047169893584400414
1783244243874923500,2.804923583984375,-0.03074234426617622,0.020382862815260885,-0.02469488079547882
1783244243884934400,2.814934326171875,0.020345453414320945,0.038920974546670914,-0.008415069384872912
1783244243894945300,2.8249453125,0.07887830640375613,0.022637363743782044,0.00937806919813156
1783244243904957400,2.83495751953125,0.09815700736939907,-0.0007616320222616196,-0.01132555000409484
1783244243914968600,2.844968505859375,0.10845043784677982,-0.04053673918023705,-0.023403964202105998
1783244243924979500,2.8549794921875,0.12275427300930022,-0.036738369810581206,-0.01692030127122998
1783244243934991400,2.864991455078125,0.06861410202085971,-0.003706014911085367,-0.008955752132833004
1783244243945002200,2.875002197265625,0.003144727766513824,-0.009858984582871199,-0.003258709535002708
1783244243955014400,2.885014404296875,-0.03884615574479103,-0.028421500103175637,0.006660042411088943
1783244243965025500,2.895025634765625,-0.0806833099991083,-0.047547202464193104,-0.007514759544283151
1783244243975036400,2.905036376953125,-0.11535831753909587,-0.07648936544060707,-0.01758957883492112
1783244243985048600,2.915048583984375,-0.13055237953960894,-0.07955079883784055,0.008791355351358651
1783244243995059500,2.9250595703125,-0.1480874517083168,-0.034031741200387475,0.0369550813011825
1783244244005070300,2.9350703125,-0.14039514364004135,-0.013707768965512514,0.019946517224609852
1783244244015082200,2.945082275390625,-0.05952946281135082,-0.032659283803403376,-0.019232962127774953
1783244244025093400,2.95509326171875,-0.03101122433543205,-0.028490473686158656,-0.05390665449351072
1783244244035105500,2.96510546875,-0.012872341054677962,-0.03175575909242034,-0.07947042707800865
1783244244045116400,2.975116455078125,-0.009301496830582618,-0.042363662346452474,-0.04653144955039024
1783244244055127300,2.985127197265625,0.004867898297309875,-0.0800020497366786,0.0035306583441793915
1783244244065139500,2.995139404296875,-0.010009352838993072,-0.1187481061078608,0.030843612683564423
1783244244075150600,3.005150634765625,-0.06805179196298122,-0.11489902946427463,0.06860548032298684
1783244244085161500,3.015161376953125,-0.08971943389177321,-0.08110445802062749,0.06778349641561508
1783244244095173400,3.02517333984375,-0.06873100639879703,-0.07393558930456638,0.030436200926452873
1783244244105184300,3.035184326171875,-0.055801382198929786,-0.041037089917808765,-0.016289309891313313
1783244244115196400,3.045196533203125,-0.09533552020788193,-0.018188129249960182,-0.04406330587118864
1783244244125207600,3.05520751953125,-0.11773089188933372,0.01984700237289071,-0.03314516762420535
1783244244135218400,3.065218505859375,-0.09549684824943543,0.03569032206237316,-0.0096726682305336
1783244244145230600,3.075230712890625,-0.022377836024761198,0.001381225225329399,-0.005163666373491287
1783244244155241500,3.085241455078125,0.08178396471738815,-0.0378987918920815,-0.0022308277919888494
1783244244165252400,3.09525244140625,0.17582184633016584,-0.031101094575971364,-0.02426072716191411
1783244244175264300,3.10526416015625,0.265823019772768,-0.0383909593231976,-0.080762220454216
1783244244185275400,3.115275390625,0.2524561731994152,-0.04749415710270405,-0.08946355943456291
1783244244195287600,3.12528759765625,0.14119593862891197,-0.03795329855829477,-0.06072714816331863
1783244244205298400,3.13529833984375,0.01461830793917179,-0.014922843843698502,-0.007041442944109439
1783244244215309300,3.145309326171875,-0.11811375372707843,-0.003955459627509117,0.045269174529612065
1783244244225321500,3.155321533203125,-0.244791337659955,0.017693915992230178,0.05019435597211122
1783244244235332600,3.16533251953125,-0.310762231695652,0.002563420747220516,0.004476268631219864
1783244244245343500,3.175343505859375,-0.3261339883506298,0.00659136108905077,-0.026868863833695647
1783244244255355400,3.18535546875,-0.30786592573225496,0.03564662905111909,-0.0857160434693098
1783244244265366300,3.1953662109375,-0.2209410909950733,0.04781213701069355,-0.12568842676505446
1783244244275378400,3.20537841796875,-0.14694529593586922,0.07187573416531086,-0.14669833543747662
1783244244285389300,3.215389404296875,-0.06404898606240748,0.06718932991474866,-0.1384776195809245
1783244244295400400,3.225400390625,0.004103343665599822,0.04649857019409537,-0.12128361593484878
1783244244305412600,3.23541259765625,0.05992109247744083,0.03234904881045222,-0.09393281380310654
1783244244315423500,3.245423583984375,0.03553425471782684,0.025875761143118143,-0.08001607826203107
1783244244325434400,3.255434326171875,0.004720014259219169,0.04006663745045662,-0.031116438275575635
1783244244335446300,3.2654462890625,-0.017848375901579856,0.060608490219712256,0.014839841735363006
1783244244345457400,3.27545751953125,-0.07178337970674037,0.041371582569181914,0.044071196916699404
1783244244355469600,3.285469482421875,-0.05982873801887035,0.028598610235750672,0.05285436896160245
1783244244365480400,3.29548046875,-0.016487608942389487,0.056754591270536184,0.04677037287279963
1783244244375491300,3.3054912109375,0.026041034707427024,0.07564429291859269,0.037139936348795886
1783244244385503500,3.31550341796875,0.1308814653635025,0.05273819523602724,0.024041093061864374
1783244244395514400,3.325514404296875,0.2211415820032358,0.021821809577196837,0.0027738486275076866
1783244244405525500,3.335525390625,0.26933541180789466,0.035492753663659095,0.01184065991938114
1783244244415537400,3.345537353515625,0.22244272772967813,0.009718114807456732,0.030683892077207564
1783244244425548300,3.35554833984375,0.11663549786806106,-0.022963526958227155,0.08112535467818378
1783244244435560400,3.365560546875,0.01881283701956272,-0.0169946816816926,0.14233005722537637
1783244244445571300,3.3755712890625,-0.08357084813416003,0.01169409105554223,0.150844495331496
1783244244455582500,3.38558251953125,-0.10892273153364658,0.00047813890576362607,0.10432093682661651
1783244244465594600,3.3955947265625,-0.06982932302951812,0.015066197837144135,0.03872559810504317
1783244244475605500,3.40560546875,-0.0711240390151739,0.014716507616639136,-0.034415187560021876
1783244244485616400,3.415616455078125,-0.09060323098897934,-0.019786212096363304,-0.07621259432584047
1783244244495628300,3.425628173828125,-0.1197182663142681,0.0020734452731907367,-0.06957271791994571
1783244244505639400,3.435639404296875,-0.206209970331192,0.016420973446965217,-0.0232372293330729
1783244244515651600,3.445651611328125,-0.19955109696388243,0.06070508246198296,0.007427519652247428
1783244244525662500,3.455662353515625,-0.1569575713843107,0.06292305077239871,-0.006617810704559087
1783244244535673300,3.46567333984375,-0.0636737230092287,0.03341550899818539,-0.05372033814117312
1783244244545685500,3.475685546875,0.017932547053694722,-0.00968508932068944,-0.10163578939586877
1783244244555696400,3.4856962890625,0.0805745889276266,-0.003450286584347486,-0.12501987985372542
1783244244565708300,3.495708251953125,0.0938332989513874,0.007473112359642982,-0.09301029213070869
1783244244575719400,3.505719482421875,0.06258943490386008,0.003713467565178871,-0.06153349611014127
1783244244585730300,3.515730224609375,0.042086745101213456,0.02710793328657746,-0.012822948954999447
1783244244595742500,3.525742431640625,0.006143909582495689,0.046062224603444335,0.013573182800412177
1783244244605753300,3.53575341796875,-0.03188216195106506,0.010092793338745833,-0.009036562284082174
1783244244615764500,3.545764404296875,-0.0726315209686756,-0.03380319314152002,-0.03626651451513171
1783244244625776600,3.555776611328125,-0.06958791548907757,-0.0014148352339863777,-0.008159633319079875
1783244244635787500,3.56578759765625,-0.07446691970229148,0.0003847615338861942,0.008808744877576827
1783244244645799700,3.575799560546875,-0.08124386649131775,-0.026209230881184337,-0.022640140222758055
1783244244655810600,3.585810546875,-0.04876666125655174,-0.03516849014535546,-0.02146642026826739
1783244244665821400,3.595821533203125,-0.05535130034387111,-0.05009454885944724,-0.01891308252364397
1783244244675833300,3.605833251953125,-0.0861345611423254,-0.07538081967681647,-0.013030454225838184
1783244244685844700,3.6158447265625,-0.07695698295235634,-0.07925298493504523,0.01884557024538517
1783244244695855600,3.625855712890625,-0.10260112729668616,-0.035626901437342165,0.01617269777432084
1783244244705867500,3.635867431640625,-0.12653145346045494,-0.03737140701711177,-0.034069881253689524
1783244244715878400,3.64587841796875,-0.13305413322746754,-0.032994360976666214,-0.0696786625124514
1783244244725890600,3.655890625,-0.07503507497906685,-0.012280658771842718,-0.09900091084763407
1783244244735901700,3.665901611328125,-0.017628011149168014,0.005605857183039188,-0.0912200477130711
1783244244745912600,3.67591259765625,0.020647651231288908,-0.025157091479748487,-0.06803878635093569
1783244244755924500,3.685924560546875,0.09541793779432774,-0.03364654127508402,-0.024090192900598047
1783244244765935600,3.695935546875,0.11490180594325065,-0.035079935079067946,-0.004971066410839557
1783244244775946500,3.705946533203125,0.0604319646090269,-0.06766746882051229,-0.013384528360515832
1783244244785958700,3.715958740234375,-0.01771393586695194,-0.09049348700419067,0.013434504982084036
1783244244795969500,3.725969482421875,-0.14103402606546878,-0.072351973374933,0.046391310427337885
1783244244805981700,3.735981689453125,-0.2506681207388639,-0.028455694633722304,0.07316036714836954
1783244244815992600,3.74599267578125,-0.257947171831131,0.012149725868552922,0.04326178022995591
1783244244826003500,3.75600341796875,-0.23807167401611803,0.011148586001992224,-0.013910890322178602
1783244244836015400,3.766015380859375,-0.15447744500637053,-0.03914601547420025,-0.09899681919440627
1783244244846026800,3.77602685546875,-0.015308628290891647,-0.05931815814822912,-0.19426643455922601
1783244244856037600,3.78603759765625,0.06191080498993396,-0.006158230368793011,-0.15620017714574932
1783244244866049500,3.796049560546875,-0.001897358053922653,-0.00751022949963808,-0.016784692192822692
1783244244876060400,3.806060302734375,-0.006616787791252136,0.06814473094344138,0.10528262146562337
1783244244886072600,3.816072509765625,-0.02160100643336773,0.09890066534355282,0.12751505767032503
1783244244896083700,3.826083740234375,-0.01870177786052227,0.050263914076983926,0.06409253294318915
1783244244906094600,3.836094482421875,0.03655424541532993,-0.03160144531354308,0.009058335724473
1783244244916106500,3.8461064453125,0.10182546674907207,-0.027341742042452096,-0.011326426786929368
1783244244926117600,3.85611767578125,0.1383195064097643,-0.02412847908437252,-0.04790756020918488
1783244244936128500,3.86612841796875,0.1430681622415781,-0.035005262407660484,-0.0559649021975696
1783244244946140400,3.876140380859375,0.14483634095788,-0.03369111106917262,-0.018209756559878585
1783244244956151600,3.886151611328125,0.09833236393630504,0.009061550594866276,0.03455488829165697
1783244244966163700,3.896163818359375,0.022041151416301728,0.027813889598846436,0.056538902693241834
1783244244976174600,3.906174560546875,-0.041109424501657485,0.0450648841291666,0.04996040108576417
1783244244986185500,3.916185546875,-0.08991115707159042,0.0445464132130146,0.026007424698770043
1783244244996197400,3.926197265625,-0.13117840248346327,0.02426364977136254,-0.026102409505844113
1783244245006208800,3.936208740234375,-0.15900748965144157,0.00567965307161212,-0.05455108987689018
1783244245016219600,3.9462197265625,-0.14872867222130298,0.031925124309957024,-0.05889233395159244
1783244245026231600,3.9562314453125,-0.13227438102662561,0.08379486614838243,-0.06234773510247468
1783244245036242400,3.966242431640625,-0.14056056333482264,0.07020239412561059,-0.060155631885677574
1783244245046254600,3.976254638671875,-0.09799509480595588,0.03341784708574414,-0.06824307675138115
1783244245056265500,3.986265380859375,-0.08522095342874526,0.031959611101448536,-0.09664324180558323
1783244245066276600,3.996276611328125,-0.06067454119324684,0.050437224817276,-0.12029913494214414
1783244245076288500,4.00628857421875,-0.043530514168739314,0.08809738564789295,-0.1370417415589094
1783244245086299600,4.016299560546875,-0.03390519221127033,0.08078910846114158,-0.12258096226900815
1783244245096310500,4.026310546875,-0.03669979136586189,0.06345087403878569,-0.0831048380576074
1783244245106322400,4.036322509765625,-0.026819617864489553,0.07006152435019612,-0.038598026202619075
1783244245116333600,4.04633349609375,-0.017292495584487914,0.07872267745062708,0.03192439365759492
1783244245126345700,4.056345703125,0.02382394317984581,0.0725220692448318,0.051351563183218235
1783244245136356600,4.066356689453125,0.09054945497512817,0.06066460432112217,0.03960267320051789
1783244245146367500,4.076367431640625,0.09140870215296745,0.006213321556895971,0.008530804719030857
1783244245156379400,4.08637939453125,0.07387246094048022,-0.011862725620716809,0.03315466610491276
1783244245166390800,4.096390869140625,0.06979249815046787,0.02888765631020069,0.05808700891807675
1783244245176401700,4.106401611328125,0.05459726710617542,0.01029328434690833,0.06858049201220273
1783244245186413600,4.11641357421875,0.026335049217939374,-0.04311433458328247,0.060251055084168906
1783244245196424400,4.126424560546875,-0.01652151121199131,-0.023172347403317688,0.10161489273831248
1783244245206436600,4.1364365234375,-0.07476853299736977,0.0032788755401968956,0.10349632257074116
1783244245216447500,4.146447509765625,-0.0836596954613924,-0.01748655685186386,0.08384177403002976
1783244245226458600,4.156458740234375,-0.11384908201992511,-0.06095525783076882,0.05152984235957265
1783244245236470500,4.166470458984375,-0.11736147405505179,-0.07928148037716747,0.048269817650318146
1783244245246481700,4.176481689453125,-0.10706278288066387,-0.050030251451581714,0.05437310296148062
1783244245256492500,4.186492431640625,-0.06617664574086665,-0.02828311454579234,0.04431275058761239
1783244245266504400,4.19650439453125,-0.002265606844425201,-0.023713906934112308,0.023361440234631298
1783244245276515600,4.206515625,0.023393735069036484,-0.022042612721025943,0.009499942012131214
1783244245286527700,4.21652783203125,0.061522097933292386,-0.023183891710638997,-0.017171937944740055
1783244245296538600,4.22653857421875,0.05703589242994785,-0.003893061915785074,-0.0011102993294596672
1783244245306549500,4.236549560546875,-0.007101356437802314,-0.026075813759863373,0.024723083976656197
1783244245316561400,4.2465615234375,-0.056579380834102626,-0.04292904114425182,0.0422436892285943
1783244245326572500,4.256572509765625,-0.12768179253935813,-0.017372575083374975,0.008160656232386827
1783244245336583700,4.266583740234375,-0.16346856071352958,-0.010945610775798559,-0.01773497865498066
1783244245346595600,4.276595703125,-0.13710720801055432,0.020899580165743826,-0.06545549185946584
1783244245356606500,4.2866064453125,-0.08037643600702285,0.023541472976654768,-0.11983984686732291
1783244245366618600,4.29661865234375,-0.01533200916647911,0.039433600243926045,-0.15014131549820303
1783244245376629500,4.30662939453125,0.02061784061491489,0.026654344300180672,-0.17526070531606674
1783244245386640600,4.316640625,0.051204117536544795,0.0048965398699045174,-0.17653993147164582
1783244245396652500,4.326652587890625,0.031880408385396,-0.014570377144217491,-0.12493439352735876
1783244245406663700,4.33666357421875,-0.038836218872666355,-0.028534751219302414,-0.05397051350995898
1783244245416675600,4.346675537109375,-0.10443126533329486,-0.01122545063048601,-0.008874941981583832
1783244245426686500,4.3566865234375,-0.1632055258631706,0.012588409546762705,0.005004238028079271
1783244245436697600,4.366697509765625,-0.13638240086734293,0.011936521509289741,-0.02794686832875013
1783244245446709800,4.376709716796875,-0.11884908226430416,-0.009966390480101108,-0.07509791108220815
1783244245456720600,4.386720703125,-0.11397650779187679,-0.02126315278112888,-0.09732610950320958
1783244245466731500,4.3967314453125,-0.10501461817920207,0.004501403072476387,-0.07153700373023748
1783244245476743400,4.406743408203125,-0.07674830863773822,0.01920519733801484,-0.0471691629320383
1783244245486754600,4.416754638671875,-0.03772212015092373,-0.017420798139274118,-0.009228577724844218
1783244245496766500,4.426766357421875,0.039597850894927976,-0.015048954441398381,-0.0060312429882586
1783244245506777600,4.436777587890625,0.095484573289752,0.022356939367204905,0.018747224437445403
1783244245516788500,4.44678857421875,0.16347732854187488,0.043250674314051864,0.0030595337010920045
1783244245526800600,4.456800537109375,0.15734920105040073,0.04732523027658462,-0.06961641093119979
1783244245536811500,4.4668115234375,0.06044657765626907,0.002353138997405767,-0.094176267170161
1783244245546822700,4.47682275390625,-0.03469429676234722,-0.0008607084825634956,-0.05846051840558648
1783244245556834600,4.48683447265625,-0.11852817974686622,0.06247486861348152,0.04721928568407893
1783244245566845700,4.496845703125,-0.17532032654881477,0.0834558434523642,0.10770473404601216
1783244245576857600,4.506857666015625,-0.14947686024010182,0.04673281734138727,0.10883841425105929
1783244245586868500,4.516868408203125,-0.09878595292270183,0.004048398607969284,0.0659831689953804
1783244245596879400,4.52687939453125,-0.04185585895478725,0.008417991994321345,0.02842339979931712
1783244245606891500,4.5368916015625,-0.0005430208355188369,-0.0032208617426455017,0.02127732743695378
1783244245616902700,4.546902587890625,-0.011648936739563942,-0.002118307328224182,0.02330313417613506
1783244245626913800,4.556913818359375,-0.06555471445024014,0.03618497371152043,0.03162468005865812
1783244245636925700,4.56692578125,-0.08661679170131682,0.059090194611251354,0.07053659451603889
1783244245646936600,4.5769365234375,-0.06293722542822361,0.04834069092944264,0.09173296567127108
1783244245656948500,4.586948486328125,0.01532499490380287,0.0070050564564764495,0.0860258400708437
1783244245666960000,4.5969599609375,0.11820143201053142,-0.03291355082541704,0.06817439542934298
1783244245676970800,4.606970703125,0.19525778368413446,-0.08394435762166977,0.04818418519347906
1783244245686982700,4.616982666015625,0.17354571809172628,-0.09550985386148095,0.020586714824289084
1783244245696993500,4.62699365234375,0.11294424213469027,-0.06430822152048349,0.03404752329140901
1783244245707004700,4.637004638671875,0.05254267266392708,-0.010880728846043347,0.05521978291869163
1783244245717016600,4.6470166015625,-0.05823766943514347,0.0009255904123187064,0.03120294751524925
1783244245727027700,4.65702783203125,-0.15338848072588443,0.002825724945217371,0.02989259556904435
1783244245737039600,4.66703955078125,-0.21580080549716948,0.002998305033147335,0.0035325580403208733
1783244245747050800,4.67705078125,-0.22767887481749055,-0.0012064531803131103,-0.027465368422120807
1783244245757061600,4.6870615234375,-0.16891221307218074,-0.024294191040098667,-0.05366612373590469
1783244245767073500,4.697073486328125,-0.07036416055858134,-0.0017284312278032302,-0.08706643516495824
1783244245777084700,4.707084716796875,-0.03092413057386875,0.015699235043674705,-0.09266732391193508
1783244245787095800,4.717095703125,-0.00663490796983242,0.025450959859788416,-0.08892097699046135
1783244245797107700,4.727107666015625,0.004473930543661117,0.0451978628590703,-0.07423077285885811
1783244245807118600,4.73711865234375,-0.05134732539951801,0.036382688240706916,-0.06380655560865998
1783244245817130500,4.747130615234375,-0.12326456061899661,0.014858400305360555,-0.04910670686587691
1783244245827142000,4.757141845703125,-0.15151450354754925,0.017610475492477417,-0.06698927729800343
1783244245837152800,4.76715283203125,-0.16634966910779475,0.03442249408364296,-0.07522066067904233
1783244245847164700,4.77716455078125,-0.12183891173005103,0.034779198566824196,-0.09033625061586499
1783244245857175600,4.787175537109375,-0.07272504447102546,0.014988456425815819,-0.07793810294419527
1783244245867187700,4.797187744140625,-0.028691256955265997,0.01814078297689557,-0.06043050330430269
1783244245877198600,4.807198486328125,0.03939852893054485,0.02366802196577191,-0.06117445353940129
1783244245887209700,4.817209716796875,0.09054010262489319,0.0008954875349998473,-0.03554404545947909
1783244245897221600,4.8272216796875,0.13990999047160146,-0.008400310207158326,-0.016059592788666487
1783244245907232800,4.837232666015625,0.14367021978795527,-0.03233735837265849,-0.010686083056777715
1783244245917243600,4.84724365234375,0.09938216525018215,-0.07296879009902477,-0.004625029452145099
1783244245927255600,4.857255615234375,0.07524141120612621,-0.06181275144293904,0.047848231237381696
1783244245937266700,4.8672666015625,-0.008668459624052048,-0.03286649681329727,0.08107201705574989
1783244245947278800,4.87727880859375,-0.11039806478321551,-0.04732420736327767,0.07722337880358099
1783244245957289700,4.887289794921875,-0.16048983716368675,-0.05779854736551642,0.05551978877857327
1783244245967300600,4.897300537109375,-0.1764385169237852,-0.060606736654043196,0.02296469600200653
1783244245977312500,4.9073125,-0.1808703618913889,-0.061134121529012916,0.006774170310050249
1783244245987323600,4.91732373046875,-0.14951953033804893,-0.04681391975358128,-0.02671834944710135
1783244245997334800,4.927334716796875,-0.12836919028162955,-0.034150837535411115,-0.06393778077289462
1783244246007346700,4.9373466796875,-0.11026596283614634,-0.03473506716415286,-0.09820420751199126
1783244246017357600,4.947357666015625,-0.09038754241168498,-0.016952449975162744,-0.08896130900084973
1783244246027369700,4.95736962890625,-0.08318272559940815,0.012834931653738021,-0.0633246173106134
1783244246037380600,4.967380615234375,-0.06238543676435947,0.06614025925323366,-0.04962678521722555
1783244246047391700,4.977391845703125,-0.03318798385262489,0.07795534633994101,-0.06088789168298244
1783244246057403600,4.987403564453125,0.061331543797254556,0.0616227818287909,-0.0786950587913394
1783244246067414800,4.997414794921875,0.16481120749413966,0.04133651125580072,-0.0832324099600315
1783244246077425700,5.00742578125,0.21216332577764987,0.026723902405053377,-0.08639511177465319
1783244246087437600,5.0174375,0.15940262644886968,0.01939984312728047,-0.070419836268574
1783244246097448700,5.02744873046875,0.038162265133857724,0.05537526574134826,-0.029670915642380714
1783244246107460900,5.0374609375,-0.09410451710820197,0.09950929876118898,0.009636720134317874
1783244246117471700,5.0474716796875,-0.16452362272441387,0.10092048073336482,-0.02145911374464631
1783244246127482600,5.057482666015625,-0.1887333503514528,0.07556421341970562,-0.05404737813845276
1783244246137494500,5.06749462890625,-0.1566974591434002,0.05369374239519238,-0.11267682337015866
1783244246147505700,5.077505615234375,-0.07659457938075065,0.03755699271708727,-0.15605784606561063
1783244246157516800,5.087516845703125,-0.032898060995340345,0.03366100819185376,-0.16800459670796988
1783244246167528700,5.09752880859375,-0.010367664757370948,0.046757074999809266,-0.15457199142202735
1783244246177539600,5.10753955078125,-0.015320903250575064,0.0498904045894742,-0.08002791483029723
1783244246187551700,5.1175517578125,-0.03399403953850269,0.029971359893679616,-0.019879297207295893
1783244246197562600,5.127562744140625,-0.0681400547683239,-0.01860620853155851,0.03560278990939259
1783244246207573800,5.13757373046875,-0.0803963097512722,-0.03171133542880416,0.08381883154585958
1783244246217585700,5.147585693359375,-0.12170038004219531,-0.01889700817167759,0.10629764372706413
1783244246227596800,5.1575966796875,-0.13137713992595673,-0.005624708013981581,0.09794146492257713
1783244246237608700,5.167608642578125,-0.10480126768946647,-0.011682254487276077,0.03531213639974594
1783244246247619600,5.17761962890625,-0.0847919143617153,-0.05555339878723025,-0.054273880370706316
1783244246257630500,5.18763037109375,-0.032199557337164876,-0.03589198211431503,-0.060236295906454324
1783244246267642600,5.197642578125,0.015465864679217338,0.0028032208524644375,-0.045105800661444664
1783244246277653800,5.20765380859375,0.04797814122736454,0.005410334610939025,0.0009688450321555137
1783244246287664600,5.21766455078125,0.05283610265254974,-0.015044716657698154,0.05736687794998288
1783244246297676500,5.227676513671875,0.023387889850139617,-0.020195669680088756,0.10077318121716379
1783244246307687700,5.237687744140625,-0.053963060855865476,-0.041845775952190155,0.08669993994012475
1783244246317699600,5.247699462890625,-0.11380115122497081,-0.03706482528597116,0.11541253194436431
1783244246327710700,5.257710693359375,-0.13250877430438995,0.008978110095113515,0.12356851200163364
1783244246337721600,5.2677216796875,-0.1326683487802744,0.01806260317414999,0.07606850968003273
1783244246347733800,5.277733642578125,-0.10607786349654197,0.012290303383022547,0.05665098476558923
1783244246357744600,5.28774462890625,-0.059953241181373594,0.014374416180700064,0.012989391563087701
1783244246367755800,5.297755859375,-0.017380173867940902,0.05230564903765916,0.011053601194918154
1783244246377767700,5.307767578125,0.008760814082622527,0.09910115635171532,-0.009871697933971881
1783244246387778800,5.31777880859375,0.07193944705128669,0.1062495668016374,0.006825608236342668
1783244246397790700,5.327790771484375,0.16726444586515427,0.0859253023058176,0.07350406601950525
1783244246407801600,5.337801513671875,0.22067221092581749,0.058590282265096896,0.08734130658358336
1783244246417812500,5.3478125,0.22974866682887077,0.04859612699523568,0.07568900884315372
1783244246427824600,5.35782470703125,0.15541034194231032,0.05565554398745298,0.08792363651618361
1783244246437835800,5.367835693359375,0.06006839199364185,0.06633095951974391,0.07280044779479503
1783244246447846700,5.3778466796875,-0.04759469486773014,0.079698244484514,0.045573272042721505
1783244246457858600,5.387858642578125,-0.12324059522151946,0.0777601160287857,0.007068915472924709
1783244246467869700,5.39786962890625,-0.16240706896185875,0.06733516812622546,-0.05262012181431055
1783244246477881600,5.407881591796875,-0.19121639933884144,0.05646320710852742,-0.09910057182982564
1783244246487892700,5.417892822265625,-0.22426526698172092,0.039839842957258224,-0.1181007481150329
1783244246497903600,5.427903564453125,-0.22291969759166239,0.036942514080554247,-0.12992650272622705
1783244246507915800,5.437915771484375,-0.17314415155351162,0.02823269953280687,-0.1038319842658937
1783244246517926700,5.4479267578125,-0.1718114416450262,0.02443038464039564,-0.06510784746557474
1783244246527937500,5.4579375,-0.12261340323388575,0.033613661918789145,-0.0516604830019176
1783244246537949400,5.467949462890625,-0.04768412671685218,0.05973024608045816,-0.022873364456743
1783244246547960800,5.4779609375,0.002617489022016525,0.051272944989055394,-0.03562295591458678
1783244246557972700,5.48797265625,0.04039104709923267,0.007004471934586763,-0.05453063161075115
1783244246567983600,5.497983642578125,0.07009294240176678,0.003611614625900984,-0.04353679777905345
1783244246577994500,5.507994384765625,0.09818681798577308,0.05045607564821839,-0.03407265773266554
1783244246588006700,5.518006591796875,0.14336334579586982,0.05615151081085205,-0.028425299495458602
1783244246598017800,5.528017822265625,0.1561912631869316,0.03222951408401131,-0.02709609671831131
1783244246608028700,5.538028564453125,0.1845341450959444,0.011498422352969646,-0.014832681342214346
1783244246618040600,5.54804052734375,0.16182430063784123,0.017092004576325415,-0.004331161072105169
1783244246628051200,5.55805126953125,0.08096446502804756,-0.023980887307226657,0.002566781748086214
1783244246638063000,5.56806298828125,-0.028720483049750327,-0.053515463218837975,0.021833500014990567
1783244246648074200,5.57807421875,-0.1250870998710394,-0.035088264515995976,0.04308642366304993
1783244246658085000,5.588085205078125,-0.20797230382859705,-0.045440293312817806,0.044494829156249756
1783244246668097300,5.59809716796875,-0.2246656644761562,-0.023568799374997614,0.0038515608616173265
1783244246678108200,5.608108154296875,-0.23808745610713958,-0.02480243282318115,-0.05107829919978976
1783244246688120000,5.6181201171875,-0.22258593559265136,-0.023626374781131745,-0.09829816940575838
1783244246698131200,5.628131103515625,-0.20367372985184193,-0.018117986623197795,-0.09592574118599295
1783244246708142300,5.638142333984375,-0.16558160734474658,-0.0054665948428213595,-0.07013181310743093
1783244246718154200,5.648154296875,-0.12727671886980532,-0.006998334454745054,0.009418255078047513
1783244246728165000,5.6581650390625,-0.09106441875994205,-0.027797084594517945,0.05165902169719338
1783244246738176000,5.668176025390625,-0.058740942782163616,-0.0532834080286324,0.08497779232263565
1783244246748188200,5.678188232421875,0.03577098608314991,-0.05239259666875005,0.11617036457434296
1783244246758199300,5.68819921875,0.06788578774631022,-0.012441256161034106,0.1243763212531805
1783244246768211200,5.698211181640625,0.028838556471467016,-0.0008205226026475429,0.07128960484042764
1783244246778222000,5.70822216796875,-0.0005482815325260162,-0.006700374421477318,0.03201806329041719
1783244246788233200,5.718233154296875,-0.023762568381428716,-0.011043518192321062,0.035478871268779036
1783244246798245000,5.7282451171875,-0.03270166164040565,-0.020028496419638393,0.043390667306631804
1783244246808256300,5.73825634765625,0.0044528877556324,-0.015117051241546869,0.04969605106115341
1783244246818267100,5.74826708984375,0.06320376740992069,0.012814473387598991,0.04324219874665141
1783244246828279300,5.758279296875,0.07978489985466003,0.01983984197974205,0.018530951338261364
1783244246838290200,5.768290283203125,0.07072130343317985,-0.010979805306345224,-0.0003546586565673351
1783244246848302000,5.778302001953125,-0.003059387570619583,-0.001744213318824768,0.010668255139142274
1783244246858313000,5.78831298828125,-0.10796645372211933,0.016777385669201613,0.03495090187191963
1783244246868324400,5.798324462890625,-0.20390110886693,0.007977847011387347,0.05168357161656022
1783244246878336300,5.808336181640625,-0.23544717073142526,-0.0019125556230545043,0.03827522398903966
1783244246888347100,5.81834716796875,-0.23368366819024083,-0.002531564304232597,0.0014649579860270023
1783244246898359000,5.828359130859375,-0.17865677749514577,0.021447277176380158,-0.030754911486804485
1783244246908370200,5.8383701171875,-0.0842868874490261,0.042075346924364564,-0.0868872792057693
1783244246918381300,5.84838134765625,0.00044072950482368465,0.024644758043438193,-0.09366481051668524
1783244246928393200,5.858393310546875,0.06601122604608535,0.02348579726666212,-0.07691898902952671
1783244246938404000,5.868404052734375,0.0890928264260292,0.023146190048754213,-0.0429201271854341
1783244246948415200,5.878415283203125,0.05719663594961166,0.034012305847555394,-0.01053469188734889
1783244246958427100,5.88842724609375,0.04930032974183559,0.022538725674897432,-0.01935088941901922
1783244246968438300,5.898438232421875,-0.009292144480347634,-0.007490940277278423,-0.028746786534786222
1783244246978450200,5.9084501953125,-0.06957797861695289,0.004516746772080659,-0.017073884397745133
1783244246988461300,5.91846142578125,-0.11887246313989162,0.029538083042949435,-0.002494447164237499
1783244246998472200,5.92847216796875,-0.11735562883615493,0.06198387022614479,-0.007021715330332517
1783244247008484000,5.938484130859375,-0.09055003949701786,0.06987886125966906,-0.05134221083298325
1783244247018495000,5.948494873046875,-0.053603579893708224,0.05978358370289206,-0.08565086927860975
1783244247028506400,5.95850634765625,-0.03240121738910675,0.03736234692782164,-0.11028247557953
1783244247038518300,5.968518310546875,-0.05068330853283405,0.027190935394912956,-0.09062894995212555
1783244247048529200,5.978529052734375,-0.029743980878591536,0.04863821257129311,-0.03324731282442808
1783244247058541000,5.988541015625,-0.003944353711605072,0.034615240176767106,-0.00395312153995037
1783244247068552200,5.99855224609375,-0.01571545552611351,0.01205547171384096,0.02222542194202542
1783244247078563300,6.008563232421875,0.013396072667837142,0.032036183468997476,0.06394216468706726
1783244247088575200,6.0185751953125,0.04842822308242321,0.047867812720686194,0.061466276092827316
1783244247098586000,6.028586181640625,0.13477555019259452,0.03155541421473026,0.01075841764062643
1783244247108597200,6.03859716796875,0.2114081234961748,0.022267945909500122,-0.03672565645948052
1783244247118609200,6.048609130859375,0.21497429154515266,-0.009584405425190925,-0.04151800530254841
1783244247128620000,6.0586201171875,0.16556640977561474,-0.024146891523897648,-0.020543460204452274
1783244247138632000,6.0686318359375,0.06767711343169212,-0.026153262910246847,0.040001463259756564
1783244247148643300,6.078643310546875,-0.03524666994810104,-0.0061028469197452065,0.09237491683661937
1783244247158654200,6.088654296875,-0.11276070226132869,-0.009959814608842134,0.07576236634030938
1783244247168666000,6.098666015625,-0.1662117219418287,-0.0321713541559875,0.028798370591551065
1783244247178677000,6.108677001953125,-0.22838439273834227,-0.03666267422586679,-0.022233459118008614
1783244247188689200,6.118689208984375,-0.25736264994144437,-0.009680997667461633,-0.03783654031082988
1783244247198700300,6.1287001953125,-0.2637912216842174,0.021380641680955884,-0.06645180942043662
1783244247208711200,6.138711181640625,-0.2637222481012344,0.026764088284969328,-0.09481003502905368
1783244247218723000,6.14872314453125,-0.2381301262050867,0.04294087771251798,-0.10127250904142857
1783244247228734200,6.158734130859375,-0.1483791281312704,0.048544981329888104,-0.11479089291468263
1783244247238745000,6.1687451171875,-0.0388864877551794,0.04337386230230331,-0.13049217378497122
1783244247248757200,6.17875732421875,0.04371463856399059,0.043568508091568946,-0.12112900989502667
1783244247258768100,6.18876806640625,0.07855506579875945,0.023850392795354128,-0.07812003538236022
1783244247268780300,6.1987802734375,0.09316285234391689,0.016357991213351488,-0.009284545695781707
1783244247278791200,6.208791259765625,0.08992810820639133,0.03242269856855273,0.04067907026037573
1783244247288802000,6.218802001953125,0.08086158917546271,0.019085078089684248,0.0799156866274774
1783244247298814000,6.22881396484375,0.009196867412328719,0.04514584041088819,0.1307889647744596
1783244247308825300,6.238825439453125,-0.02983925794661045,0.06581847995296121,0.1145814879477024
1783244247318836200,6.248836181640625,-0.03766308344006538,0.022835370533913373,0.04266819825097918
1783244247328848100,6.25884814453125,-0.006735445734858512,-0.023264409600943326,-0.01697612311169505
1783244247338859000,6.26885888671875,0.07285305476486682,-0.012733809366822241,-0.05068140883669257
1783244247348871200,6.27887109375,0.11816869878470897,0.02340513324588537,-0.022693623975664375
1783244247358882300,6.28888232421875,0.1345885031878948,0.042121378023177385,0.0427405328348279
1783244247368893200,6.29889306640625,0.07356324886083603,0.008097966259717941,0.06636427726745606
1783244247378905000,6.308905029296875,-0.009415478599071502,-0.02713701325058937,0.0775076025724411
1783244247388916200,6.318916259765625,-0.1079454109340906,-0.04024959280192852,0.08524272686913609
1783244247398927000,6.328927001953125,-0.1696802748352289,-0.044321080024540424,0.06060191434845328
1783244247408939000,6.33893896484375,-0.21637305242717264,-0.06675473788976669,0.020760756216943264
1783244247418950100,6.3489501953125,-0.26910627922713753,-0.07268895024433732,-0.0017370529256761074
1783244247428962300,6.35896240234375,-0.2669341958850622,-0.052423722459375856,0.058297729059308766
1783244247438973200,6.36897314453125,-0.26279344281852246,-0.035665041490644214,0.05661050662472844
1783244247448984000,6.378984130859375,-0.24999065986871719,-0.012369213838130236,-0.057887979214638466
1783244247458996000,6.388995849609375,-0.18251111483573912,0.02880786907225847,-0.10124123712033033
1783244247469007400,6.39900732421875,-0.0609679711818695,0.03813523099645972,-0.11971870470568537
1783244247479018200,6.409018310546875,0.042727381092309946,0.01408653915002942,-0.16777955578044057
1783244247489030100,6.419030029296875,0.12202011351585387,0.03921133579537272,-0.11115034445524215
1783244247499041000,6.429041015625,0.1984896052122116,0.03736380823254585,-0.031487463545054196
1783244247509053200,6.43905322265625,0.1963233670890331,0.02944631310626864,0.012990852867811917
1783244247519064000,6.44906396484375,0.11620528975725174,0.030165567291527983,0.004665507593005895
1783244247529075200,6.4590751953125,0.027062778970599173,0.044768969922512766,-0.03383651088923215
1783244247539087000,6.469087158203125,-0.02019698485434055,0.06425298420190811,-0.05907967321723699
1783244247549098200,6.47909814453125,0.0006055646777153015,0.1124988364547491,-0.1114578029692173
1783244247559110100,6.489110107421875,-0.03916764278411865,0.10789704174771904,-0.14983078824430704
1783244247569121000,6.49912109375,-0.05196516503691673,0.12917232335805892,-0.17636837429702282
1783244247579132200,6.509132080078125,-0.07869009035527706,0.1575434084482491,-0.1757505346596241
1783244247589144300,6.519144287109375,-0.01681903285384178,0.17884777002260088,-0.14571516961902378
1783244247599155200,6.5291552734375,-0.012309446474909782,0.13104235501363873,-0.13875044517293572
1783244247609166000,6.539166015625,-0.024949147817492485,0.04400090815946459,-0.11738120166882872
1783244247619178000,6.549177978515625,-0.09811083014011382,-0.02342266890257597,-0.044826691459119314
1783244247629189400,6.559189453125,-0.10558686510920524,0.02688932209983468,0.02227934408634901
1783244247639201300,6.569201171875,-0.0940729529261589,0.028374153830111024,0.10389978880509733
1783244247649212400,6.57921240234375,-0.12080138537585734,-0.03203603733852505,0.11484320762380958
1783244247659223300,6.589223388671875,-0.11653554462492466,-0.07697554152235388,0.10084843841046094
1783244247669235500,6.5992353515625,-0.09775544083118438,-0.06741890088692307,0.132118898203969
1783244247679246300,6.609246337890625,-0.05302490322291851,-0.0256641642190516,0.12757044111937282
1783244247689257500,6.619257568359375,-0.05857435404360294,-0.03242109113335609,0.10173530424758791
1783244247699269600,6.62926953125,-0.06875088014304638,-0.05553396343439817,0.0725295218989253
1783244247709280500,6.639280517578125,-0.06330372065305709,-0.08330079902112483,0.09222937088608742
1783244247719292400,6.64929248046875,-0.10100012184083461,-0.08933481848835945,0.1137120116367936
1783244247729303300,6.65930322265625,-0.08146306219995021,-0.07030965389236807,0.11723507119640707
1783244247739314400,6.669314453125,-0.017571897047758103,-0.024925913072377442,0.15124211634695528
1783244247749326600,6.67932666015625,0.06557751080393791,-0.0317170345172286,0.15123860921561716
1783244247759337500,6.68933740234375,0.12367957116067409,-0.05946618831679225,0.14715776964277028
1783244247769349400,6.699349365234375,0.18219839562475681,-0.11540756350830196,0.11775324985161423
1783244247779360500,6.709360595703125,0.15381927335858345,-0.16125059240311385,0.06265928526967764
1783244247789371400,6.719371337890625,0.13329437172412872,-0.10608663132488727,0.05431070524975657
1783244247799383300,6.72938330078125,0.0930056159555912,-0.014735212317109107,0.05694821414649486
1783244247809394400,6.73939453125,0.06228957517445087,0.010728753154724836,0.05173793215230107
1783244247819405300,6.7494052734375,0.02968845129907131,-0.051655514565855265,0.032459231186658145
1783244247829417500,6.75941748046875,-0.07669628618955612,-0.0817782656289637,-0.009807985047996043
1783244247839428400,6.769428466796875,-0.1908943277776241,-0.05928001809492707,-0.02260010047331452
1783244247849440300,6.779440185546875,-0.27730712133944035,-0.03263999458104372,-0.034546704985201356
1783244247859451600,6.78945166015625,-0.29185470212996006,-0.0003054126873612404,-0.07021715330332517
1783244247869462500,6.799462646484375,-0.24861878699362278,0.03268047272190452,-0.09498626837879419
1783244247879474400,6.809474365234375,-0.17104513344764707,0.040369858180731535,-0.12267653159797191
1783244247889485300,6.8194853515625,-0.07832534869611263,0.06570581335872411,-0.13489464652761815
1783244247899496200,6.82949609375,-0.026273674419522285,0.0684884298145771,-0.14276874090358613
1783244247909508400,6.83950830078125,-0.03071370269358158,0.02665054490789771,-0.14589067231640218
1783244247919519500,6.84951953125,-0.04534077846109867,0.01942892309129238,-0.10488441592827438
1783244247929531400,6.859531494140625,0.003949029886722564,0.04390431591719389,-0.05881444640979171
1783244247939542500,6.86954248046875,0.03242109113335609,0.07379954183474183,-0.04448723037168383
1783244247949553400,6.879553466796875,0.0686234543710947,0.04506166925877332,-0.029262042580544947
1783244247959565300,6.8895654296875,0.1028261682242155,-0.014242898755520582,-0.01889525460600853
1783244247969576400,6.899576416015625,0.06760930889248848,-0.04445537392869591,-0.03757262867763638
1783244247979588600,6.909588623046875,0.04231646220386028,0.0017472820587456225,-0.04574044530317187
1783244247989599500,6.919599609375,0.032004327026009555,0.040859249132871624,0.00492956535667181
1783244247999610400,6.9296103515625,0.03232581406533718,0.016270166799426077,0.003798077108711004
1783244248009622300,6.939622314453125,0.01840893239378929,-0.024753625245392322,-0.046184828069806096
1783244248019633400,6.94963330078125,0.017009586989879606,-0.025640929473936556,-0.041166123124957085
1783244248029644500,6.95964453125,0.0032902737170457837,-0.023612492386251686,0.02332344631180167
1783244248039656400,6.969656494140625,0.012313538128137588,-0.034373248114436865,0.09963190222755074
1783244248049667300,6.979667236328125,-0.013643909949064253,-0.05181961908638477,0.09876622530892491
1783244248059679500,6.989679443359375,-0.03666822718381881,-0.02691591784581542,0.055243894446641205
1783244248069690400,6.9996904296875,-0.07673369559049606,-0.03325476547852158,0.04342003953158855
1783244248079701500,7.009701416015625,-0.1656979272007942,-0.0627947482176125,0.023648732743412254
1783244248089713400,7.01971337890625,-0.1776326951444149,-0.07171119125336409,0.003932224882394075
1783244248099724500,7.029724609375,-0.14356266776025295,-0.012362345705926418,-0.032909605302661654
1783244248109735400,7.0397353515625,-0.08322714926302432,0.030488515635579822,0.001728138966858387
1783244248119747300,7.049747314453125,-0.033736265385150906,0.04878448917418718,0.011339578529447317
1783244248129758500,7.059758544921875,-0.07453706232905387,-0.014180939435213804,-0.034311142663657666
1783244248139770600,7.0697705078125,-0.08106208018362522,0.030897242566943168,-0.0816236595891416
1783244248149781500,7.079781494140625,-0.00568681346476078,0.14008052473291754,-0.0080180328913033
1783244248159792400,7.08979248046875,-0.00064005146920681,0.08565715288892388,0.017187866166234016
1783244248169804300,7.09980419921875,-0.061576458469033236,-0.043244829095155,-0.026627017901837823
1783244248179815400,7.1098154296875,0.027382512444257736,-0.08895210278108716,-0.13135434357225895
1783244248189827300,7.119827392578125,0.18951017994284627,-0.011208353365212679,-0.05778159623071551
1783244248199838500,7.12983837890625,0.26422084527313705,0.11037205355912447,0.05806070543304086
1783244248209849300,7.139849365234375,0.22626666993200778,0.14352087444514036,0.044493952373415226
1783244248219861500,7.149861572265625,0.14139642963707447,0.07942688019722699,-0.02793605467379093
1783244248229872400,7.159872314453125,0.028065234011411665,-0.00899812996983528,-0.018369331035763024
1783244248239883500,7.169883544921875,0.021291794353723525,-0.009114011434465646,0.02875467758029699
1783244248249895400,7.1798955078125,0.0026420389413833617,0.04622077616602182,0.07016308502852917
1783244248259906600,7.189906494140625,-0.07616320222616195,0.1671627390563488,0.06585311287492514
1783244248269918500,7.19991845703125,-0.18460545676648615,0.14444295772612095,0.03099237350448966
