time,seconds_elapsed,z,y,x
1783244266915596300,0.05459619140625,-0.016597233712673187,-0.08133392035961151,0.02425043284893036
1783244266925608200,0.064608154296875,-0.03683752194046974,-0.12406913936138153,-0.08991208672523499
1783244266935620400,0.074620361328125,-0.04406178742647171,-0.14194872975349426,-0.1479831486940384
1783244266945631200,0.08463134765625,-0.04695424437522888,-0.10609804838895798,-0.14673678576946259
1783244266955643100,0.09464306640625,-0.05369909852743149,-0.03937116637825966,-0.09923957288265228
1783244266965655000,0.104655029296875,-0.05594281107187271,0.025506898760795593,-0.026519298553466797
1783244266975667200,0.114667236328125,-0.06245581805706024,0.06559976935386658,0.037327975034713745
1783244266985678000,0.124677978515625,-0.07595004886388779,0.08506561815738678,0.07713664323091507
1783244266995690000,0.13468994140625,-0.08686671406030655,0.08009741455316544,0.08832379430532455
1783244267005702100,0.1447021484375,-0.08464883267879486,0.059867773205041885,0.08956003934144974
1783244267015714000,0.154714111328125,-0.08395033329725266,0.013424845412373543,0.07531407475471497
1783244267025725200,0.16472509765625,-0.08855227380990982,-0.016120797023177147,0.048303764313459396
1783244267035737300,0.1747373046875,-0.10796042531728745,-0.036874622106552124,0.01617380604147911
1783244267045749200,0.184749267578125,-0.1262400895357132,-0.034525446593761444,-0.007868943735957146
1783244267055761200,0.19476123046875,-0.139461949467659,-0.011803420260548592,-0.014921445399522781
1783244267065772300,0.204772216796875,-0.14641332626342773,0.019238386303186417,-0.005352973472326994
1783244267075784200,0.2147841796875,-0.14653368294239044,0.046185098588466644,0.019946113228797913
1783244267085796000,0.224796142578125,-0.13186392188072205,0.04874732345342636,0.050476592034101486
1783244267095808300,0.234808349609375,-0.11677955090999603,0.029964039102196693,0.07341566681861877
1783244267105819100,0.244819091796875,-0.11501441150903702,0.005235256627202034,0.08604784309864044
1783244267115831000,0.2548310546875,-0.11961320787668228,-0.0006629098206758499,0.08091548085212708
1783244267125843200,0.26484326171875,-0.11577266454696655,0.012551695108413696,0.0680321678519249
1783244267135855000,0.274855224609375,-0.09977540373802185,0.024523289874196053,0.05508330836892128
1783244267145866200,0.2848662109375,-0.08801542222499847,0.04067935794591904,0.04075124114751816
1783244267155878400,0.29487841796875,-0.0862370952963829,0.05528072640299797,0.022557316347956657
1783244267165890300,0.304890380859375,-0.08950798958539963,0.05174298584461212,0.010635942220687866
1783244267175902200,0.314902099609375,-0.08623959869146347,0.053182680159807205,-0.00548457819968462
1783244267185913000,0.3249130859375,-0.07580666244029999,0.0664561465382576,-0.014294048771262169
1783244267195925200,0.33492529296875,-0.05644020065665245,0.07771425694227219,-0.019938910380005836
1783244267205937200,0.344937255859375,-0.03482811525464058,0.08775784075260162,-0.01899215765297413
1783244267215949300,0.35494921875,-0.009097518399357796,0.09203510731458664,-0.009372950531542301
1783244267225960200,0.364960205078125,0.01076167356222868,0.05406402423977852,0.010065728798508644
1783244267235972000,0.37497216796875,0.031818687915802,0.006633098237216473,0.01886947825551033
1783244267245984300,0.384984375,0.03998447209596634,-0.014491627924144268,0.023751582950353622
1783244267255996200,0.39499609375,0.039369698613882065,-0.023704959079623222,0.022930163890123367
1783244267266007300,0.40500732421875,0.027884550392627716,-0.007142495363950729,0.023597020655870438
1783244267276019200,0.415019287109375,0.014523073099553585,0.030397213995456696,0.020133040845394135
1783244267286031400,0.42503125,0.005700020119547844,0.049897681921720505,0.012263134121894836
1783244267296043300,0.435043212890625,-0.00038714194670319557,0.05070945620536804,0.0010675881057977676
1783244267306054100,0.44505419921875,0.0011393819004297256,0.03882376849651337,-0.001311680069193244
1783244267316066300,0.45506640625,0.014906767755746841,0.011493268422782421,0.00577527517452836
1783244267326078200,0.465078125,0.03891117125749588,-0.02192993462085724,0.02031853049993515
1783244267336090000,0.475090087890625,0.05524959787726402,-0.029543407261371613,0.024129651486873627
1783244267346101200,0.485101318359375,0.052662335336208344,-0.0214037224650383,0.02499544620513916
1783244267356113200,0.495113037109375,0.032849863171577454,-0.0047034453600645065,0.015993796288967133
1783244267366125000,0.505125,0.01366391871124506,0.0210352074354887,0.003793589770793915
1783244267376137200,0.51513720703125,-0.0035783699713647366,0.03002961538732052,0.0034005451016128063
1783244267386148000,0.525148193359375,-0.006692138034850359,0.03075426258146763,0.007046945858746767
1783244267396160000,0.535159912109375,0.00044802529737353325,0.02222881279885769,0.013813477009534836
1783244267406172200,0.545172119140625,0.006719237193465233,0.0076674483716487885,0.02316064015030861
1783244267416184000,0.55518408203125,0.015664303675293922,-0.014667699113488197,0.03583890199661255
1783244267426195200,0.5651953125,0.021292895078659058,-0.03501131758093834,0.04668489098548889
1783244267436207400,0.575207275390625,0.023019544780254364,-0.03721644729375839,0.052083972841501236
1783244267446219300,0.58521923828125,0.009166580624878407,-0.015394502319395542,0.046841539442539215
1783244267456231200,0.595231201171875,-0.0025083832442760468,0.004460455384105444,0.04146154969930649
1783244267466242300,0.6052421875,-0.005694323219358921,0.001774657517671585,0.04197634011507034
1783244267476254200,0.615254150390625,-0.00001742248423397541,-0.008288998156785965,0.04648309946060181
1783244267486266000,0.62526611328125,-0.0003132997080683708,-0.02282612957060337,0.050693824887275696
1783244267496278300,0.6352783203125,-0.008485348895192146,-0.036539722234010696,0.052366867661476135
1783244267506289200,0.6452890625,-0.01446068286895752,-0.04247085005044937,0.05648437887430191
1783244267516301000,0.655301025390625,-0.010577911511063576,-0.030166106298565865,0.05724833905696869
1783244267526313200,0.665313232421875,-0.009705726057291031,0.008842014707624912,0.046702753752470016
1783244267536325000,0.6753251953125,-0.010382634587585926,0.06112495809793472,0.022701676934957504
1783244267546336300,0.685336181640625,-0.0020219064317643642,0.07664079964160919,-0.004380806814879179
1783244267556348200,0.69534814453125,0.0021995031274855137,0.05691531300544739,-0.02566498890519142
1783244267566360300,0.7053603515625,0.00598492007702589,0.027787255123257637,-0.040620505809783936
1783244267576372200,0.715372314453125,0.0077645424753427505,0.0038536209613084793,-0.04397694393992424
1783244267586383000,0.725383056640625,0.009220758453011513,-0.02321314997971058,-0.034321919083595276
1783244267596395300,0.735395263671875,0.004526182077825069,-0.049546778202056885,-0.008473003283143044
1783244267606407200,0.7454072265625,0.004276377614587545,-0.0540672242641449,0.023656439036130905
1783244267616419300,0.75541943359375,0.004291233140975237,-0.0197087824344635,0.04855094850063324
1783244267626430200,0.76543017578125,0.005557299591600895,0.013254494406282902,0.06423111259937286
1783244267636442000,0.775442138671875,0.0003802685532718897,0.028471529483795166,0.06319074332714081
1783244267646455000,0.785455078125,-0.016182996332645416,0.023670649155974388,0.0488235242664814
1783244267656467000,0.795467041015625,-0.026821456849575043,0.01977553218603134,0.0233294740319252
1783244267666477800,0.805477783203125,-0.028558902442455292,0.007533779367804527,0.000991943757981062
1783244267676490000,0.815489990234375,-0.027911469340324402,-0.0067893024533987045,-0.011388399638235569
1783244267686502000,0.825501953125,-0.0271865576505661,-0.01777803711593151,-0.014955970458686352
1783244267696513800,0.835513671875,-0.0284789577126503,-0.011659940704703331,-0.009560605511069298
1783244267706525000,0.84552490234375,-0.023453038185834885,0.009633629582822323,-0.0015005487948656082
1783244267716537000,0.855537109375,-0.01929875649511814,0.009163128212094307,0.020835284143686295
1783244267726549000,0.865549072265625,-0.027741244062781334,0.0014711199328303337,0.0452338345348835
1783244267736561200,0.87556103515625,-0.034999798983335495,-0.010364391840994358,0.06182491034269333
1783244267746572000,0.885572021484375,-0.037217676639556885,-0.028967104852199554,0.07044503092765808
1783244267756584000,0.895583984375,-0.033410314470529556,-0.02961808815598488,0.07074186205863953
1783244267766595800,0.905595947265625,-0.02542935311794281,-0.023121042177081108,0.06406211853027344
1783244267776608000,0.91560791015625,-0.013368146494030952,-0.011841285973787308,0.05100081115961075
1783244267786619000,0.925618896484375,0.0031027046497911215,0.018330730497837067,0.037311896681785583
1783244267796630800,0.935630859375,0.02190467342734337,0.025651853531599045,0.027362292632460594
1783244267806643000,0.945642822265625,0.04581799358129501,0.015902286395430565,0.02619795873761177
1783244267816654800,0.95565478515625,0.06981063634157181,-0.00614493852481246,0.034859877079725266
1783244267826666000,0.965666015625,0.07941453158855438,-0.0398017019033432,0.046105608344078064
1783244267836678100,0.97567822265625,0.06499515473842621,-0.059983424842357635,0.0624781958758831
1783244267846690000,0.98568994140625,0.031502969563007355,-0.03912821039557457,0.07491942495107651
1783244267856702000,0.995701904296875,-0.006726439110934734,0.025246785953640938,0.07998715341091156
1783244267866713000,1.005713134765625,-0.029993679374456406,0.07816539704799652,0.09288724511861801
1783244267876725000,1.01572509765625,-0.02602459490299225,0.09434881061315536,0.09799599647521973
1783244267886737000,1.02573681640625,0.0005955644883215427,0.10210660099983215,0.08600883930921555
1783244267896749000,1.0357490234375,0.042459115386009216,0.09299090504646301,0.05658149719238281
1783244267906760000,1.045760009765625,0.09491167217493057,0.057677920907735825,0.018209077417850494
1783244267916771800,1.055771728515625,0.1460825502872467,0.009309714660048485,-0.013834508135914803
1783244267926784000,1.065783935546875,0.18691840767860413,-0.048755452036857605,-0.033892638981342316
1783244267936796000,1.0757958984375,0.19507692754268646,-0.08964547514915466,-0.03654198721051216
1783244267946806800,1.085806884765625,0.18136483430862427,-0.1098407581448555,-0.019540898501873016
1783244267956819000,1.09581884765625,0.16030524671077728,-0.11142826080322266,0.015812432393431664
1783244267966830800,1.105830810546875,0.13501374423503876,-0.10165605694055557,0.059028077870607376
1783244267976843000,1.115843017578125,0.11070884764194489,-0.09045930206775665,0.0956105887889862
1783244267986854000,1.12585400390625,0.08878970146179199,-0.06753614544868469,0.11310702562332153
1783244267996866000,1.135865966796875,0.07840946316719055,-0.056590333580970764,0.11318306624889374
1783244268006878000,1.1458779296875,0.08224734663963318,-0.059488918632268906,0.08765295147895813
1783244268016890000,1.15589013671875,0.08857975155115128,-0.06686631590127945,0.0492691732943058
1783244268026901000,1.16590087890625,0.09286157786846161,-0.08296485245227814,0.0068343630991876125
1783244268036913000,1.175912841796875,0.09021224081516266,-0.10419803112745285,-0.02915225550532341
1783244268046925000,1.185925048828125,0.07677526772022247,-0.119906947016716,-0.05778656527400017
1783244268056937000,1.19593701171875,0.05834798514842987,-0.10375369340181351,-0.07637312263250351
1783244268066947800,1.20594775390625,0.029664674773812294,-0.09259877353906631,-0.0709269568324089
1783244268076959700,1.215959716796875,-0.009304163977503777,-0.0809796154499054,-0.05512616038322449
1783244268086972000,1.225971923828125,-0.0516446977853775,-0.058039404451847076,-0.031457848846912384
1783244268096983800,1.23598388671875,-0.09051806479692459,-0.03703822195529938,-0.012320056557655334
1783244268106995000,1.245994873046875,-0.12378467619419098,-0.02164515107870102,0.002431458793580532
1783244268117007000,1.256007080078125,-0.15865950286388397,0.005953599698841572,0.005551441106945276
1783244268127019000,1.26601904296875,-0.19248084723949432,0.04092942550778389,-0.003152834717184305
1783244268137031000,1.276031005859375,-0.22224128246307373,0.06622874736785889,-0.022333141416311264
1783244268147042000,1.2860419921875,-0.24312365055084229,0.07910273969173431,-0.04963400214910507
1783244268157054000,1.296053955078125,-0.25586220622062683,0.07220908999443054,-0.07515373826026917
1783244268167065900,1.30606591796875,-0.2602689564228058,0.06818026304244995,-0.09503769874572754
1783244268177078000,1.316078125,-0.2541949152946472,0.06887362897396088,-0.09916536509990692
1783244268187089000,1.3260888671875,-0.2509264051914215,0.06208310276269913,-0.09181477129459381
1783244268197100800,1.336100830078125,-0.25924888253211975,0.07364362478256226,-0.07681009918451309
1783244268207113000,1.346113037109375,-0.28574681282043457,0.08247359842061996,-0.056122127920389175
1783244268217124900,1.356124755859375,-0.31646639108657837,0.08498794585466385,-0.020259372889995575
1783244268227136000,1.366135986328125,-0.34140077233314514,0.08438926935195923,0.017453651875257492
1783244268237148200,1.376148193359375,-0.3543764650821686,0.08401667326688766,0.05378717556595802
1783244268247160000,1.38616015625,-0.3558585047721863,0.09143970161676407,0.08367450535297394
1783244268257172000,1.396171875,-0.3366878628730774,0.0964757576584816,0.10414080321788788
1783244268267183000,1.40618310546875,-0.2994920015335083,0.10853215306997299,0.1071014404296875
1783244268277195000,1.416195068359375,-0.2591990828514099,0.12562090158462524,0.08894233405590057
1783244268287207000,1.42620703125,-0.22103093564510345,0.12567655742168427,0.0508844330906868
1783244268297219000,1.436218994140625,-0.18085438013076782,0.11980730295181274,-0.003878168296068907
1783244268307230000,1.44622998046875,-0.14000096917152405,0.11274699866771698,-0.06708750128746033
1783244268317241900,1.456241943359375,-0.09876152873039246,0.10713157802820206,-0.12142360210418701
1783244268327254000,1.46625390625,-0.06575670838356018,0.1169770136475563,-0.16602569818496704
1783244268337266000,1.476265869140625,-0.04998823627829552,0.14982706308364868,-0.194291353225708
1783244268347277800,1.48627783203125,-0.05181330069899559,0.1930360645055771,-0.19795720279216766
1783244268357289000,1.4962890625,-0.04969849810004234,0.2058607041835785,-0.17398491501808167
1783244268367300900,1.50630078125,-0.032738689333200455,0.18217214941978455,-0.13533446192741394
1783244268377313000,1.51631298828125,-0.0035779918543994427,0.15046627819538116,-0.10435507446527481
1783244268387324000,1.526323974609375,0.029422037303447723,0.1277199536561966,-0.09670887142419815
1783244268397336000,1.536336181640625,0.05315473675727844,0.11112627387046814,-0.11125098168849945
1783244268407348000,1.546347900390625,0.07443925738334656,0.09661577641963959,-0.13274109363555908
1783244268417360100,1.556360107421875,0.07852009683847427,0.08738909661769867,-0.15141062438488007
1783244268427372000,1.5663720703125,0.06717929244041443,0.07528556883335114,-0.1479213535785675
1783244268437383000,1.5763828125,0.05248517543077469,0.04150993004441261,-0.10866373032331467
1783244268447394800,1.586394775390625,0.050413768738508224,-0.01674778014421463,-0.037235356867313385
1783244268457407000,1.596406982421875,0.0647878348827362,-0.06586883217096329,0.035597532987594604
1783244268467419000,1.6064189453125,0.07003159821033478,-0.07199570536613464,0.09224403649568558
1783244268477429800,1.6164296875,0.059341900050640106,-0.05198605731129646,0.11793122440576553
1783244268487442000,1.62644189453125,0.049976896494627,0.0034343255683779716,0.10585884749889374
1783244268497453800,1.636453857421875,0.04209879785776138,0.0677528902888298,0.05920252948999405
1783244268507465700,1.6464658203125,0.03848941624164581,0.11147426813840866,-0.00439322367310524
1783244268517477000,1.65647705078125,0.03491874039173126,0.12897929549217224,-0.0723389983177185
1783244268527489000,1.666489013671875,0.043846458196640015,0.10251840949058533,-0.12430233508348465
1783244268537501000,1.6765009765625,0.0608406588435173,0.03160708025097847,-0.1441228836774826
1783244268547513000,1.68651318359375,0.08674736320972443,-0.049768734723329544,-0.1284075677394867
1783244268557524000,1.69652392578125,0.112347312271595,-0.1054333820939064,-0.07889945060014725
1783244268567535900,1.706535888671875,0.1284940540790558,-0.12446273863315582,-0.011866887100040913
1783244268577548000,1.716548095703125,0.12975728511810303,-0.09851281344890594,0.04795355349779129
1783244268587560000,1.726559814453125,0.11163288354873657,-0.0347045436501503,0.07405360043048859
1783244268597570800,1.73657080078125,0.07722587138414383,0.03908364847302437,0.0583302304148674
1783244268607583000,1.7465830078125,0.03919033706188202,0.08674170821905136,0.012433841824531555
1783244268617595000,1.756594970703125,0.013437758199870586,0.08759526163339615,-0.04019615426659584
1783244268627606800,1.766606689453125,-0.0019981893710792065,0.072913259267807,-0.07924502342939377
1783244268637618200,1.7766181640625,-0.0034779105335474014,0.04179392755031586,-0.09263339638710022
1783244268647634400,1.786634521484375,0.013693353161215782,0.008599488995969296,-0.07686375081539154
1783244268657646300,1.796646240234375,0.048711054027080536,-0.014539742842316628,-0.04122169688344002
1783244268667658500,1.806658447265625,0.08262614160776138,-0.027504010125994682,-0.0026964074932038784
1783244268677669600,1.816669677734375,0.10773041844367981,-0.04316123574972153,0.02503354102373123
1783244268687681500,1.826681640625,0.11269614845514297,-0.05587729811668396,0.03602094575762749
1783244268697693400,1.836693359375,0.1024034321308136,-0.053395289927721024,0.03575810045003891
1783244268707705600,1.84670556640625,0.08857443183660507,-0.048457786440849304,0.02864452823996544
1783244268717716500,1.856716552734375,0.07391119748353958,-0.05068516358733177,0.02160344272851944
1783244268727728400,1.866728271484375,0.06145133078098297,-0.04869338870048523,0.022666309028863907
1783244268737740500,1.876740478515625,0.056712932884693146,-0.042390938848257065,0.02778710052371025
1783244268747752400,1.88675244140625,0.05221538990736008,-0.042151786386966705,0.0403476320207119
1783244268757763300,1.896763427734375,0.0445173978805542,-0.04190048202872276,0.052476681768894196
1783244268767775500,1.906775390625,0.04006192833185196,-0.039269279688596725,0.06141531467437744
1783244268777787400,1.916787353515625,0.03337862715125084,-0.03243538364768028,0.06265109777450562
1783244268787799300,1.92679931640625,0.01545155793428421,-0.021539859473705292,0.0631411075592041
1783244268797810400,1.936810546875,0.009547306224703789,-0.0186956524848938,0.06711416691541672
1783244268807822600,1.946822509765625,0.008454611524939537,-0.0030381297692656517,0.07154353708028793
1783244268817834500,1.95683447265625,0.014398794621229172,-0.01176933478564024,0.08037185668945312
1783244268827846400,1.966846435546875,0.005467617884278297,-0.006964459083974361,0.08149385452270508
1783244268837857500,1.976857421875,-0.008609268814325333,0.008306998759508133,0.06511431187391281
1783244268847869400,1.986869384765625,-0.0268963985145092,0.021458221599459648,0.041805531829595566
1783244268857881600,1.996881591796875,-0.04307835176587105,0.033844783902168274,0.01535110268741846
1783244268867893500,2.0068935546875,-0.053420208394527435,0.0011044172570109367,0.0028217295184731483
1783244268877904400,2.016904296875,-0.043988414108753204,-0.03594861179590225,0.009068755432963371
1783244268887916500,2.02691650390625,-0.013097073882818222,-0.07802975177764893,0.0320449098944664
1783244268897928400,2.036928466796875,0.027229538187384605,-0.10531371086835861,0.06595437973737717
1783244268907940400,2.0469404296875,0.07332059741020203,-0.1226855143904686,0.0957290530204773
1783244268917951200,2.056951171875,0.11592508852481842,-0.13799041509628296,0.11411291360855103
1783244268927963400,2.06696337890625,0.14582732319831848,-0.13278552889823914,0.10790988057851791
1783244268937975300,2.076975341796875,0.16246537864208221,-0.12531358003616333,0.07795099914073944
1783244268947987500,2.086987548828125,0.16705267131328583,-0.13087958097457886,0.040011875331401825
1783244268957998600,2.09699853515625,0.16506952047348022,-0.12889401614665985,0.0017759599722921848
1783244268968010500,2.107010498046875,0.158623605966568,-0.11475610733032227,-0.030839506536722183
1783244268978022400,2.1170224609375,0.15071633458137512,-0.09637165069580078,-0.050565894693136215
1783244268988034600,2.12703466796875,0.13707242906093597,-0.06683506071567535,-0.05547649785876274
1783244268998045400,2.13704541015625,0.11523790657520294,-0.036144059151411057,-0.0527445450425148
1783244269008057300,2.147057373046875,0.0929403230547905,-0.014396418817341328,-0.04770238324999809
1783244269018069500,2.157069580078125,0.07011619955301285,-0.001006558770313859,-0.04595935717225075
1783244269028081400,2.167081298828125,0.048545386642217636,-0.0005575497634708881,-0.0459284633398056
1783244269038092300,2.17709228515625,0.02929076738655567,-0.0011146690230816603,-0.05129732936620712
1783244269048104400,2.1871044921875,0.01748364232480526,0.0033197603188455105,-0.04712149500846863
1783244269058116400,2.197116455078125,0.0093874242156744,0.00233072554692626,-0.03437941521406174
1783244269068128300,2.207128173828125,0.010866544209420681,-0.005193503573536873,-0.017630264163017273
1783244269078139600,2.2171396484375,0.007881831377744675,-0.013091265223920345,-0.0020149718038737774
1783244269088151600,2.227151611328125,0.002421019831672311,-0.0018905424512922764,0.004553182516247034
1783244269098163500,2.23716357421875,0.0005437240470200777,0.01063695177435875,0.008299650624394417
1783244269108175600,2.247175537109375,0.004046579822897911,0.003467721864581108,0.009968919679522514
1783244269118186500,2.2571865234375,0.00864354521036148,-0.016485635191202164,0.013708565384149551
1783244269128198400,2.267198486328125,0.007031800225377083,-0.04566029831767082,0.02002132125198841
1783244269138210600,2.27721044921875,0.01142793893814087,-0.057443924248218536,0.029407551512122154
1783244269148222500,2.287222412109375,0.017962537705898285,-0.05321322754025459,0.03794511407613754
1783244269158233300,2.2972333984375,0.0317862406373024,-0.02897631749510765,0.03978116065263748
1783244269168245500,2.30724560546875,0.04564719647169113,0.0019690829794853926,0.03441249579191208
1783244269178257400,2.31725732421875,0.0460096150636673,0.029522931203246117,0.00744978804141283
1783244269188269300,2.327269287109375,0.03272496908903122,0.04892166331410408,-0.030151115730404854
1783244269198280400,2.337280517578125,0.008555129170417786,0.040194153785705566,-0.061667945235967636
1783244269208292600,2.347292724609375,-0.010729353874921799,0.014018743298947811,-0.07684183865785599
1783244269218304500,2.357304443359375,-0.02154017612338066,0.0002297817263752222,-0.06749183684587479
1783244269228316700,2.367316650390625,-0.022633936256170273,-0.0007095152977854013,-0.04142775014042854
1783244269238327600,2.37732763671875,-0.02787024900317192,0.004788195714354515,-0.008517429232597351
1783244269248339500,2.38733935546875,-0.041550107300281525,0.016633668914437294,0.017694734036922455
1783244269258351600,2.3973515625,-0.05819036066532135,0.011606374755501747,0.03956476226449013
1783244269268363500,2.407363525390625,-0.07159192115068436,0.00010844273492693901,0.05132927745580673
1783244269278374400,2.41737451171875,-0.08105500042438507,0.0002857767976820469,0.05000155791640282
1783244269288386300,2.42738623046875,-0.08173251152038574,-0.009315983392298222,0.048367176204919815
1783244269298398500,2.4373984375,-0.07690902054309845,-0.03605470061302185,0.04262155666947365
1783244269308410400,2.447410400390625,-0.062491726130247116,-0.0515870526432991,0.03769497200846672
1783244269318421200,2.457421142578125,-0.05062447860836983,-0.04552280157804489,0.028783636167645454
1783244269328433400,2.467433349609375,-0.040446676313877106,-0.02512405440211296,0.013193227350711823
1783244269338445300,2.4774453125,-0.0374554805457592,0.0003112367121502757,-0.007026154547929764
1783244269348457200,2.487457275390625,-0.0378299206495285,0.015864362940192223,-0.02703421749174595
1783244269358468600,2.497468505859375,-0.034974355250597,0.021221403032541275,-0.04576418176293373
1783244269368480500,2.50748046875,-0.02908131293952465,0.012170117348432541,-0.06264835596084595
1783244269378492400,2.517492431640625,-0.01714879646897316,-0.00823780708014965,-0.06827296316623688
1783244269388504600,2.527504638671875,0.0015047823544591665,-0.032929837703704834,-0.06144622340798378
1783244269398515500,2.537515380859375,0.014338365755975246,-0.035306040197610855,-0.05605803430080414
1783244269408527400,2.54752734375,0.02167484164237976,-0.016270563006401062,-0.05605883151292801
1783244269418539500,2.55753955078125,0.01790519990026951,0.00996468961238861,-0.06263881921768188
1783244269428551400,2.567551513671875,0.004360629245638847,0.026970570906996727,-0.0753847062587738
1783244269438562300,2.577562255859375,-0.010012638755142689,0.03412966802716255,-0.0911761224269867
1783244269448574500,2.587574462890625,-0.019821859896183014,0.03423086926341057,-0.0987810418009758
1783244269458586400,2.59758642578125,-0.027488499879837036,0.024966293945908546,-0.10170799493789673
1783244269468598300,2.607598388671875,-0.03762449324131012,0.014041740447282791,-0.08821721374988556
1783244269478609700,2.617609619140625,-0.053073231130838394,0.010320005007088184,-0.06818060576915741
1783244269488621600,2.62762158203125,-0.07281950861215591,0.012450267560780048,-0.037081278860569
1783244269498633500,2.637633544921875,-0.09138821065425873,0.010920170694589615,0.0020538396202027798
1783244269508645600,2.647645751953125,-0.10159877687692642,-0.002104551298543811,0.0446055606007576
1783244269518656500,2.657656494140625,-0.09639834612607956,-0.03522438555955887,0.08739763498306274
1783244269528668400,2.66766845703125,-0.07678177207708359,-0.06232471764087677,0.1221710667014122
1783244269538680600,2.6776806640625,-0.050058647990226746,-0.037556301802396774,0.13379529118537903
1783244269548692500,2.6876923828125,-0.02789182774722576,0.00033835158683359623,0.13197767734527588
1783244269558703400,2.697703369140625,-0.01215214841067791,0.005134768784046173,0.09962613135576248
1783244269568715300,2.70771533203125,-0.006150448229163885,0.02370605617761612,0.05349406227469444
1783244269578727400,2.7177275390625,0.008636785671114922,-0.0004108354914933443,0.010733089409768581
1783244269588739300,2.7277392578125,0.0310177244246006,-0.04079394415020943,-0.01843864470720291
1783244269598751500,2.73775146484375,0.048201631754636765,-0.05576401948928833,-0.029975945129990578
1783244269608762600,2.7477626953125,0.061080943793058395,-0.05563858151435852,-0.02391192875802517
1783244269618774500,2.7577744140625,0.06912293285131454,-0.03401186689734459,-0.010953505523502827
1783244269628786700,2.76778662109375,0.06992214918136597,0.004492114298045635,0.0014493679627776146
1783244269638797600,2.777797607421875,0.06323371827602386,0.03693414106965065,0.0046698711812496185
1783244269648804600,2.7878046875,0.052035391330718994,0.04649302363395691,-0.0018138610757887363
1783244269658816500,2.79781640625,0.040196921676397324,0.03210221603512764,-0.013755702413618565
1783244269668828700,2.80782861328125,0.03056320548057556,-0.0037580467760562897,-0.023849882185459137
1783244269678840600,2.817840576171875,0.029752708971500397,-0.04741944372653961,-0.021237269043922424
1783244269688851700,2.827851806640625,0.036433517932891846,-0.0753789097070694,-0.007285499479621649
1783244269698863600,2.837863525390625,0.03700036555528641,-0.07424859702587128,0.0147769246250391
1783244269708875800,2.847875732421875,0.03131505101919174,-0.05951625481247902,0.03985831141471863
1783244269718887700,2.8578876953125,0.023888951167464256,-0.041807062923908234,0.05733296275138855
1783244269728898600,2.867898681640625,0.01019630953669548,-0.02408159337937832,0.06388566642999649
1783244269738910700,2.87791064453125,-0.011054467409849167,-0.011219704523682594,0.057745181024074554
1783244269748922600,2.887922607421875,-0.030356260016560555,-0.0070246923714876175,0.05016130208969116
1783244269758934500,2.8979345703125,-0.035193294286727905,-0.010380778461694717,0.04194264858961105
1783244269768945700,2.907945556640625,-0.03359246253967285,-0.02236340567469597,0.040506139397621155
1783244269778957600,2.91795751953125,-0.02728491649031639,-0.036173246800899506,0.040780775249004364
1783244269788969500,2.927969482421875,-0.016054630279541016,-0.04559923708438873,0.04219917580485344
1783244269798981600,2.937981689453125,0.0015852194046601653,-0.05543264374136925,0.02501698210835457
1783244269808992500,2.947992431640625,0.004781545139849186,-0.04652543365955353,-0.01342654787003994
1783244269819004400,2.95800439453125,0.019757356494665146,-0.010592403821647167,-0.04123775660991669
1783244269829016600,2.9680166015625,0.025906862691044807,-0.01840478740632534,-0.04949808120727539
1783244269839028500,2.978028564453125,0.023114638403058052,0.01782170683145523,-0.05339542403817177
1783244269849039600,2.98803955078125,0.012856142595410347,0.051963962614536285,-0.05907141789793968
1783244269859051800,2.9980517578125,-0.004438875243067741,0.0595916323363781,-0.05486811697483063
1783244269869063700,3.008063720703125,-0.01971982792019844,0.06322045624256134,-0.04857479780912399
1783244269879075600,3.01807568359375,-0.030159860849380493,0.05660870298743248,-0.03243312984704971
1783244269889086700,3.028086669921875,-0.03988412767648697,0.028481727465987206,-0.005268621724098921
1783244269899098600,3.0380986328125,-0.047775998711586,-0.004425181075930595,0.033137306571006775
1783244269909110500,3.048110595703125,-0.04381507635116577,-0.022411905229091644,0.06966815888881683
1783244269919122700,3.058122802734375,-0.038845691829919815,-0.023065852001309395,0.09697345644235611
1783244269929133600,3.068133544921875,-0.034106332808732986,-0.006525757722556591,0.10661730170249939
1783244269939145500,3.0781455078125,-0.03179002180695534,0.008795129135251045,0.10189696401357651
1783244269949157600,3.08815771484375,-0.03266913443803787,0.01918252371251583,0.07760041207075119
1783244269959169500,3.09816943359375,-0.03534441068768501,0.020148243755102158,0.04719057306647301
1783244269969180700,3.1081806640625,-0.03467089682817459,0.009827694855630398,0.01580788567662239
1783244269979192800,3.11819287109375,-0.030038442462682724,-0.007758080959320068,-0.0021858634427189827
1783244269989204700,3.128204833984375,-0.02250595949590206,-0.02582709491252899,-0.0032585845328867435
1783244269999216600,3.138216552734375,-0.01518858503550291,-0.037181075662374496,0.00887939054518938
1783244270009227500,3.1482275390625,-0.015512158162891865,-0.03525613993406296,0.02762831375002861
1783244270019239700,3.15823974609375,-0.016450121998786926,-0.02101675234735012,0.04266665130853653
1783244270029251600,3.16825146484375,-0.013892957009375095,-0.004290502518415451,0.04623208940029144
1783244270039263700,3.178263671875,-0.010752450674772263,0.0012945772614330053,0.035088516771793365
1783244270049274600,3.188274658203125,-0.00323115149512887,-0.009066984057426453,0.015201627276837826
1783244270059286500,3.19828662109375,0.007209041155874729,-0.03077518381178379,-0.004054498393088579
1783244270069298400,3.20829833984375,0.01314549334347248,-0.04890518635511398,-0.02438027784228325
1783244270079310600,3.218310546875,0.005538890603929758,-0.04980944097042084,-0.03836430609226227
1783244270089321700,3.22832177734375,-0.015899023041129112,-0.027709465473890305,-0.048155419528484344
1783244270099333600,3.238333740234375,-0.048429884016513824,0.013200306333601475,-0.05060689151287079
1783244270109345800,3.248345703125,-0.08270663768053055,0.03890860080718994,-0.04122510924935341
1783244270119357700,3.258357666015625,-0.10684341937303543,0.03114197589457035,-0.018663723021745682
1783244270129368600,3.26836865234375,-0.10764449834823608,-0.003047686070203781,0.01432432048022747
1783244270139380700,3.278380615234375,-0.08743524551391602,-0.048787351697683334,0.04837426543235779
1783244270149392600,3.288392578125,-0.06153547763824463,-0.08767030388116837,0.07639231532812119
1783244270159404500,3.298404541015625,-0.046426400542259216,-0.08926478773355484,0.08589880168437958
1783244270169415700,3.308415771484375,-0.03929578512907028,-0.05836785212159157,0.06633735448122025
1783244270179427600,3.318427490234375,-0.03907529264688492,-0.019865814596414566,0.031931810081005096
1783244270189439500,3.328439453125,-0.03776101768016815,-0.0006449820939451456,-0.010939757339656353
1783244270199451600,3.33845166015625,-0.04629767686128616,0.011241928674280643,-0.049342118203639984
1783244270209462500,3.348462646484375,-0.05480301380157471,0.014297373592853546,-0.07139788568019867
1783244270219474400,3.358474365234375,-0.05462469905614853,0.010950453579425812,-0.0772862359881401
1783244270229486600,3.368486572265625,-0.058928899466991425,0.022104304283857346,-0.06455473601818085
1783244270239498500,3.37849853515625,-0.06602046638727188,0.042645491659641266,-0.03850042074918747
1783244270249509600,3.388509521484375,-0.06865699589252472,0.05892273038625717,-0.010749482549726963
1783244270259521800,3.398521728515625,-0.06615988910198212,0.07277924567461014,0.010209905914962292
1783244270269533700,3.40853369140625,-0.05691925436258316,0.06694212555885315,0.026398729532957077
1783244270279545600,3.418545654296875,-0.04591956362128258,0.04315931722521782,0.030505122616887093
1783244270289556500,3.428556396484375,-0.02873232215642929,0.01115584559738636,0.028247827664017677
1783244270299568600,3.438568603515625,-0.008244108408689499,-0.02467360347509384,0.029323577880859375
1783244270309580500,3.44858056640625,0.007940453477203846,-0.048647910356521606,0.03819137066602707
1783244270319592700,3.4585927734375,0.02052796073257923,-0.05325637012720108,0.05325988680124283
1783244270329603600,3.468603515625,0.02231946773827076,-0.03700389713048935,0.06866654008626938
1783244270339615500,3.478615478515625,0.020409265533089638,-0.019291898235678673,0.0780949667096138
1783244270349627600,3.488627685546875,0.01987636648118496,0.0028160661458969116,0.08024945855140686
1783244270359639600,3.4986396484375,0.021145489066839218,0.015493602491915226,0.07027890533208847
1783244270369650700,3.508650634765625,0.02555515058338642,0.025131050497293472,0.046112313866615295
1783244270379662600,3.51866259765625,0.03181122988462448,0.03578885272145271,0.012066964991390705
1783244270389674800,3.5286748046875,0.032386474311351776,0.03613453358411789,-0.02060229703783989
1783244270399686700,3.538686767578125,0.03309965506196022,0.028626587241888046,-0.03833330050110817
1783244270409697500,3.548697509765625,0.033495668321847916,0.022433940321207047,-0.04324496537446976
1783244270419709700,3.558709716796875,0.029667146503925323,0.01290847361087799,-0.026913344860076904
1783244270429721600,3.5687216796875,0.018297310918569565,0.006129397079348564,0.00518147274851799
1783244270439733500,3.5787333984375,0.007979152724146843,0.009380079805850983,0.036331985145807266
1783244270449744600,3.58874462890625,-0.009047500789165497,0.0145958811044693,0.06265493482351303
1783244270459756500,3.598756591796875,-0.02197306975722313,0.017325464636087418,0.07764403522014618
1783244270469768400,3.6087685546875,-0.029086371883749962,0.013524068519473076,0.07909519225358963
1783244270479780600,3.618780517578125,-0.025082144886255264,0.013792740181088448,0.06863037496805191
1783244270489791700,3.628791748046875,-0.009079476818442345,0.0021472699008882046,0.053443968296051025
1783244270499803600,3.6388037109375,0.014062976464629173,-0.021810932084918022,0.03793914616107941
1783244270509815800,3.64881591796875,0.02925844117999077,-0.03938379883766174,0.02140943519771099
1783244270519827700,3.65882763671875,0.03714656084775925,-0.038164831697940826,0.0032471362501382828
1783244270529838600,3.668838623046875,0.039543669670820236,-0.024675123393535614,-0.009426314383745193
1783244270539850800,3.678850830078125,0.03949018940329552,-0.0005110972560942173,-0.020980466157197952
1783244270549862700,3.688862548828125,0.035981208086013794,0.021913519129157066,-0.032250698655843735
1783244270559874600,3.69887451171875,0.029254455119371414,0.0369572751224041,-0.03932933509349823
1783244270569885700,3.7088857421875,0.02418219856917858,0.04555661976337433,-0.05016041174530983
1783244270579897600,3.718897705078125,0.01789931207895279,0.04691028594970703,-0.060383204370737076
1783244270589909500,3.728909423828125,0.007903935387730598,0.03817005828022957,-0.06542350351810455
1783244270599921700,3.738921630859375,-0.002033401280641556,0.029527369886636734,-0.0585993155837059
1783244270609932500,3.7489326171875,-0.00550163583829999,0.000695720431394875,-0.0355864092707634
1783244270619944400,3.7589443359375,-0.0004194676876068115,-0.040660444647073746,0.004494349937886
1783244270629956600,3.76895654296875,0.008400389924645424,-0.07076667994260788,0.05113535374403
1783244270639968500,3.778968505859375,0.012197606265544891,-0.07816322892904282,0.09229481965303421
1783244270649980400,3.78898046875,0.013590171933174133,-0.0629376769065857,0.12104391306638718
1783244270659992600,3.79899267578125,0.004825095646083355,-0.028974758461117744,0.12519413232803345
1783244270670004500,3.80900439453125,-0.004601429216563702,0.012257897295057774,0.09934336692094803
1783244270680016400,3.819016357421875,-0.010440434329211712,0.046590253710746765,0.05800352618098259
1783244270690027500,3.829027587890625,-0.0016583944670856,0.05999927222728729,0.0063773514702916145
1783244270700039400,3.839039306640625,0.022560467943549156,0.04740278422832489,-0.04163536801934242
1783244270710051300,3.84905126953125,0.05449363589286804,0.023133397102355957,-0.07213868200778961
1783244270720063500,3.8590634765625,0.08226443827152252,0.005327490158379078,-0.08721444755792618
1783244270730074400,3.869074462890625,0.09630674868822098,-0.0010763469617813826,-0.08840221911668777
1783244270740086300,3.879086181640625,0.0892452821135521,0.012062547728419304,-0.0809919536113739
1783244270750098400,3.889098388671875,0.0685056522488594,0.04541704058647156,-0.07220565527677536
1783244270760110300,3.8991103515625,0.03926592692732811,0.07406828552484512,-0.06183001399040222
1783244270770121200,3.909121337890625,0.007206527981907129,0.08393742889165878,-0.04484543576836586
1783244270780133000,3.919133056640625,-0.019316725432872772,0.06967618316411972,-0.019470904022455215
1783244270790145300,3.929145263671875,-0.03514176234602928,0.044182807207107544,0.011574096977710724
1783244270800157200,3.9391572265625,-0.04708578810095787,0.028715083375573158,0.03881406784057617
1783244270810168300,3.949168212890625,-0.056790612637996674,0.03011004813015461,0.06090019270777702
1783244270820180500,3.959180419921875,-0.05990074574947357,0.03178030252456665,0.07813885062932968
1783244270830192400,3.9691923828125,-0.05319996178150177,0.019830700010061264,0.09129806607961655
1783244270840204500,3.97920458984375,-0.03916679322719574,0.0027211448177695274,0.09589044004678726
1783244270850215400,3.98921533203125,-0.018763253465294838,-0.022967707365751266,0.09593837708234787
1783244270860227300,3.999227294921875,0.0014788259286433458,-0.04139985144138336,0.08663027733564377
1783244270870239200,4.0092392578125,0.015685193240642548,-0.038228824734687805,0.0638543888926506
1783244270880251400,4.01925146484375,0.031711604446172714,-0.027520660310983658,0.043162450194358826
1783244270890262300,4.02926220703125,0.043868668377399445,-0.01879934035241604,0.01918094791471958
1783244270900274200,4.039274169921875,0.05427336320281029,0.00724907498806715,-0.011788362637162209
1783244270910286300,4.049286376953125,0.056301891803741455,0.03507591411471367,-0.04206770658493042
1783244270920298200,4.05929833984375,0.04986896365880966,0.043814096599817276,-0.06680808216333389
1783244270930309400,4.069309326171875,0.04225897789001465,0.032607778906822205,-0.07959099113941193
1783244270940321500,4.079321533203125,0.03810172155499458,0.006368687842041254,-0.07731225341558456
1783244270950333400,4.08933349609375,0.02905549295246601,-0.024330900982022285,-0.05743388831615448
1783244270960345300,4.099345458984375,0.025362528860569,-0.0425618514418602,-0.027047203853726387
1783244270970356500,4.1093564453125,0.022971276193857193,-0.03870213031768799,0.00849481113255024
1783244270980368400,4.119368408203125,0.019647391512989998,-0.025575296953320503,0.0324549600481987
1783244270990380300,4.12938037109375,0.018538186326622963,-0.009223755449056625,0.04714389145374298
1783244271000392400,4.139392333984375,0.01648368313908577,0.004715852439403534,0.04159843921661377
1783244271010403300,4.1494033203125,0.018099956214427948,0.011474156752228737,0.01626565121114254
1783244271020415200,4.159415283203125,0.02355884574353695,-0.00294106500223279,-0.020376700907945633
1783244271030427400,4.169427490234375,0.02754266932606697,-0.02662508934736252,-0.056740567088127136
1783244271040439300,4.179439208984375,0.030042335391044617,-0.0406055711209774,-0.07670590281486511
1783244271050450400,4.189450439453125,0.0366688147187233,-0.04331746697425842,-0.07595222443342209
1783244271060462600,4.199462646484375,0.0324280671775341,-0.03778885677456856,-0.05653448775410652
1783244271070474500,4.209474609375,0.018045930191874504,-0.018826084211468697,-0.03295725956559181
1783244271080486400,4.219486328125,-0.002420881763100624,-0.00017809821292757988,-0.0073130130767822266
1783244271090497300,4.229497314453125,-0.024619393050670624,0.010863367468118668,0.014519315212965012
1783244271100509400,4.239509521484375,-0.05033115670084953,0.018890703096985817,0.029914837330579758
1783244271110521300,4.249521240234375,-0.07900488376617432,0.020320555195212364,0.044468481093645096
1783244271120533500,4.259533447265625,-0.09951473027467728,0.020435770973563194,0.050902172923088074
1783244271130544400,4.26954443359375,-0.1069745123386383,0.02034708671271801,0.05510943382978439
1783244271140556300,4.279556396484375,-0.10357840359210968,0.016035528853535652,0.05496905744075775
1783244271150568200,4.289568115234375,-0.08691579848527908,0.012312961742281914,0.05696563050150871
1783244271160580400,4.299580322265625,-0.06559205055236816,0.003970686346292496,0.06130896136164665
1783244271170591200,4.30959130859375,-0.04185209423303604,-0.020986061543226242,0.07420051842927933
1783244271180603400,4.319603271484375,-0.014804508537054062,-0.05200599133968353,0.09052922576665878
1783244271190615300,4.329615234375,0.002675149356946349,-0.07123508304357529,0.09844626486301422
1783244271200627200,4.339627197265625,0.013100586831569672,-0.07322938740253448,0.09560145437717438
1783244271210638300,4.349638427734375,0.016298245638608932,-0.056748948991298676,0.08224649727344513
1783244271220650500,4.359650390625,0.019642550498247147,-0.03310362249612808,0.06043122708797455
1783244271230662400,4.369662353515625,0.023554999381303787,-0.009788976982235909,0.03258468583226204
1783244271240674300,4.37967431640625,0.028442030772566795,0.0053385235369205475,0.009516659192740917
1783244271250685400,4.389685546875,0.03256460651755333,0.005042113829404116,-0.00839789304882288
1783244271260697300,4.399697265625,0.028879057615995407,-0.002360289916396141,-0.014901341870427132
1783244271270709200,4.409709228515625,0.022649923339486122,-0.01835869625210762,-0.012340445071458817
1783244271280721400,4.419721435546875,0.007171965204179287,-0.035721004009246826,0.008935684338212013
1783244271290733300,4.4297333984375,-0.0041981348767876625,-0.04363671690225601,0.039146583527326584
1783244271300744200,4.439744140625,-0.015471909195184708,-0.04115502908825874,0.07099609076976776
1783244271310756400,4.44975634765625,-0.024898169562220573,-0.029430463910102844,0.09372536838054657
1783244271320768300,4.459768310546875,-0.028850635513663292,-0.018052931874990463,0.10072722285985947
1783244271330779400,4.469779296875,-0.024244431406259537,-0.013749265111982822,0.08954860270023346
1783244271340791600,4.47979150390625,-0.016030017286539078,-0.009590367786586285,0.06592781096696854
1783244271350803500,4.489803466796875,-0.007337992079555988,-0.005609474144876003,0.03157063573598862
1783244271360815400,4.4998154296875,0.008168034255504608,-0.004609853960573673,0.0009706770069897175
1783244271370826500,4.509826416015625,0.02503063715994358,0.007619914598762989,-0.028677497059106827
1783244271380838400,4.51983837890625,0.034033142030239105,0.027422012761235237,-0.050995826721191406
1783244271390850300,4.529850341796875,0.047999024391174316,0.04235036298632622,-0.06497155874967575
1783244271400862500,4.539862548828125,0.06958359479904175,0.04094383493065834,-0.07030884176492691
1783244271410873300,4.549873291015625,0.07668517529964447,0.014397178776562214,-0.07193576544523239
1783244271420885200,4.55988525390625,0.06948970258235931,-0.02230265364050865,-0.05826272815465927
1783244271430897400,4.5698974609375,0.05846954137086868,-0.06352226436138153,-0.030602872371673584
1783244271440909300,4.579909423828125,0.04350954666733742,-0.07549333572387695,0.0067207710817456245
1783244271450920400,4.58992041015625,0.019185034558176994,-0.05543254315853119,0.04548361152410507
1783244271460932400,4.599932373046875,-0.0023300773464143276,-0.031244367361068726,0.07675957679748535
1783244271470944500,4.609944580078125,-0.0196376945823431,-0.004676408134400845,0.08837548643350601
1783244271480956400,4.619956298828125,-0.03888219594955444,0.017993498593568802,0.08224228769540787
1783244271490967300,4.62996728515625,-0.0548182874917984,0.01779802143573761,0.060857634991407394
1783244271500979500,4.6399794921875,-0.05717352777719498,0.000511506455950439,0.03922097012400627
1783244271510991400,4.649991455078125,-0.04666069895029068,-0.017145784571766853,0.026233797892928123
1783244271521003500,4.66000341796875,-0.02201344445347786,-0.04062875360250473,0.029082249850034714
1783244271531014400,4.670014404296875,0.009203066118061543,-0.0786653459072113,0.04905515909194946
1783244271541026300,4.6800263671875,0.03846517205238342,-0.09211104363203049,0.064580038189888
1783244271551038200,4.6900380859375,0.05645402520895004,-0.07544790953397751,0.06979876756668091
1783244271561050400,4.70005029296875,0.056260161101818085,-0.050231676548719406,0.06026003882288933
1783244271571061200,4.710061279296875,0.04321839287877083,-0.01783325895667076,0.03385719284415245
1783244271581073400,4.720073486328125,0.030775319784879684,0.013161901384592056,-0.0024718453641980886
1783244271591085300,4.730085205078125,0.02292298898100853,0.025915514677762985,-0.03338022530078888
1783244271601097500,4.740097412109375,0.03118758648633957,0.01158633828163147,-0.0516493022441864
1783244271611108400,4.7501083984375,0.0518297478556633,-0.029119012877345085,-0.05073637142777443
1783244271621120500,4.76012060546875,0.0680818036198616,-0.07081466913223267,-0.029461074620485306
1783244271631132400,4.77013232421875,0.07052339613437653,-0.09582202136516571,0.009863428771495819
1783244271641144300,4.780144287109375,0.05512898787856102,-0.09405780583620071,0.050932541489601135
1783244271651154700,4.79015478515625,0.027949299663305283,-0.06746241450309753,0.08535682410001755
1783244271661166800,4.800166748046875,-0.006911504082381725,-0.03466789796948433,0.10723593831062317
1783244271671178800,4.8101787109375,-0.03720096871256828,-0.004875914193689823,0.11636897921562195
1783244271681190700,4.820190673828125,-0.05113682523369789,0.024182341992855072,0.10899056494235992
1783244271691202000,4.8302021484375,-0.052713681012392044,0.015963027253746986,0.09027360379695892
1783244271701214000,4.8402138671875,-0.0412537045776844,-0.02175683155655861,0.07560496032238007
1783244271711225900,4.850225830078125,-0.02174099162220955,-0.05667247250676155,0.06432513892650604
1783244271721238000,4.860238037109375,0.002226267009973526,-0.09369609504938126,0.0644712969660759
1783244271731249000,4.870248779296875,0.02811485528945923,-0.11739343404769897,0.0738578736782074
1783244271741260800,4.8802607421875,0.042729079723358154,-0.10571324825286865,0.08392893522977829
1783244271751273000,4.89027294921875,0.035451456904411316,-0.06582095474004745,0.08527462929487228
1783244271761284900,4.900284912109375,0.014517979696393013,-0.03572189807891846,0.08377160131931305
1783244271771295700,4.910295654296875,-0.007424603682011366,-0.033249419182538986,0.07979177683591843
1783244271781308000,4.920307861328125,-0.02200569584965706,-0.04742056131362915,0.07450710982084274
1783244271791319800,4.93031982421875,-0.023476559668779373,-0.07338718324899673,0.0697171539068222
1783244271801331700,4.940331787109375,-0.014589214697480202,-0.10046300292015076,0.061633527278900146
1783244271811342600,4.950342529296875,-0.008024522103369236,-0.10593046993017197,0.05115106329321861
1783244271821354800,4.960354736328125,-0.007795082870870829,-0.07669863849878311,0.03029766120016575
1783244271831366700,4.97036669921875,0.0013619305100291967,-0.0567755363881588,-0.0028009023517370224
1783244271841378800,4.98037890625,0.028000732883810997,-0.09733840078115463,-0.05447474867105484
1783244271851390000,4.990389892578125,0.03648742660880089,-0.1331464648246765,-0.08893871307373047
1783244271861401900,5.00040185546875,0.04298020154237747,-0.190261110663414,-0.09937532246112823
1783244271871413800,5.010413818359375,0.052921783179044724,-0.24972203373908997,-0.07471338659524918
1783244271881426000,5.020426025390625,0.05853312462568283,-0.27156949043273926,-0.029669295996427536
1783244271891436800,5.030436767578125,0.06430712342262268,-0.2611141800880432,0.016378890722990036
1783244271901448700,5.04044873046875,0.06844238936901093,-0.24299199879169464,0.045768752694129944
1783244271911460900,5.0504609375,0.07038063555955887,-0.21409402787685394,0.03005370683968067
1783244271921472800,5.06047265625,0.05511006712913513,-0.16090084612369537,-0.014432799071073532
1783244271931483600,5.070483642578125,0.040086112916469574,-0.1218130961060524,-0.05325236916542053
1783244271941495800,5.080495849609375,0.041302911937236786,-0.10969917476177216,-0.07229290157556534
1783244271951507700,5.0905078125,0.06318876892328262,-0.11158416420221329,-0.07641521096229553
1783244271961519600,5.10051953125,0.06715995818376541,-0.12452858686447144,-0.06234556436538696
1783244271971531000,5.110531005859375,0.06455884873867035,-0.16338570415973663,-0.03974917531013489
1783244271981543000,5.12054296875,0.075311079621315,-0.19296672940254211,-0.03209572657942772
1783244271991554800,5.130554931640625,0.1024462953209877,-0.21942922472953796,-0.06241261959075928
1783244272001567000,5.14056689453125,0.11425454169511795,-0.22214064002037048,-0.11959100514650345
1783244272011577900,5.150577880859375,0.09710884839296341,-0.1840374767780304,-0.176834836602211
1783244272021589800,5.16058984375,0.06701915711164474,-0.13993671536445618,-0.2129901647567749
1783244272031602000,5.170601806640625,0.006183505058288574,-0.06448403745889664,-0.20241981744766235
1783244272041613800,5.18061376953125,-0.06178101524710655,-0.015019681304693222,-0.1435435563325882
1783244272051624700,5.190624755859375,-0.09874595701694489,-0.025405744090676308,-0.05049802362918854
1783244272061636900,5.200636962890625,-0.09063911437988281,-0.052232638001441956,0.038205765187740326
1783244272071648800,5.210648681640625,-0.060886282473802567,-0.08524491637945175,0.09124474227428436
1783244272081660700,5.22066064453125,-0.032132796943187714,-0.09671083837747574,0.09007667750120163
1783244272091671800,5.230671875,-0.03371551260352135,-0.06473639607429504,0.04056025296449661
1783244272101684000,5.24068408203125,-0.06849414110183716,-0.007610699161887169,-0.028574293479323387
1783244272111696000,5.25069580078125,-0.12030620872974396,0.04179652780294418,-0.09327525645494461
1783244272121708000,5.2607080078125,-0.16146183013916016,0.05579585209488869,-0.12907683849334717
1783244272131719000,5.270718994140625,-0.1591656506061554,0.02662358433008194,-0.13335494697093964
1783244272141730800,5.280730712890625,-0.11593969166278839,-0.01062459871172905,-0.12365473061800003
1783244272151743000,5.290742919921875,-0.055765293538570404,-0.010356418788433075,-0.1236715093255043
1783244272161755000,5.3007548828125,-0.01359645277261734,0.03884945064783096,-0.14719228446483612
1783244272171765800,5.310765869140625,-0.00453797634691,0.10990365594625473,-0.20077747106552124
1783244272181777700,5.320777587890625,-0.04251959174871445,0.17941877245903015,-0.2570965886116028
1783244272191789800,5.330789794921875,-0.12651115655899048,0.20054589211940765,-0.28621959686279297
1783244272201801700,5.3408017578125,-0.22116750478744507,0.1728052943944931,-0.25437378883361816
1783244272211812600,5.3508125,-0.2846359610557556,0.12301323562860489,-0.16227154433727264
1783244272221824800,5.36082470703125,-0.3117767572402954,0.03514934331178665,-0.01748364232480526
1783244272231836700,5.370836669921875,-0.2921183705329895,-0.06451679766178131,0.16136254370212555
1783244272241848800,5.380848876953125,-0.22301730513572693,-0.12214040011167526,0.31854182481765747
1783244272251860000,5.39085986328125,-0.13083119690418243,-0.10977267473936081,0.40824639797210693
1783244272261871900,5.400871826171875,-0.044928450137376785,-0.06011419743299484,0.40245115756988525
1783244272271883800,5.4108837890625,0.012732179835438728,-0.0007864271756261587,0.31067782640457153
1783244272281896000,5.42089599609375,0.04521141201257706,0.03598236292600632,0.16948111355304718
1783244272291906800,5.43090673828125,0.06661523133516312,0.01115238294005394,0.016277717426419258
1783244272301918700,5.440918701171875,0.08814938366413116,-0.030124014243483543,-0.10660804808139801
1783244272311931000,5.450930908203125,0.1208343580365181,-0.055760931223630905,-0.1797696053981781
1783244272321942800,5.46094287109375,0.15218320488929749,-0.06552595645189285,-0.18967050313949585
1783244272331953700,5.47095361328125,0.19084510207176208,-0.06253229826688766,-0.14967167377471924
1783244272341965800,5.4809658203125,0.2169945389032364,-0.022382168099284172,-0.08757823705673218
1783244272351977700,5.490977783203125,0.2280365377664566,0.03721804544329643,-0.029751688241958618
1783244272361989600,5.50098974609375,0.207892507314682,0.09645459800958633,-0.0016528412234038115
1783244272372001000,5.5110009765625,0.1594030112028122,0.15114501118659973,-0.01302560418844223
1783244272382013000,5.521012939453125,0.08976969867944717,0.20215433835983276,-0.05740988999605179
1783244272392024800,5.53102490234375,0.026779813691973686,0.23409868776798248,-0.11830200254917145
1783244272402037000,5.541037109375,-0.02932627499103546,0.23151841759681702,-0.1672573834657669
1783244272412048000,5.5510478515625,-0.06436628103256226,0.22638118267059326,-0.18159078061580658
1783244272422059800,5.561059814453125,-0.07878047227859497,0.21487785875797272,-0.15757590532302856
1783244272432072000,5.571072021484375,-0.06991374492645264,0.208225816488266,-0.11248565465211868
1783244272442083800,5.581083740234375,-0.05489888787269592,0.1938273161649704,-0.053575512021780014
1783244272452094700,5.5910947265625,-0.03399892896413803,0.16633151471614838,-0.003477991558611393
1783244272462107000,5.60110693359375,-0.013700582087039948,0.13303320109844208,0.034449152648448944
1783244272472118800,5.611118896484375,-0.0008803908713161945,0.11864947527647018,0.05934331938624382
1783244272482130700,5.621130615234375,-0.0001366275828331709,0.1421952247619629,0.06966686993837357
1783244272492141800,5.631141845703125,0.01165158860385418,0.14591512084007263,0.05510657653212547
1783244272502154000,5.641154052734375,0.022720379754900932,0.15549886226654053,0.030212780460715294
1783244272512166000,5.651165771484375,0.031176716089248657,0.15224315226078033,-0.002670067362487316
1783244272522178000,5.661177978515625,0.03488773852586746,0.14058296382427216,-0.04685881361365318
1783244272532189000,5.67118896484375,0.04285937920212746,0.1449420303106308,-0.093866266310215
1783244272542200800,5.681200927734375,0.05841211974620819,0.12212899327278137,-0.1299697905778885
1783244272552212700,5.691212646484375,0.06979980319738388,0.1063779965043068,-0.14538203179836273
1783244272562225000,5.701224853515625,0.07336267828941345,0.12599660456180573,-0.145504891872406
1783244272572235800,5.71123583984375,0.07275494933128357,0.15790793299674988,-0.145018070936203
1783244272582247700,5.72124755859375,0.057121116667985916,0.1637207269668579,-0.14366856217384338
1783244272592259800,5.731259765625,0.02880771830677986,0.1579160988330841,-0.15027692914009094
1783244272602270700,5.741270751953125,-0.015773320570588112,0.14855463802814484,-0.15355350077152252
1783244272612283000,5.751282958984375,-0.0512080118060112,0.12979081273078918,-0.13257791101932526
1783244272622294800,5.761294677734375,-0.055280014872550964,0.14022959768772125,-0.09600000083446503
1783244272632306700,5.771306640625,-0.02758980169892311,0.15123297274112701,-0.058429185301065445
1783244272642317800,5.78131787109375,0.005653049796819687,0.13813336193561554,-0.03315437212586403
1783244272652330000,5.791330078125,0.029226819053292274,0.11129854619503021,-0.029573488980531693
1783244272662342000,5.801341796875,0.054592907428741455,0.06693848967552185,-0.038881827145814896
1783244272672354000,5.81135400390625,0.08728747069835663,0.010951656848192215,-0.05008974298834801
1783244272682365000,5.821364990234375,0.11578673124313354,-0.03109198622405529,-0.05197644606232643
1783244272692376800,5.831376953125,0.12599116563796997,-0.043214429169893265,-0.041847113519907
1783244272702388700,5.841388671875,0.12403561919927597,-0.02187602035701275,-0.027605943381786346
1783244272712401000,5.85140087890625,0.11686559021472931,0.00012861366849392653,-0.009227469563484192
1783244272722411800,5.861411865234375,0.10717052221298218,0.005484553519636393,0.014510664157569408
1783244272732423700,5.871423583984375,0.09559483081102371,0.011883065104484558,0.038160864263772964
1783244272742435800,5.881435791015625,0.08466020226478577,0.015714656561613083,0.058694880455732346
1783244272752447700,5.89144775390625,0.07684942334890366,0.006517163477838039,0.07037043571472168
1783244272762459000,5.901458984375,0.06843499094247818,-0.00932324305176735,0.06666810065507889
1783244272772471000,5.911470947265625,0.0616907998919487,-0.003766557900235057,0.049490705132484436
1783244272782483000,5.92148291015625,0.06717883050441742,0.0009326536674052477,0.027565352618694305
1783244272792494800,5.931494873046875,0.07733479142189026,-0.0015366291627287865,0.006809473969042301
1783244272802506000,5.941506103515625,0.09079604595899582,0.0020043218974024057,-0.0066455514170229435
1783244272812518000,5.951517822265625,0.10151020437479019,-0.004290591925382614,-0.015100289136171341
1783244272822529800,5.96152978515625,0.11195307970046997,-0.019402852281928062,-0.022182928398251534
1783244272832542000,5.9715419921875,0.11782161891460419,-0.03203848376870155,-0.03117881901562214
1783244272842552800,5.981552734375,0.11308597773313522,-0.049994003027677536,-0.032320454716682434
1783244272852564700,5.991564697265625,0.0985187515616417,-0.06467414647340775,-0.028180040419101715
1783244272862577000,6.001576904296875,0.08472416549921036,-0.06526171416044235,-0.022881202399730682
1783244272872588800,6.0115888671875,0.05952240526676178,-0.06269362568855286,-0.01679135113954544
1783244272882600000,6.021599853515625,0.018775973469018936,-0.05958440899848938,-0.011306699365377426
1783244272892612000,6.031612060546875,-0.020422030240297318,-0.047711506485939026,-0.006486909929662943
1783244272902624000,6.0416240234375,-0.04737750440835953,-0.022785432636737823,0.004167744889855385
1783244272912636000,6.051635986328125,-0.05757820978760719,0.0014730340335518122,0.018778912723064423
1783244272922646800,6.061646728515625,-0.05796472728252411,0.009494132362306118,0.029917601495981216
1783244272932659000,6.071658935546875,-0.05269433185458183,-0.007047826424241066,0.0302899107336998
1783244272942670800,6.0816708984375,-0.07854321599006653,0.0067191701382398605,0.028877489268779755
1783244272952683000,6.09168310546875,-0.09930761903524399,0.006068293936550617,0.02018759772181511
1783244272962694000,6.10169384765625,-0.1220536082983017,-0.006544275209307671,0.02128944918513298
1783244272972705800,6.111705810546875,-0.14213809370994568,-0.0014259465970098972,0.026798464357852936
1783244272982717700,6.1217177734375,-0.15236613154411316,0.01370958611369133,0.04313282296061516
1783244272992729900,6.131729736328125,-0.1418522298336029,0.014354337938129902,0.05302886292338371
1783244273002740700,6.14174072265625,-0.12735702097415924,0.022726526483893394,0.050815649330616
1783244273012753000,6.1517529296875,-0.10420936346054077,0.023989398032426834,0.03514507785439491
1783244273022764800,6.161764892578125,-0.08349117636680603,0.004962260834872723,0.012413972988724709
1783244273032777000,6.17177685546875,-0.06305380165576935,-0.02733522467315197,-0.010285748168826103
1783244273042787800,6.181787841796875,-0.046462755650281906,-0.06495682895183563,-0.03088638372719288
1783244273052800000,6.191800048828125,-0.051094260066747665,-0.10278090089559555,-0.03607741743326187
1783244273062812000,6.20181201171875,-0.057978469878435135,-0.09945189207792282,-0.032806072384119034
1783244273072823800,6.21182373046875,-0.0653706043958664,-0.06683962047100067,-0.021746233105659485
1783244273082835000,6.2218349609375,-0.07188674807548523,-0.021464429795742035,-0.008855131454765797
1783244273092846800,6.231846923828125,-0.08054095506668091,0.030399566516280174,0.008013597689568996
1783244273102858800,6.241858642578125,-0.08767689764499664,0.056058455258607864,0.012553193606436253
1783244273112870000,6.251869873046875,-0.09089053422212601,0.036760393530130386,0.007377872243523598
1783244273122881800,6.2618818359375,-0.0973263531923294,-0.001909824088215828,-0.007604395039379597
1783244273132893700,6.271893798828125,-0.0987338274717331,-0.04307457059621811,-0.016719063743948936
1783244273142905900,6.28190576171875,-0.08620559424161911,-0.05443083867430687,-0.017010003328323364
1783244273152917000,6.2919169921875,-0.06700233370065689,-0.04820144176483154,-0.013903958722949028
1783244273162929000,6.301928955078125,-0.05671357735991478,-0.024200573563575745,-0.009906533174216747
1783244273172941000,6.311941162109375,-0.05465708300471306,0.014858411625027657,-0.01313827931880951
1783244273182953000,6.321952880859375,-0.06276387721300125,0.041060272604227066,-0.015122294425964355
1783244273192963800,6.3319638671875,-0.06698792427778244,0.03953401371836662,-0.020236097276210785
1783244273202975700,6.341975830078125,-0.06535720825195312,0.02805665135383606,-0.02190598100423813
1783244273212988000,6.35198779296875,-0.05957309529185295,-0.0036900928243994713,-0.01390904001891613
1783244273222999800,6.361999755859375,-0.05416814610362053,-0.027594029903411865,0.006020377390086651
1783244273233010700,6.3720107421875,-0.04467184841632843,-0.03245509788393974,0.029859397560358047
1783244273243022800,6.38202294921875,-0.0382845364511013,-0.03466588258743286,0.06258520483970642
1783244273253034800,6.39203466796875,-0.029686786234378815,-0.02810145728290081,0.0881776511669159
1783244273263047000,6.402046875,-0.02565617300570011,-0.014231563545763493,0.09870881587266922
1783244273273058000,6.41205810546875,-0.02643701247870922,-0.007127582095563412,0.09128658473491669
1783244273283070000,6.422070068359375,-0.03281329944729805,-0.0011377392802387476,0.06992068141698837
1783244273293081900,6.432081787109375,-0.028279803693294525,0.0015786851290613413,0.046390850096940994
1783244273303094000,6.442093994140625,-0.00984477624297142,0.009247470647096634,0.027882903814315796
1783244273313105000,6.45210498046875,0.017492305487394333,-0.0018022512085735798,0.018589535728096962
1783244273323116800,6.46211669921875,0.04404381290078163,-0.019340699538588524,0.011217024177312851
1783244273333129000,6.47212890625,0.05667198821902275,-0.029587743803858757,0.01037493348121643
1783244273343140900,6.482140869140625,0.05484943836927414,-0.03319939598441124,0.01242779940366745
1783244273353151700,6.49215185546875,0.04131019115447998,-0.019695837050676346,0.01465739868581295
1783244273363164000,6.502163818359375,0.023593677207827568,0.0005807641427963972,0.015897203236818314
1783244273373175800,6.51217578125,0.004844225011765957,0.008373439311981201,0.019952930510044098
1783244273383187000,6.52218701171875,-0.012257901951670647,0.011249219998717308,0.01950296014547348
1783244273393198800,6.53219873046875,-0.021808529272675514,0.008190578781068325,0.019658755511045456
1783244273403210800,6.542210693359375,-0.027294225990772247,0.0029526851139962673,0.022821666672825813
1783244273413223000,6.552222900390625,-0.02664494700729847,-0.0004516337066888809,0.028908587992191315
1783244273423233800,6.56223388671875,-0.01871771179139614,0.0032405913807451725,0.0340438187122345
1783244273433246000,6.572245849609375,-0.010331150144338608,0.005550084635615349,0.03897785767912865
1783244273443257900,6.5822578125,-0.006678138393908739,0.011002002283930779,0.03735121712088585
1783244273453270000,6.59227001953125,-0.012453470379114151,0.027034498751163483,0.02736622840166092
1783244273463281000,6.602281005859375,-0.01704554818570614,0.04616008326411247,0.012067883275449276
1783244273473292800,6.612292724609375,-0.025438498705625534,0.0649351105093956,-0.008846452459692955
1783244273483305000,6.622304931640625,-0.03946975618600845,0.09481288492679596,-0.030990654602646828
1783244273493316900,6.63231689453125,-0.04402828961610794,0.10953749716281891,-0.047887079417705536
1783244273503327700,6.64232763671875,-0.028313521295785904,0.10261518508195877,-0.06415361166000366
1783244273513339600,6.652339599609375,0.0042026108130812645,0.08491315692663193,-0.08129318058490753
1783244273523351800,6.662351806640625,0.028220687061548233,0.041826747357845306,-0.09092532098293304
1783244273533363700,6.67236376953125,0.04101557657122612,-0.0030357977375388145,-0.08610819280147552
1783244273543374800,6.682374755859375,0.04746643453836441,-0.019678140059113503,-0.06811360269784927
1783244273553387000,6.692386962890625,0.046230461448431015,-0.023427071049809456,-0.0439496785402298
1783244273563399000,6.70239892578125,0.0364747978746891,-0.02326737344264984,-0.017035100609064102
1783244273573410800,6.712410888671875,0.022460976615548134,-0.012392356060445309,-0.003217022167518735
1783244273583422000,6.722421875,0.008301516994833946,-0.006107019260525703,0.0006978870369493961
1783244273593433900,6.732433837890625,-0.0018395339138805866,0.0016547639388591051,-0.002190577331930399
1783244273603445800,6.74244580078125,-0.007348583545535803,0.019136540591716766,-0.011374817229807377
1783244273613458000,6.7524580078125,-0.007247116882354021,0.0353005975484848,-0.017632711678743362
1783244273623468800,6.76246875,0.007224465254694223,0.02569270133972168,-0.020806197077035904
1783244273633480700,6.772480712890625,0.024601591750979424,-0.010233874432742596,-0.024489883333444595
1783244273643492900,6.782492919921875,0.02899368666112423,-0.05174380913376808,-0.01923871971666813
1783244273653504300,6.792504150390625,0.023367492482066154,-0.07479293644428253,-0.0072153471410274506
1783244273663516400,6.802516357421875,0.020710987970232964,-0.07359276711940765,0.008172113448381424
1783244273673528300,6.8125283203125,0.025283902883529663,-0.0517902672290802,0.022198449820280075
1783244273683540200,6.822540283203125,0.02303982898592949,-0.020780228078365326,0.02246532216668129
1783244273693551600,6.832551513671875,0.015363000333309174,-0.015949252992868423,0.017908386886119843
1783244273703563500,6.8425634765625,0.006792975123971701,-0.03452756255865097,0.014032292179763317
1783244273713575400,6.852575439453125,0.0021183285862207413,-0.05829600617289543,0.016326073557138443
1783244273723587600,6.862587646484375,0.0049740588292479515,-0.0746522843837738,0.026988163590431213
1783244273733598500,6.872598388671875,0.009185847826302052,-0.08172697573900223,0.04109758883714676
1783244273743610400,6.8826103515625,0.014349531382322311,-0.06884461641311646,0.051176365464925766
1783244273753622500,6.89262255859375,0.021768298000097275,-0.05574239045381546,0.053022999316453934
1783244273763634400,6.902634521484375,0.026888838037848473,-0.04461265355348587,0.042611680924892426
1783244273773645300,6.912645263671875,0.02892322652041912,-0.03870842605829239,0.022765273228287697
1783244273783657500,6.922657470703125,0.025455759838223457,-0.03136172145605087,0.0002655121497809887
1783244273793669400,6.93266943359375,0.019258052110671997,-0.016290627419948578,-0.017359554767608643
1783244273803681300,6.942681396484375,0.020572077482938766,-0.0004341122694313526,-0.025469288229942322
1783244273813692400,6.9526923828125,0.02848273143172264,0.007729009259492159,-0.024998176842927933
1783244273823704600,6.96270458984375,0.0362154059112072,0.00935395248234272,-0.02503310516476631
1783244273833716500,6.972716552734375,0.03629317134618759,0.005556550342589617,-0.02213025838136673
1783244273843728600,6.982728759765625,0.039282843470573425,0.0007829352980479598,-0.01812760904431343
1783244273853739500,6.992739501953125,0.043011270463466644,0.005138268694281578,-0.019886892288923264
1783244273863751400,7.00275146484375,0.04176011681556702,0.013385013677179813,-0.02534850314259529
1783244273873763600,7.012763671875,0.036401569843292236,0.019967282190918922,-0.033250633627176285
1783244273883774500,7.0227744140625,0.034926459193229675,0.017591429874300957,-0.037739720195531845
1783244273893786400,7.032786376953125,0.03470302000641823,-0.0007436356972903013,-0.03240913897752762
1783244273903798300,7.04279833984375,0.030911844223737717,-0.02293584682047367,-0.019452959299087524
1783244273913810400,7.052810546875,0.018104437738656998,-0.04128822311758995,-0.0035656061954796314
1783244273923821600,7.062821533203125,-0.0003920248709619045,-0.054507989436388016,0.019506769254803658
1783244273933833500,7.07283349609375,-0.014369359239935875,-0.05491279065608978,0.04173750802874565
1783244273943845600,7.082845703125,-0.024497048929333687,-0.03188725560903549,0.05778755992650986
1783244273953857500,7.092857421875,-0.03650683909654617,-0.0002829907462000847,0.05495342239737511
1783244273963868400,7.102868408203125,-0.04158267378807068,0.015227662399411201,0.03780815377831459
1783244273973880600,7.112880615234375,-0.0422937385737896,0.017189346253871918,0.012705465778708458
1783244273983892500,7.122892578125,-0.029775861650705338,0.00959789752960205,-0.01057959720492363
1783244273993904400,7.132904296875,-0.013275980949401855,-0.004015649203211069,-0.02904782071709633
1783244274003915500,7.14291552734375,-0.002272739540785551,-0.023607229813933372,-0.03225397691130638
1783244274013927400,7.152927490234375,0.0022871247492730618,-0.038674596697092056,-0.015171928331255913
1783244274023939300,7.162939208984375,-0.0030059078708291054,-0.0351986400783062,0.009079881012439728
1783244274033951500,7.172951416015625,-0.01708311028778553,-0.027415283024311066,0.030504213646054268
1783244274043962400,7.18296240234375,-0.031063558533787727,-0.020368054509162903,0.04876654967665672
1783244274053974300,7.192974365234375,-0.03340234234929085,-0.011272827163338661,0.052394572645425797
1783244274063986400,7.202986328125,-0.0324682742357254,-0.010766386985778809,0.048425111919641495
1783244274073997600,7.21299755859375,-0.024239104241132736,-0.015254613012075424,0.036101333796978
1783244274084009500,7.223009521484375,-0.01650874689221382,-0.011813275516033173,0.01601790450513363
1783244274094021600,7.233021728515625,-0.0019630943424999714,-0.005213430151343346,-0.0008817159105092287
1783244274104033500,7.243033447265625,0.014462031424045563,-0.009017368778586388,-0.0075425049290061
1783244274114044400,7.25304443359375,0.030709711834788322,-0.01173752173781395,-0.011284778825938702
1783244274124056300,7.263056396484375,0.04355386272072792,-0.005703965201973915,-0.01351722702383995
1783244274134068500,7.273068359375,0.04426785558462143,-0.0019260048866271973,-0.010846076533198357
1783244274144080400,7.283080322265625,0.038585115224123,0.0004983004182577133,-0.006617300678044558
1783244274154091300,7.29309130859375,0.03219566121697426,0.0022471982520073652,-0.0027069812640547752
1783244274164103400,7.303103515625,0.023964736610651016,0.0057221148163080215,0.0004194830544292927
1783244274174115300,7.313115234375,0.020646704360842705,0.0012120518367737532,0.0026304395869374275
1783244274184127200,7.323127197265625,0.020000724121928215,-0.005510920658707619,0.005629593040794134
1783244274194138600,7.333138671875,0.029388366267085075,-0.006460604257881641,0.006487130653113127
1783244274204150500,7.343150634765625,0.03104749321937561,0.007979797199368477,0.006764772813767195
1783244274214162400,7.353162353515625,0.030756676569581032,0.03772198036313057,-0.0010598604567348957
1783244274224174600,7.363174560546875,0.03142372518777847,0.06866496801376343,-0.015230393037199974
1783244274234185500,7.373185546875,0.03551247715950012,0.06860318034887314,-0.02977471426129341
1783244274244197400,7.383197265625,0.04587821662425995,0.04959474503993988,-0.04431987553834915
1783244274254209500,7.39320947265625,0.05063942074775696,0.013378686271607876,-0.05752968788146973
1783244274264220400,7.403220458984375,0.04295266419649124,-0.01614672876894474,-0.057629942893981934
1783244274274232300,7.413232421875,0.033177800476551056,-0.021885842084884644,-0.05036883428692818
1783244274284244500,7.423244384765625,0.024570556357502937,-0.0015506709460169077,-0.029592206701636314
1783244274294256400,7.43325634765625,0.016133928671479225,0.015141223557293415,0.0014336197637021542
1783244274304267500,7.443267578125,0.008619092404842377,0.030022183433175087,0.027926597744226456
1783244274314279700,7.45327978515625,0.0011454629711806774,0.029104724526405334,0.04317719116806984
1783244274324291600,7.46329150390625,-0.004903965629637241,0.018009664490818977,0.048598937690258026
1783244274334303500,7.473303466796875,-0.01021643914282322,-0.005719632841646671,0.04523509740829468
1783244274344314400,7.483314453125,-0.015176813118159771,-0.01922728307545185,0.03825793415307999
1783244274354326500,7.493326416015625,-0.019683681428432465,-0.008145870640873909,0.027413543313741684
1783244274364338400,7.50333837890625,-0.023107435554265976,0.018033375963568687,0.01747623085975647
1783244274374350600,7.5133505859375,-0.02534688636660576,0.042388781905174255,0.008542390540242195
1783244274384361500,7.523361572265625,-0.023683836683630943,0.05818924307823181,0.003818497061729431
1783244274394373400,7.533373291015625,-0.01336941309273243,0.06501252949237823,0.004895479418337345
1783244274404385500,7.543385498046875,-0.00014835037291049957,0.05140981078147888,0.007908158004283905
1783244274414396400,7.553396484375,0.011048911139369011,0.029717296361923218,0.012287991121411324
1783244274424408300,7.563408203125,0.02382723055779934,0.011352337896823883,0.01866874098777771
1783244274434420200,7.573420166015625,0.031124025583267212,-0.003378670895472169,0.02402808703482151
1783244274444432400,7.583432373046875,0.032582491636276245,-0.015246274881064892,0.031199563294649124
1783244274454443500,7.593443603515625,0.03197396174073219,-0.0036231735721230507,0.036498188972473145
1783244274464455400,7.603455322265625,0.02189229428768158,0.019756872206926346,0.03901885449886322
1783244274474467600,7.613467529296875,0.019752711057662964,0.03386469930410385,0.03608911111950874
1783244274484479500,7.6234794921875,0.01921827159821987,0.043195150792598724,0.027734695002436638
1783244274494490400,7.633490478515625,0.018983913585543633,0.04882800206542015,0.01933029294013977
1783244274504502500,7.64350244140625,0.02544526755809784,0.039312951266765594,0.010762177407741547
1783244274514514400,7.653514404296875,0.03303447738289833,0.021754465997219086,0.0032403459772467613
1783244274524526300,7.6635263671875,0.03643069788813591,0.00995717290788889,-0.0058699725195765495
1783244274534537500,7.673537353515625,0.03824617713689804,0.013308761641383171,-0.004692056681960821
1783244274544549400,7.68354931640625,0.03388028219342232,0.010330087505280972,0.0044404324144124985
1783244274554561300,7.693561279296875,0.029254373162984848,0.007026968523859978,0.018911782652139664
1783244274564572400,7.703572509765625,0.019231833517551422,0.013257167302072048,0.03189336508512497
1783244274574584600,7.71358447265625,0.013785667717456818,0.02917568013072014,0.030009442940354347
1783244274584596500,7.723596435546875,0.005626995116472244,0.03629125654697418,0.02107422612607479
1783244274594608600,7.733608642578125,0.006086923182010651,0.033058710396289825,0.013101253658533096
1783244274604619500,7.74361962890625,0.020680440589785576,0.010330749675631523,0.024432353675365448
1783244274614631400,7.75363134765625,0.04025441035628319,-0.0035192857030779123,0.023138323798775673
1783244274624643600,7.7636435546875,0.0492667518556118,0.005300772376358509,0.01705814152956009
1783244274634655500,7.773655517578125,0.048331186175346375,0.006172957364469767,0.005485376343131065
1783244274644666400,7.783666259765625,0.03912769630551338,0.012911899015307426,-0.0027000789996236563
1783244274654677500,7.793677490234375,0.025299232453107834,0.024453507736325264,-0.008687131106853485
1783244274664689700,7.803689697265625,0.012332243844866753,0.014838098548352718,-0.007981578819453716
1783244274674701600,7.81370166015625,0.0007514883764088154,0.010594351217150688,-0.00632109772413969
1783244274684712700,7.823712646484375,-0.005712796002626419,0.00630970299243927,0.0024369009770452976
1783244274694724600,7.833724609375,0.0014684178167954087,0.007554197683930397,0.01229885220527649
1783244274704736500,7.843736572265625,0.008878391236066818,0.018626445904374123,0.019800251349806786
1783244274714747600,7.85374755859375,0.01568223536014557,0.019475195556879044,0.0219973586499691
1783244274724759600,7.863759521484375,0.018626868724822998,0.019886065274477005,0.016960131004452705
1783244274734771500,7.873771484375,0.016152527183294296,0.016399454325437546,0.008432423695921898
1783244274744783600,7.88378369140625,0.018582625314593315,0.013708587735891342,-0.004938303492963314
1783244274754794500,7.89379443359375,0.01850246451795101,0.012839864939451218,-0.017470072954893112
1783244274764806400,7.903806396484375,0.01979450136423111,0.0014933871570974588,-0.019826475530862808
1783244274774818600,7.913818603515625,0.02275513857603073,0.000666741980239749,-0.015940923243761063
1783244274784830500,7.92383056640625,0.030763622373342514,0.012158886529505253,-0.007724828086793423
1783244274794841600,7.933841552734375,0.03253435716032982,0.021878890693187714,0.0023381924256682396
1783244274804853800,7.943853759765625,0.0385669581592083,0.015964923426508904,0.005863613914698362
1783244274814865700,7.95386572265625,0.03332611918449402,0.009711021557450294,0.007812781259417534
1783244274824877600,7.963877685546875,0.018563449382781982,-0.0008091023191809654,0.006872016936540604
1783244274834888400,7.973888427734375,0.006376026663929224,-0.01765945553779602,0.004466117359697819
1783244274844900600,7.983900634765625,0.0033807193394750357,-0.010840652510523796,0.001548099797219038
1783244274854912500,7.99391259765625,0.003992979880422354,-0.0002974646631628275,-0.0006290343590080738
1783244274864923400,8.00392333984375,0.004841974470764399,0.00517607107758522,0.001162347849458456
1783244274874935600,8.013935546875,0.007583166006952524,0.010554325766861439,0.003963193856179714
1783244274884947500,8.023947509765625,0.00136390735860914,0.01783866249024868,0.005099691450595856
1783244274894959600,8.033959716796875,-0.007284974679350853,0.0184320155531168,0.003160377498716116
1783244274904970800,8.043970703125,-0.013487054035067558,0.009263536892831326,0.005621766205877066
1783244274914982700,8.053982666015624,-0.014326749369502068,0.00031211995519697666,0.007776529993861914
1783244274924994600,8.06399462890625,-0.00497837457805872,0.005841393955051899,0.01156244333833456
1783244274935006700,8.0740068359375,0.003087008837610483,-0.00928509421646595,0.021069929003715515
1783244274945017600,8.084017578125,0.009241681545972824,-0.026331434026360512,0.029506999999284744
1783244274955029500,8.094029541015624,0.016343533992767334,-0.012341848574578762,0.031620752066373825
1783244274965041700,8.104041748046875,0.0193159319460392,0.018114972859621048,0.020130261778831482
1783244274975053600,8.114053466796875,0.014250865206122398,0.04550505429506302,0.003189360722899437
1783244274985064400,8.124064453125,0.008684691041707993,0.06748350709676743,-0.015124225988984108
1783244274995076600,8.13407666015625,0.01252576895058155,0.07200954854488373,-0.028090624138712883
1783244275005088500,8.144088623046875,0.025472965091466904,0.04038727283477783,-0.034553106874227524
1783244275015099600,8.154099609375,0.029385413974523544,0.0076018949039280415,-0.037393368780612946
1783244275025111600,8.164111572265625,0.030677810311317444,-0.014506611041724682,-0.02913016825914383
1783244275035123700,8.174123779296876,0.02835926227271557,-0.023446574807167053,-0.008681354112923145
1783244275045135600,8.184135498046874,0.030039556324481964,-0.016743630170822144,0.017850227653980255
1783244275055146500,8.194146484375,0.02958708442747593,-0.009702233597636223,0.038490522652864456
1783244275065158700,8.20415869140625,0.028202785179018974,-0.003931601531803608,0.04758947715163231
1783244275075170600,8.214170654296876,0.020611444488167763,-0.003251163987442851,0.049309082329273224
1783244275085182700,8.2241826171875,0.01740410551428795,0.0021845425944775343,0.039136625826358795
1783244275095193600,8.234193603515624,0.011357131414115429,-0.010801829397678375,0.036077454686164856
1783244275105205500,8.24420556640625,0.009009560570120811,-0.022720690816640854,0.046370770782232285
1783244275115217700,8.2542177734375,0.01170734316110611,-0.019425561651587486,0.06757751852273941
1783244275125228500,8.264228515625,0.013385804370045662,-0.01098875142633915,0.08164597302675247
1783244275135240400,8.274240478515624,0.01776137761771679,0.009112787432968616,0.101218082010746
1783244275145252400,8.28425244140625,0.019802339375019073,0.03408182039856911,0.11718606948852539
1783244275155264500,8.294264404296875,0.013042704202234745,0.06756414473056793,0.11719832569360733
1783244275165275600,8.304275634765625,-0.012619121000170708,0.0811958834528923,0.10101566463708878
1783244275175287600,8.31428759765625,-0.042391128838062286,0.06100059673190117,0.08188005536794662
1783244275185299700,8.3242998046875,-0.035299163311719894,0.05183064192533493,0.03612601384520531
1783244275195311600,8.3343115234375,-0.01390678808093071,0.009256551042199135,-0.026936838403344154
1783244275205322500,8.344322509765625,0.013633131049573421,-0.07799585908651352,-0.09318720549345016
1783244275215334700,8.354334716796876,0.04517321288585663,-0.13956841826438904,-0.13430747389793396
1783244275225346600,8.3643466796875,0.06617520749568939,-0.14672619104385376,-0.13005594909191132
1783244275235357400,8.374357421875,0.0712040513753891,-0.1070948913693428,-0.07435140758752823
1783244275245369600,8.38436962890625,0.07072144746780396,-0.0017636790871620178,-0.0012783228885382414
