time,seconds_elapsed,z,y,x
1783244302751267000,0.03526708984375,-0.4632160619199276,-0.08046762142181396,-0.38347079995591193
1783244302761278200,0.0452783203125,-0.684951518163085,-0.012194295662641524,-0.26143055696748196
1783244302771290000,0.0552900390625,-0.7974275582641362,0.09176642954945564,-0.1360884228894487
1783244302781301200,0.06530126953125,-0.7497317411094904,0.12060323245525359,-0.07512604119814932
1783244302791313200,0.075313232421875,-0.5479471860051155,0.034739304947853086,-0.10443455326892435
1783244302801324000,0.085323974609375,-0.3470259697318077,-0.040433132675290105,-0.16318346016183494
1783244302811336000,0.0953359375,-0.2241220591187477,-0.15274609116911889,-0.18874171632099895
1783244302821347300,0.105347412109375,-0.21081658734381198,-0.18219956466853618,-0.08241440810803323
1783244302831359200,0.115359130859375,-0.18274901524484158,-0.12173252874612807,-0.033772688405402006
1783244302841371100,0.12537109375,-0.1986374892503023,-0.09436755195856093,-0.04062909363880753
1783244302851382300,0.13538232421875,-0.23771803827285765,-0.10307108289599418,-0.053917504681088024
1783244302861394200,0.145394287109375,-0.2324479889154434,-0.05846037227511405,-0.07570205098781735
1783244302871405000,0.155405029296875,-0.2107236483633518,0.004065934264659881,-0.11524543174915015
1783244302881417000,0.1654169921875,-0.23486732501685617,0.04291150548756122,-0.1679371574949473
1783244302891428400,0.175428466796875,-0.3064274173617363,-0.0064256491333246225,-0.17393420595265924
1783244302901440300,0.185440185546875,-0.322129428884387,-0.08026420780420303,-0.16366970930881797
1783244302911451100,0.195451171875,-0.2618324888318777,-0.0718652127712965,-0.153762976594083
1783244302921463300,0.20546337890625,-0.2497545130252838,-0.003942600145936012,-0.08872804823424667
1783244302931474200,0.21547412109375,-0.2938824085652828,0.052473699080944056,-0.03358622592259198
1783244302941486000,0.225486083984375,-0.2537584879696369,0.10326982033848763,-0.011310608163289725
1783244302951497000,0.2354970703125,-0.14713234294056893,0.15816928526163102,-0.03261126167690381
1783244302961509000,0.245509033203125,-0.13380407481193543,0.21287293535172938,-0.06412930302331224
1783244302971520300,0.255520263671875,-0.15643617785871028,0.12174655727148055,-0.10922452749181538
1783244302981532200,0.2655322265625,-0.10566811365187168,0.004485620981454849,-0.1298438659440726
1783244302991543000,0.27554296875,-0.05613982037305831,-0.008944353955984115,-0.08916554460236802
1783244303001555200,0.28555517578125,0.025068390282988545,0.07004559612870216,0.00009144114311784506
1783244303011567000,0.295567138671875,0.08384148176908493,0.12788228354752063,0.057755639805551616
1783244303021578000,0.305577880859375,0.07293079617619513,0.08227379406094551,0.08331345757329836
1783244303031590100,0.315590087890625,-0.009214987590909003,-0.03350304115116596,0.14528353673610836
1783244303041601300,0.325601318359375,-0.11145955653488636,-0.009614800563454628,0.235209672181122
1783244303051613200,0.33561328125,-0.1498690744280815,0.06554594662189484,0.3059389397250488
1783244303061624000,0.3456240234375,-0.19816928721666335,0.1364104579180479,0.36756672652252015
1783244303071636200,0.35563623046875,-0.1917003834635019,0.16514380044937133,0.33714776899181303
1783244303081647000,0.365647216796875,-0.10837795713245868,0.16493337256908416,0.26151324854856356
1783244303091659000,0.375658935546875,0.00636953503191471,0.15019465312063693,0.13272239878876135
1783244303101670100,0.385670166015625,0.07680208465158939,0.11390987229645251,-0.014058683028724043
1783244303111682300,0.395682373046875,0.1079898345977068,0.06425882942080498,-0.07674405258772894
1783244303121693200,0.405693115234375,0.1635118153333664,0.05535305390954017,-0.026866690142918377
1783244303131705000,0.415705078125,0.25249241355657576,0.07098842993676661,0.05289654586920514
1783244303141716200,0.42571630859375,0.2867307832449674,0.09505904135406017,0.15065938455555586
1783244303151728000,0.43572802734375,0.29924013620615003,0.09126374072432518,0.2837514021079987
1783244303161740000,0.445739990234375,0.3149579298198223,0.0845528449088335,0.3905167729446664
1783244303171751200,0.455751220703125,0.2791220618069172,0.06144961721897125,0.4722913122465834
1783244303181763000,0.46576318359375,0.25092355680465694,0.02920037552118301,0.48670408767629414
1783244303191774200,0.475774169921875,0.32146833462715146,0.03499357196986675,0.46194677263647316
1783244303201786000,0.4857861328125,0.4103127392500639,0.10024375051558017,0.4345067578513175
1783244303211797200,0.49579736328125,0.49378655675053595,0.20466274088919162,0.4205627689771354
1783244303221809200,0.50580908203125,0.49659167729914183,0.2755652461081743,0.3988183720177039
1783244303231820000,0.515820068359375,0.5189350265324115,0.3509983804941177,0.3855292303230613
1783244303241832200,0.525832275390625,0.6148930625528097,0.4108785564392805,0.37108872663620857
1783244303251843300,0.53584326171875,0.6913304055452346,0.44279695874750613,0.259479715160653
1783244303261855200,0.545855224609375,0.7426227858871222,0.43743630849719045,0.13462823241008445
1783244303271866000,0.5558662109375,0.8189771267712116,0.5073065480589867,0.04600050274515524
1783244303281878300,0.565878173828125,0.8260796522527932,0.6478033985078334,0.04332984506406355
1783244303291889200,0.57588916015625,0.7146586741626262,0.7397627202808856,0.031044688213616608
1783244303301901000,0.585901123046875,0.6429734941333531,0.7039771211504936,-0.060406117781717325
1783244303311912000,0.595911865234375,0.6065034198701381,0.5798842930138111,-0.20444739937176926
1783244303321924000,0.605924072265625,0.5832067154347896,0.4688707266807556,-0.2499083518801257
1783244303331936000,0.61593603515625,0.4966495449662208,0.4625573057502508,-0.14275456624776123
1783244303341947100,0.625947021484375,0.3207973034977913,0.5909112984627485,0.03354148716514464
1783244303351959300,0.635959228515625,0.23106968629956243,0.7907967419475317,0.22359805351095272
1783244303361970200,0.64597021484375,0.2701636793255806,1.0031266564637422,0.3317298355963081
1783244303371982000,0.655982177734375,0.3677992931693792,1.0031447766423225,0.2674771071227267
1783244303381993000,0.665992919921875,0.458709398150444,0.7511328400790691,0.11062858560346066
1783244303392005000,0.676005126953125,0.5530839643716812,0.43831250680983064,-0.0674729417622555
1783244303402016300,0.686016357421875,0.5968956335693597,0.19467033918499946,-0.14432777038123457
1783244303412028200,0.696028076171875,0.5767354735940694,0.13534019833803176,-0.11036657366640865
1783244303422039000,0.7060390625,0.5133177711725234,0.23938743278980254,0.05956718273954466
1783244303432051200,0.71605126953125,0.3997451680064201,0.477961795631051,0.23748424778329208
1783244303442062000,0.72606201171875,0.36410277673900127,0.708185678756237,0.4056137677788734
1783244303452074000,0.736073974609375,0.4294686906188726,0.8813555492728948,0.47613100000731645
1783244303462085000,0.746085205078125,0.4498807795286178,0.793144181856513,0.34582678654249754
1783244303472097300,0.75609716796875,0.4477373377591371,0.42026831607520576,0.1219544826674275
1783244303482108200,0.766108154296875,0.42872810138463974,-0.04722118538022041,-0.09504192582247778
1783244303492120000,0.7761201171875,0.2711696414977312,-0.39256431659162044,-0.16432561593428252
1783244303502132200,0.78613232421875,0.0496224013030529,-0.4717068268895149,-0.019456085092853754
1783244303512143000,0.79614306640625,-0.1949906571805477,-0.3415168509215116,0.25236020201165227
1783244303522155000,0.806155029296875,-0.411578813663125,-0.2214244905978441,0.44161929327026006
1783244303532166100,0.816166259765625,-0.5561866065621376,-0.22606734796762465,0.5026018774993717
1783244303542178000,0.826177978515625,-0.5705009631186724,-0.3311480171203613,0.41472887519188223
1783244303552189200,0.836189208984375,-0.5996212591409683,-0.5147884282469749,0.24241452552601694
1783244303562201300,0.846201416015625,-0.6091442897677422,-0.6102092886507511,0.16653857927601784
1783244303572212200,0.856212158203125,-0.6397083548575639,-0.5508399848371743,0.19562873588837681
1783244303582224100,0.86622412109375,-0.6568985591113568,-0.4369453101098537,0.2092014072321355
1783244303592235000,0.876235107421875,-0.7514063963234424,-0.4031488389700651,0.22694953762963413
1783244303602247200,0.8862470703125,-0.7863935385525226,-0.43176469260156153,0.22096922111101447
1783244303612258300,0.89625830078125,-0.8231850998550653,-0.4499526757210493,0.14757866193596272
1783244303622270200,0.906270263671875,-0.8470593119174241,-0.5194821390211581,0.05757792688477784
1783244303632281000,0.916281005859375,-0.8553577691853046,-0.5586147104918956,0.01345141958426684
1783244303642293200,0.926293212890625,-0.858217834791541,-0.5179086060941219,0.05239248707089573
1783244303652304100,0.93630419921875,-0.8506324942290783,-0.4795633856087923,0.11254450222738087
1783244303662316000,0.94631591796875,-0.8308283080846071,-0.4718798453688621,0.09586118804980069
1783244303672327200,0.9563271484375,-0.795367118602991,-0.4951701200634241,0.07088628473654389
1783244303682338600,0.966338623046875,-0.7280687753558158,-0.48274552277624605,0.05287183155305683
1783244303692350700,0.976350830078125,-0.6675614074230194,-0.4415712163448334,0.008889372365735471
1783244303702361600,0.986361572265625,-0.5850730938285589,-0.4546253437072038,-0.03142459090929478
1783244303712373500,0.99637353515625,-0.5299029952704906,-0.47301031070351596,-0.10601676269276067
1783244303722384400,1.00638427734375,-0.5504401718646288,-0.4943891988188028,-0.15689513713996855
1783244303732396500,1.016396484375,-0.5341688360214233,-0.4829261400401592,-0.17529848004318774
1783244303742407700,1.02640771484375,-0.4816331776201725,-0.43961306801438327,-0.1763183976754546
1783244303752419600,1.036419677734375,-0.4490986892402172,-0.3901215996146202,-0.1575323938638903
1783244303762430500,1.046430419921875,-0.42919805698394775,-0.3742804718822241,-0.12310310471327975
1783244303772442600,1.056442626953125,-0.46600130872428414,-0.3782657421261072,-0.07505818186001852
1783244303782453500,1.06645361328125,-0.44498716226816176,-0.31824820353686806,-0.013546477456577121
1783244303792465400,1.07646533203125,-0.4328986650675535,-0.3121142308264971,0.008449318714346735
1783244303802476300,1.086476318359375,-0.3692945001631975,-0.30468495760858055,0.015090154101466758
1783244303812488400,1.096488525390625,-0.2645563608378172,-0.2590449039399624,0.04756542310747318
1783244303822499600,1.10649951171875,-0.1499965002000332,-0.22368366770148276,0.03912082623401657
1783244303832511500,1.116511474609375,-0.11419044280350207,-0.23311609743535516,0.04126816786048002
1783244303842522600,1.126522705078125,-0.0705927086174488,-0.2365489944934845,0.06324712249445728
1783244303852534500,1.136534423828125,-0.008107318609952925,-0.20722879198491573,0.06584528119491878
1783244303862546400,1.14654638671875,-0.01666355003118515,-0.1730658256202936,0.05355236116312444
1783244303872557600,1.1565576171875,0.004718845215439796,-0.16513795523047448,0.03234270583463367
1783244303882569500,1.166569580078125,0.027225276055932043,-0.10108663108050822,-0.001428534965775907
1783244303892580600,1.17658056640625,0.023081600379943848,-0.04288286391496658,-0.029113071697065604
1783244303902592500,1.186592529296875,0.04474573517739772,0.013230068451166152,-0.05117262185316067
1783244303912603600,1.196603759765625,0.02142564986646175,0.009960837522149085,-0.05262079310116823
1783244303922615600,1.206615478515625,-0.019185177463293075,-0.06594575959444046,-0.08090384828145615
1783244303932626400,1.21662646484375,-0.043939679491519924,-0.11711071416437625,-0.03252762024775147
1783244303942638600,1.226638671875,-0.08654898716211318,-0.07148468902111053,0.015681925432558638
1783244303952649500,1.2366494140625,-0.112368488073349,-0.008550970724225044,0.05853156978122424
1783244303962661600,1.24666162109375,-0.11763970647454261,0.05820785881876945,0.08309973262422718
1783244303972672500,1.256672607421875,-0.10739069966077804,0.0727361503869295,0.04556400189087726
1783244303982684700,1.2666845703125,-0.1040156702697277,0.03434066101908684,0.007326373390801018
1783244303992695600,1.276695556640625,-0.07102700838148593,0.028791210198402403,-0.02711087872891221
1783244304002707500,1.28670751953125,-0.05526596014797687,0.007829086190462112,-0.051476290108007375
1783244304012718300,1.29671826171875,-0.05625555570721626,-0.031193595165014264,-0.030671605701080986
1783244304022730500,1.30673046875,-0.08025134832262992,-0.05322364066541194,0.00949098238754086
1783244304032741600,1.31674169921875,-0.0990273604631424,-0.07470248202383518,0.0656761762722861
1783244304042753500,1.32675341796875,-0.14082359818518161,-0.07525836234092712,0.10676986434869468
1783244304052765700,1.336765625,-0.18515607638657092,-0.05847381627857685,0.1370300511211157
1783244304062776600,1.346776611328125,-0.191888599511981,-0.04453998347222805,0.1315502040710766
1783244304072788500,1.35678857421875,-0.1969429602921009,-0.01923895347714424,0.11499066240363753
1783244304082799400,1.36679931640625,-0.24091186587810515,0.012637947776913643,0.054689384102728215
1783244304092811500,1.3768115234375,-0.27309622564613817,0.035054362246394154,0.00439359988302458
1783244304102822700,1.38682275390625,-0.3419926517397165,0.025977321821451186,-0.01866230436665937
1783244304112834600,1.39683447265625,-0.3661164546489715,0.043427638316154475,-0.07751094530699774
1783244304122845400,1.406845458984375,-0.357697001349926,0.02144143195748329,-0.10787563363350927
1783244304132857600,1.416857666015625,-0.33926410355865955,0.04188274696171283,-0.17176310899127273
1783244304142868500,1.426868408203125,-0.28440730873346326,0.038920974546670914,-0.1867384867398068
1783244304152880400,1.43688037109375,-0.2185188322842121,0.04357259974479675,-0.1888084066153504
1783244304162891500,1.4468916015625,-0.13162789981663225,0.058224809953570364,-0.1637438157246448
1783244304172903400,1.4569033203125,-0.03830839560627937,0.026409868019819257,-0.09367299382314086
1783244304182914600,1.46691455078125,0.0012076222240924835,0.012826748347282408,-0.021734857379528693
1783244304192926500,1.476926513671875,0.0072153382062911985,0.00883563288450241,0.032784056393965144
1783244304202937600,1.4869375,-0.02143500221669674,0.020338439151644707,0.08378396116187796
1783244304212949500,1.496949462890625,-0.07296060679256916,0.022467267873883246,0.16962036134153605
1783244304222960400,1.50696044921875,-0.1242500645250082,-0.017583587485551833,0.19453038272503761
1783244304232972500,1.51697265625,-0.16025778197348117,-0.053170449173450464,0.1809060359929688
1783244304242983700,1.526983642578125,-0.18341712376475333,-0.037214170628786084,0.15297071197154
1783244304252995600,1.53699560546875,-0.24234920520484446,0.04110065667331218,0.1248393082555849
1783244304263007500,1.547007568359375,-0.24610475834608075,0.13009879055321216,0.0531374328198377
1783244304273018600,1.5570185546875,-0.19430852013528346,0.15532675531208515,-0.004488233063649386
1783244304283030500,1.567030517578125,-0.09505202709138393,0.12937456793189048,-0.07883596509937196
1783244304293041400,1.57704150390625,0.031962241449952127,0.05025543850958347,-0.13932451873384416
1783244304303053600,1.587053466796875,0.13655951099991798,-0.017673603856563566,-0.16576832555588333
1783244304313064400,1.597064453125,0.16450725611150263,-0.05109188933372497,-0.16473898250814525
1783244304323076600,1.60707666015625,0.15433423714339733,-0.043623453149199486,-0.10644571956139988
1783244304333087500,1.61708740234375,0.1266588792324066,-0.012002572482824325,-0.05080067870165221
1783244304343099600,1.627099609375,0.06020633915960789,-0.0034650457620620727,-0.019563838049955665
1783244304353110500,1.637110595703125,0.012752514067292213,0.0048895256072282785,-0.022908883294695988
1783244304363122400,1.647122314453125,-0.04879705639481544,0.01410159058868885,0.040072199541563165
1783244304373133300,1.65713330078125,-0.12981997361183165,0.02028817026913166,0.10383253225516527
1783244304383145500,1.6671455078125,-0.1596989790469408,-0.0027981062859296795,0.06858134139557369
1783244304393156600,1.677156494140625,-0.19839900431931018,-0.0771586430042982,0.011264586197631432
1783244304403168500,1.68716845703125,-0.26135434992611406,-0.11693711116313933,-0.0014429470836184919
1783244304413179600,1.6971796875,-0.31471593775749207,-0.08977028729617595,0.010497940073534846
1783244304423191600,1.707191650390625,-0.33768472541272637,-0.04419570007920265,0.0208993975026533
1783244304433202400,1.717202392578125,-0.3279454216867685,-0.0021469489008188246,-0.005215067767165601
1783244304443214300,1.72721435546875,-0.2976853079795837,-0.018135376149415967,-0.057717572817485775
1783244304453226500,1.7372265625,-0.2610825472474098,-0.032815643408894535,-0.095132800710015
1783244304463237600,1.747237548828125,-0.19588263758420943,-0.044941550010442734,-0.10323787256395443
1783244304473249500,1.75724951171875,-0.17413550067842007,-0.05786415994763374,-0.07556098941615783
1783244304483260700,1.7672607421875,-0.19580021999776362,-0.10218260962367057,-0.017061234978726133
1783244304493272600,1.7772724609375,-0.22203765406012535,-0.10051029249727725,0.03378002232848666
1783244304503283500,1.787283447265625,-0.21727438518106937,-0.060877370288968086,0.10761786861331202
1783244304513295400,1.79729541015625,-0.16564882736206055,-0.007232873862981796,0.1296717881796416
1783244304523306500,1.807306396484375,-0.12708499568998813,0.023416531422734258,0.134507473840937
1783244304533318400,1.817318359375,-0.07604103715121746,-0.0007177928805351257,0.07420541008873842
1783244304543329500,1.82732958984375,-0.00898994666337967,-0.04085398843586445,-0.003579529854049906
1783244304553341700,1.837341796875,0.06328735404014588,-0.05480243428945541,-0.028969708570465443
1783244304563352600,1.8473525390625,0.1320394032269716,-0.004085808008909226,-0.00616308920700103
1783244304573364500,1.857364501953125,0.1678115583539009,0.03250584680736065,0.022156174364406613
1783244304583375400,1.867375244140625,0.18714169724583624,0.03131283763051033,0.02027068941136822
1783244304593387500,1.877387451171875,0.19330781866014002,0.014191022437810896,0.02015952065447345
1783244304603398700,1.887398681640625,0.18773323339819908,-0.013761983370780944,0.040596086418349296
1783244304613410600,1.89741064453125,0.15337211411297322,-0.010000000488758086,0.04612153530893847
1783244304623421400,1.90742138671875,0.10592471876144409,0.020314473754167554,0.06684634342966601
1783244304633433600,1.91743359375,0.09846095875203609,0.06870353386998176,0.05649630566053092
1783244304643444500,1.927444580078125,0.04344868110418319,0.07502046193182468,0.061227681563980875
1783244304653456400,1.937456298828125,-0.01666355003118515,0.044808863541483876,0.0032675138959661126
1783244304663468500,1.947468505859375,0.004611877709627152,0.06284311740398407,-0.04128817860204726
1783244304673479700,1.957479736328125,0.0093283848375082,0.09179799373149872,-0.08015705763529986
1783244304683491600,1.96749169921875,0.04411795866787433,0.09394611167609691,-0.06654971683695912
1783244304693502700,1.977502685546875,0.13191080841124056,0.11825403898060322,-0.04433587573487311
1783244304703514600,1.9875146484375,0.22660452358424663,0.14371931962668894,-0.026222163427993654
1783244304713525500,1.997525390625,0.25177871232926846,0.07490355755388736,0.017770999816432594
1783244304723537400,2.007537353515625,0.25644495057463645,0.024182255098223686,0.053243076018244025
1783244304733548500,2.017548583984375,0.23973814592361448,-0.02113689605295658,0.06023256957940757
1783244304743560400,2.027560546875,0.1612888785868883,0.020530746853351593,0.05495735085653141
1783244304753571600,2.037571533203125,0.08930851500332355,0.07978373081088065,0.05235887706223875
1783244304763583700,2.047583740234375,-0.022969372177124022,0.08336918808221816,0.029467136698588726
1783244304773594600,2.0575947265625,-0.1261287178784609,0.11093874753117561,-0.01931435680091381
1783244304783606500,2.0676064453125,-0.15069558838009833,0.10231529609262943,-0.08513248969400301
1783244304793617400,2.077617431640625,-0.15656827980577945,0.08843465477824211,-0.14542539289221168
1783244304803629600,2.087629638671875,-0.22093466125428676,0.013412439280748367,-0.1725564330597408
1783244304813640700,2.097640625,-0.2775461907923221,-0.0013707038313150405,-0.14987535803839563
1783244304823652600,2.107652587890625,-0.2052957780957222,0.061926002559065815,-0.0419044290705584
1783244304833663500,2.11766357421875,-0.16527356430888174,0.1550713192462921,0.056971923815645274
1783244304843675600,2.127675537109375,-0.11957330488562583,0.14938684386909007,0.0816179422344081
1783244304853686500,2.1376865234375,-0.07158055061101913,0.05786299090385437,0.019172025720775126
1783244304863698400,2.147698486328125,-0.028587796580791473,-0.012609306204319,0.0010195705723948776
1783244304873709600,2.15770947265625,0.015629530808329583,0.044345337682962414,0.01990311647430062
1783244304883721500,2.167721435546875,0.01161678803563118,0.09980419005453586,0.06503962280126288
1783244304893732600,2.177732666015625,0.007622749963402748,0.062194882628321645,0.07083455454930662
1783244304903744500,2.18774462890625,0.054964346852898596,-0.005295768320560455,0.0366843380684033
1783244304913756700,2.197756591796875,0.030804303586483,-0.013114917638897895,0.02500254023885354
1783244304923767600,2.207767578125,0.0051531449794769285,0.004660977548360824,0.031092856470588594
1783244304933779500,2.217779541015625,-0.029354104778170582,0.010364157626032829,0.033721031283400954
1783244304943790600,2.22779052734375,-0.06279518660902976,-0.030165421161055563,-0.0014764657607302068
1783244304953802500,2.237802490234375,-0.017105448579788206,-0.04808335516750812,-0.025314693194255233
1783244304963813600,2.247813720703125,0.03415186044871807,0.0013268646895885467,-0.01370186894768849
1783244304973825500,2.257825439453125,0.07483399944901466,0.04442483265995979,0.026352219548448918
1783244304983836700,2.267836669921875,0.10452478883564471,0.005143208107352256,0.0765915106408298
1783244304993848600,2.2778486328125,0.13353168761134146,-0.05162088164389133,0.12536253754524512
1783244305003859500,2.287859375,0.18501169947981833,-0.026116438031196593,0.1829328108465299
1783244305013871600,2.29787158203125,0.13671440930068493,0.023242928421497343,0.19442882204670459
1783244305023882800,2.3078828125,0.0718827484279871,0.02035305219888687,0.19780290158968417
1783244305033894700,2.317894775390625,0.10403379044830799,0.009331307446956634,0.158166855842527
1783244305043905500,2.327905517578125,0.15706863054335116,0.04256079235374927,0.1321925114294514
1783244305053917700,2.337917724609375,0.13678747453689574,0.07497545374631881,0.09825975535782054
1783244305063928600,2.347928466796875,0.12567980506718157,0.06936053647398949,0.05447343979710713
1783244305073940500,2.3579404296875,0.045828854238986964,-0.0016670564293861387,-0.003998129725456237
1783244305083951400,2.367951416015625,-0.036654783180356025,0.0003705868780612945,0.018165753021370617
1783244305093963500,2.377963623046875,-0.08412088323235511,0.11121931803822517,0.08168561890944838
1783244305103974700,2.387974609375,-0.10359598355293273,0.19557634811401367,0.1193442088374868
1783244305113986600,2.397986572265625,-0.10817805064618587,0.1242062253832817,0.08824841149114072
1783244305123997400,2.40799755859375,-0.028429975670576094,0.03614800270199776,0.016356822169572113
1783244305134009600,2.418009521484375,0.05041384394168853,0.02745674672424793,-0.005724916985444724
1783244305144021500,2.428021484375,0.020645897665619847,0.03221124777495861,0.020106000368949023
1783244305154032400,2.438032470703125,0.02582300804257393,0.019071780216693878,0.033568544135428965
1783244305164044500,2.44804443359375,0.10235913523435593,0.050743514287471765,0.04899782139761373
1783244305174055700,2.4580556640625,0.11688976489007473,0.06407879667878151,0.06778985309116542
1783244305184067600,2.468067626953125,0.05432020373046398,-0.005479892715811729,0.06175523083573207
1783244305194078500,2.478078369140625,0.04085983365476131,-0.05745557914674282,0.04505516645275056
1783244305204090600,2.488090576171875,0.04722469251155853,-0.018866613033413887,0.05055339854285121
1783244305214101500,2.4981015625,-0.017898644784092903,0.029256489622592925,0.055420858448743816
1783244305224113400,2.508113525390625,-0.04582768519520759,0.03518471062779426,0.021403054442163557
1783244305234124500,2.51812451171875,-0.03097030780315399,0.03142681939899921,0.0005541998166590929
1783244305244136400,2.528136474609375,0.00007715688943862914,0.02325871051251888,-0.023232918484136462
1783244305254147600,2.538147705078125,0.01694528958201408,0.0023696517407894133,-0.04269508625790477
1783244305264159700,2.54815966796875,0.04570727368593216,0.0018289689928293227,-0.026500359314866363
1783244305274170600,2.558170654296875,0.05392039075791835,-0.003118424281477928,-0.021095486330334097
1783244305284182500,2.5681826171875,0.07765782469809054,0.01888297964632511,-0.02292061939826235
1783244305294193400,2.578193359375,0.07653729623556137,0.019283961662650107,-0.035751258469372986
1783244305304205600,2.58820556640625,-0.01551847164928913,-0.038707039535045625,-0.0410329434656538
1783244305314216700,2.598216796875,-0.026265491113066673,-0.04836567924022674,-0.043537126572616394
1783244305324228600,2.608228515625,-0.014981296032667159,-0.011820786175131798,-0.06566615720177069
1783244305334239500,2.618239501953125,-0.025756372547149655,0.0325906024813652,-0.09013234380790963
1783244305344251600,2.628251708984375,-0.05964286005795002,0.01000467666387558,-0.12038880425328388
1783244305354262500,2.638262451171875,-0.009168225839734078,-0.012331073784828185,-0.15556354147633536
1783244305364274400,2.6482744140625,0.03182254071831703,0.02448971361219883,-0.15876304990369824
1783244305374285600,2.65828564453125,0.01014671548306942,0.04298398620188236,-0.13992595522571355
1783244305384297700,2.668297607421875,-0.03450666523575783,-0.014250059148669243,-0.06952800199538468
1783244305394309600,2.6783095703125,-0.01156885724067688,-0.04751227728128433,-0.03449707542350516
1783244305404320500,2.688320556640625,-0.014351765957474708,-0.04545183762013912,0.008608673994522541
1783244305414332700,2.698332763671875,-0.029615386062860488,-0.04085749556720256,0.012052128979284316
1783244305424343600,2.708343505859375,-0.06654255644381046,-0.057173839595913885,-0.047144887007307255
1783244305434355500,2.71835546875,-0.12254033799767493,-0.10795125615298748,-0.11248690855493769
1783244305444366300,2.728366455078125,-0.1757540417909622,-0.12782441588044166,-0.13839432521164416
1783244305454378500,2.73837841796875,-0.2353197449594736,-0.07308920160830021,-0.10942083551520482
1783244305464389600,2.7483896484375,-0.2513350602149963,0.008253449082374572,-0.06901420725435019
1783244305474401500,2.758401611328125,-0.2874883236140013,0.03246960645020008,-0.04001808560099453
1783244305484412700,2.76841259765625,-0.26803718869090076,-0.010630699607729912,-0.048606136932596564
1783244305494424600,2.778424560546875,-0.1732189703553915,-0.0010258359163999556,-0.03891087327776477
1783244305504435500,2.788435546875,-0.10039631072878837,0.031842414462566374,-0.005482358667533845
1783244305514447400,2.798447265625,-0.05484685795307159,0.0014724106401205062,0.018972027902957052
1783244305524458800,2.808458740234375,0.05576105018854141,-0.018961305579543113,0.0348832069305703
1783244305534470700,2.818470703125,0.1620341439962387,-0.00505202269256115,0.07190439400421456
1783244305544481500,2.8284814453125,0.1731231087654829,0.03548632392287254,0.09441265147561206
1783244305554493700,2.83849365234375,0.13121464284062384,-0.003202595433592796,0.0472511603933759
1783244305564504600,2.848504638671875,0.13515782750844954,-0.06454875227808952,0.02902558520985767
1783244305574516500,2.8585166015625,0.12587445085644722,-0.02317980005741119,0.00034594562714919446
1783244305584527600,2.868527587890625,-0.024610125121474265,0.04813362405002117,-0.04524014936452731
1783244305594539500,2.87853955078125,-0.08167641268968581,0.05429390024542808,-0.027378548655193298
1783244305604550700,2.888550537109375,0.05003682732284069,0.0667629211962223,0.01557842167560011
1783244305614562600,2.8985625,0.12887889336943625,0.014010405173897742,0.03934579409630969
1783244305624573400,2.908573486328125,0.1489192263573408,-0.05078326177597046,0.04821814226200804
1783244305634585600,2.918585693359375,0.17337620674371718,-0.060226797425746915,0.0819200121872127
1783244305644596500,2.928596435546875,0.09772679925858974,-0.03812719382047653,0.11979531360585242
1783244305654608400,2.9386083984375,-0.046349078720808026,-0.003615852409601211,0.1309111298494041
1783244305664620500,2.94862060546875,-0.15675123515725134,0.016231003832817077,0.15473187642516567
1783244305674631700,2.958631591796875,-0.20885200927257536,0.0013859014004468917,0.11843007140094414
1783244305684643600,2.9686435546875,-0.2552963650614023,-0.026267244678735733,0.040266361273638904
1783244305694654500,2.978654541015625,-0.24363164623081682,-0.01945639562010765,-0.010043182043358682
1783244305704666400,2.988666259765625,-0.21183190186619758,0.037059856849908826,-0.05335064631225541
1783244305714677200,2.99867724609375,-0.12664777331650257,0.09894728096425533,-0.05737736281137913
1783244305724689400,3.008689453125,-0.051532618838548656,0.11228723953068255,-0.07685034424010664
1783244305734700500,3.018700439453125,0.05404430939853191,0.09627718497216702,-0.09181348356157541
1783244305744712400,3.02871240234375,0.13011281907856465,0.06642389850020408,-0.08940651375139132
1783244305754723300,3.038723388671875,0.13556582378745077,0.05941080486774444,-0.05247192724896595
1783244305764735500,3.048735595703125,0.08375380348563194,0.019681436547636984,0.014901764523051678
1783244305774746400,3.058746337890625,0.02815875751376152,0.025290508601069447,0.05910444233231246
1783244305784758300,3.06875830078125,-0.014370470657944678,0.025784429597854614,0.07106061839014291
1783244305794769400,3.078769287109375,-0.0685971508860588,0.04063245463967323,0.06916117797698826
1783244305804781300,3.08878125,-0.07746610151827335,0.08849486053287982,0.03634326954577118
1783244305814792400,3.09879248046875,-0.053280339288711544,0.10190437720417976,-0.009297222514264285
1783244305824804400,3.108804443359375,0.004727613043785095,0.05473229166269302,-0.07028671140819788
1783244305834815500,3.1188154296875,0.053314826080203055,0.06411737512350082,-0.08462552655255422
1783244305844827400,3.128827392578125,0.08505962538719176,0.08405366321504115,-0.028964265210367737
1783244305854838300,3.13883837890625,0.12072364396452903,0.08074585384130477,-0.012588957536034286
1783244305864850200,3.14885009765625,0.1483271056830883,0.0503238275706768,0.021644169721659272
1783244305874861600,3.158861572265625,0.13311667706966399,0.004827566286921501,0.06305674188835546
1783244305884873500,3.16887353515625,0.09182780434787273,-0.013353987091779708,0.11885615132590756
1783244305894884400,3.17888427734375,0.04277531188726425,0.014684943434596061,0.14657788739558308
1783244305904896500,3.188896484375,-0.006545476120710373,0.06653495765924454,0.1661709880726412
1783244305914907400,3.198907470703125,-0.03496142326593399,0.07546645213365555,0.11556437977151944
1783244305924919300,3.208919189453125,-0.03501578380167484,0.05669686973392963,0.034935722569096835
1783244305934930400,3.218930419921875,-0.0737690005660057,-0.0028752631753683087,-0.032588118263334034
1783244305944942600,3.228942626953125,-0.09000175796449184,-0.01532850203514099,-0.06520127963637933
1783244305954954500,3.23895458984375,-0.09706512047946453,0.03010579992830753,-0.05761504402477294
1783244305964965400,3.24896533203125,-0.07625380311906338,0.09502397004067897,-0.04294537122454494
1783244305974977500,3.2589775390625,-0.061515083670616144,0.07721241901814938,-0.026627986016217617
1783244305984988400,3.268988525390625,-0.03304769859910011,0.02484510292112827,0.0012273863704875111
1783244305995000300,3.279000244140625,-0.0191448454529047,-0.01170388179719448,0.0527153075507842
1783244306005011200,3.28901123046875,0.061308162921667096,-0.01856324617266655,0.09701923551112412
1783244306015023400,3.2990234375,0.07144903318583964,-0.01577156962752342,0.1146337843905203
1783244306025034500,3.309034423828125,0.07536942149996757,-0.048209611895680425,0.06119233625596389
1783244306035046400,3.31904638671875,0.12395137383937835,-0.03370470120310783,-0.01007313879020512
1783244306045057300,3.329057373046875,0.10575053123831749,-0.002329319730401039,-0.040328777251672
1783244306055069400,3.3390693359375,0.06245441034734249,-0.0075479311615228644,-0.0596207760903053
1783244306065080300,3.349080322265625,0.03212590757906437,0.01429156020283699,-0.059238462241832164
1783244306075092200,3.35909228515625,0.02716448577940464,0.03269873903095722,-0.05059153859615326
1783244306085103600,3.369103515625,0.07893909668028354,0.04244681058526039,-0.08103884543851017
1783244306095115500,3.379115478515625,0.1300187110543251,0.06028583413660526,-0.08789391723135485
1783244306105126400,3.38912646484375,0.16049977403581142,0.06429390073418617,-0.06989376656785606
1783244306115138300,3.39913818359375,0.17072364640831947,0.04688216268420219,-0.05219997843978926
1783244306125149400,3.4091494140625,0.11807868241369723,-0.007846037325263023,-0.02032956172544509
1783244306135161300,3.419161376953125,0.056768765926361084,-0.028971827462315556,0.032916637831646944
1783244306145172500,3.42917236328125,-0.06263385856747627,0.03887421279549599,0.0942032647749409
1783244306155184400,3.439184326171875,-0.19313655374646185,0.08251169447004794,0.07906542647369205
1783244306165195500,3.449195556640625,-0.27033611328303814,0.07864566669166087,0.02927137666447088
1783244306175207400,3.45920751953125,-0.3033545857876539,0.03701367962062359,-0.04690187203167006
1783244306185218300,3.46921826171875,-0.2995154460161924,0.016906711137294767,-0.13561717038219795
1783244306195230500,3.47923046875,-0.24632863022983073,0.06927227366864681,-0.14584422109248116
1783244306205241300,3.489241455078125,-0.14772738622426987,0.17806290325522423,-0.11621498916735871
1783244306215253200,3.499253173828125,0.07359539756476878,0.26452655022144317,-0.07789079320374875
1783244306225264400,3.509264404296875,0.2992500730782747,0.23530571643412113,-0.1168747499840334
1783244306235276500,3.519276611328125,0.5042617735356092,0.12604746933579444,-0.17421309595927595
1783244306245288400,3.529288330078125,0.6229799228966236,-0.0021399346381425857,-0.19848447237936778
1783244306255299300,3.53929931640625,0.6407026265919208,0.0076876318931579585,-0.12099917297028004
1783244306265311500,3.5493115234375,0.5563835904389619,0.09447218137681483,0.014323243115888907
1783244306275322400,3.559322265625,0.4220493542730808,0.16413783827722073,0.14346625818107275
1783244306285334300,3.569334228515625,0.32464462657570836,0.22922551973760127,0.15988978891130537
1783244306295345400,3.579345458984375,0.30709727944731713,0.2602496035546064,0.08200254850466736
1783244306305357600,3.589357666015625,0.28370179081261154,0.241249719530344,-0.006495289436588063
1783244306315368400,3.599368408203125,0.2556833185523748,0.24156243874132632,-0.07689263987871818
1783244306325380400,3.60938037109375,0.22555413774847982,0.2417155834764242,-0.1107785246013198
1783244306335391200,3.61939111328125,0.18210019594728946,0.22394027281105516,-0.06884406571867875
1783244306345403400,3.6294033203125,0.21922727281451224,0.2846843721091747,-0.010642426578141748
1783244306355414300,3.639414306640625,0.3087222503006458,0.4068862719327211,0.022427136792894452
1783244306365426200,3.64942626953125,0.3837561562359333,0.511074960681796,0.04183840549648739
1783244306375437600,3.6594375,0.506132828104496,0.6051368076920509,0.047396222286717964
1783244306385449500,3.669449462890625,0.6160404790222644,0.6827589765548706,0.09732747034323401
1783244306395460400,3.67946044921875,0.7178571779429912,0.6972954514294862,0.08405204664668998
1783244306405472300,3.68947216796875,0.963549848356843,0.6378548359453677,0.011411218993552028
1783244306415483400,3.6994833984375,1.1253607049912213,0.6041314300417899,-0.0410640966557432
1783244306425495300,3.709495361328125,1.251566579759121,0.7265344053953886,0.019501641267631202
1783244306435506400,3.71950634765625,1.2889075916379689,0.8328361407756805,0.03892885189244989
1783244306445518600,3.7295185546875,1.1963128945708275,0.9101052584171294,-0.004950786241213791
1783244306455529500,3.739529541015625,1.2464958523660898,0.9902408714056015,0.012931576411647256
1783244306465541400,3.749541259765625,1.4093641090989113,1.1421084261745214,0.1846240518691018
1783244306475552300,3.75955224609375,1.5416577793478965,1.124462294846773,0.2734320334717631
1783244306485564400,3.769564453125,1.6331734490066765,0.8114572526603937,0.2351502701440826
1783244306495575600,3.779575439453125,1.6112778435409068,0.4707306753337383,0.18519140342827886
1783244306505587500,3.78958740234375,1.3082991053283213,0.388452789619565,0.20120253569902852
1783244306515598300,3.799598388671875,0.8340648057878017,0.6375637440443038,0.31391419292055067
1783244306525610500,3.809610595703125,0.4686737428039312,0.9445283370226621,0.39119664496760814
1783244306535621400,3.819621337890625,0.33280630572140213,1.1387678835749626,0.3796067084062844
1783244306545633300,3.82963330078125,0.2901455601245165,1.0932248605400323,0.25473670361833645
1783244306555644400,3.83964453125,0.4439700941801071,0.9976502708792686,0.009870528890192508
1783244306565656300,3.84965625,0.6538286501467228,1.0133142884790898,-0.18680508570261298
1783244306575668200,3.859668212890625,0.7930459821790456,1.024594976428151,-0.3441229417666793
1783244306585679400,3.869679443359375,0.7735591914206743,0.9394996952056884,-0.46199320559408513
1783244306595691500,3.87969140625,0.6311264044731855,0.7783499328285455,-0.4677026327494532
1783244306605702400,3.889702392578125,0.5193932916939258,0.719535924810171,-0.35722682655490934
1783244306615714300,3.89971435546875,0.33034020786881446,0.6604711569011211,-0.20398597413878886
1783244306625725400,3.909725341796875,-0.0023117840737104413,0.532476060628891,-0.06082341161202639
1783244306635737300,3.9197373046875,-0.4092050702691078,0.4446662597507238,0.11833857545889913
1783244306645748500,3.92974853515625,-0.6655635116040707,0.5282616578042507,0.2657454975571483
1783244306655760400,3.939760498046875,-0.701523882779479,0.6577747574239969,0.31920733089260755
1783244306665771500,3.949771484375,-0.5581634595930576,0.7686468694597482,0.22033775480706244
1783244306675783400,3.959783447265625,-0.382926719674468,0.8139812181800603,0.08937160683479159
1783244306685795000,3.969795166015625,-0.15837211435735224,0.8042530203700066,0.09146675248313695
1783244306695807200,3.97980712890625,0.11256781003773211,0.6746095723688602,0.20046733502596614
1783244306705818000,3.989818115234375,0.34560675058364865,0.3038865007072687,0.2449222705632448
1783244306715830000,3.999830078125,0.42518122255802154,-0.26739012295901776,0.19251290542278438
1783244306725841400,4.00984130859375,0.21366963868737218,-0.7561907079905271,0.0975078958109021
1783244306735853300,4.019853271484375,-0.2261310608536005,-0.8682067293643951,0.10483951734062284
1783244306745864200,4.0298642578125,-0.6838409265726805,-0.6246195067971945,0.23243209722656755
1783244306755876400,4.03987646484375,-1.0348480748951434,-0.20407091247588394,0.3984597313057631
1783244306765887200,4.04988720703125,-1.1104004517465829,0.1478457519069314,0.45028881234023715
1783244306775899100,4.059899169921875,-0.9875795432418584,0.28138006986677644,0.40068164513893423
1783244306785910000,4.069909912109375,-0.6126981828570366,0.34031185904592276,0.2569183402400464
1783244306795922200,4.079922119140625,-0.1830173107922077,0.3255900907322764,0.10627565109096467
1783244306805933300,4.089933349609375,0.22017536731958387,0.31922172474414107,0.042490722792223094
1783244306815945200,4.0999453125,0.7222796705603599,0.3107154699444771,0.028727972236461934
1783244306825956000,4.1099560546875,1.0682219367086887,0.10414543412923813,-0.030441790417023003
1783244306835968300,4.11996826171875,1.2100965052515267,-0.3699871586024761,-0.17687504517752675
1783244306845979100,4.129979248046875,1.0647650742530823,-1.0037678769767284,-0.3412401894045993
1783244306855991000,4.139990966796875,0.653306087577343,-1.3115204054623841,-0.3440990494344383
1783244306866002200,4.150002197265625,0.19825112028121947,-1.0113549711048602,-0.0692377868771553
1783244306876014300,4.160014404296875,-0.3292068199247122,-0.4406108468800783,0.32103542310260236
1783244306886025200,4.170025146484375,-0.6663771660745144,0.06671732848882675,0.5883372101910412
1783244306896037000,4.180037109375,-0.6287661050826311,0.3403615434065461,0.6181707690492272
1783244306906048300,4.19004833984375,-0.48860944637358183,0.39716450386345387,0.6150131818011403
1783244306916060200,4.20006005859375,-0.19834230569601058,0.3190606889635324,0.5582157012369483
1783244306926071000,4.210071044921875,0.17786182772517203,-0.23242402351796626,0.298098163096793
1783244306936083200,4.220083251953125,0.2583645204603672,-0.8776786143258214,-0.06513440667893737
1783244306946095000,4.23009521484375,0.20591186416745186,-1.0357400552988052,-0.21312672744970768
1783244306956106200,4.240106201171875,0.1449760416895151,-0.9687117611646652,-0.22218904522955416
1783244306966118100,4.2501181640625,-0.054959086155891415,-0.6844038211524486,-0.13802037733271716
1783244306976129300,4.26012939453125,-0.17496610628366469,-0.3416898694008589,0.01992605895847082
1783244306986141200,4.27014111328125,-0.25987726311087606,-0.12606412820965052,0.24070998663045465
1783244306996152000,4.280152099609375,-0.35429859108328815,-0.07090016713142394,0.25818799484968186
1783244307006164000,4.2901640625,-0.5296545734673738,-0.287261236859858,0.124667267023772
1783244307016175400,4.30017529296875,-0.8210515949577093,-0.5618465320199728,0.016942878429219127
1783244307026187300,4.310187255859375,-1.1052245104134082,-0.6115887603104114,-0.023689503145217894
1783244307036198100,4.3201982421875,-1.3764461743593215,-0.4933060797572136,0.024587109572067854
1783244307046210300,4.330210205078125,-1.5262737477332353,-0.3184934104695916,0.12055237905085087
1783244307056221200,4.34022119140625,-1.418465699443221,-0.18880787689238784,0.21704335290417073
1783244307066233000,4.350233154296875,-1.2944459365427494,-0.24016192429363725,0.18439312919005751
1783244307076244200,4.360244140625,-1.1208400126963853,-0.412091731621325,0.06308854353241622
1783244307086256400,4.37025634765625,-0.8408926059812307,-0.49430707349330183,-0.04458331115730107
1783244307096267300,4.380267333984375,-0.7009995666444301,-0.4669233920052647,-0.15137699477300046
1783244307106279200,4.390279052734375,-0.7296481535017489,-0.4929337393134832,-0.2620010503318161
1783244307116290000,4.4002900390625,-0.8033738994479179,-0.5793304585233331,-0.3279204333759844
1783244307126302200,4.41030224609375,-0.9773223531216383,-0.6521431812778115,-0.2512443131916225
1783244307136313000,4.42031298828125,-1.0922492935061454,-0.6014180794298648,-0.0817518890786916
1783244307146325000,4.430324951171875,-1.1213988156229258,-0.5565668380513787,0.010020604885369539
1783244307156336000,4.440336181640625,-1.172670737698674,-0.5866767296329141,0.06928257586695254
1783244307166348300,4.450348388671875,-1.2245786195904016,-0.6582847527727484,0.014848828759416937
1783244307176359200,4.460359130859375,-1.221440906086564,-0.6926926338091492,-0.018690891140326855
1783244307186371000,4.47037109375,-1.145415651026368,-0.5733887935146689,-0.08263700135014951
1783244307196382200,4.48038232421875,-1.132181490921974,-0.5208431982412934,-0.12762604376412928
1783244307206394000,4.49039404296875,-1.0699883618593216,-0.48253275680840013,-0.09794446059726178
1783244307216405200,4.5004052734375,-1.0233160425335168,-0.4988011700421571,-0.16669102989137172
1783244307226417400,4.51041748046875,-0.9836194074392318,-0.608808774203062,-0.2902292928852141
1783244307236428300,4.52042822265625,-0.896756532022357,-0.6671729926273227,-0.3400453901294619
1783244307246440200,4.530440185546875,-0.7770949643313885,-0.6260057004585862,-0.3468283282678574
1783244307256451000,4.540451171875,-0.6320318288803101,-0.5342576833486556,-0.38440285664163526
1783244307266463200,4.550463134765625,-0.549535331979394,-0.49777913351804015,-0.43519050233177836
1783244307276474000,4.56047412109375,-0.5884381863474846,-0.43543870493918657,-0.39485257365927096
1783244307286486300,4.570486328125,-0.6101403150677681,-0.3364306336984038,-0.28760310910008846
1783244307296497200,4.5804970703125,-0.6762257753938437,-0.33259529331922527,-0.1962563662674278
1783244307306509300,4.59050927734375,-0.7112988423407077,-0.34446430255025623,-0.1436474234342575
1783244307316520200,4.600520263671875,-0.6462146680116653,-0.3642968380063772,-0.11351254354193806
1783244307326532000,4.610531982421875,-0.5260545031487941,-0.34967823780626056,-0.08215411320403218
1783244307336543000,4.62054296875,-0.31472529010772704,-0.31976912949383257,-0.05057517198324203
1783244307346555100,4.63055517578125,-0.15024901365637777,-0.3069569941937923,-0.0437288862850517
1783244307356567000,4.640567138671875,-0.006486439409852027,-0.3242562117800116,-0.06181596631333232
1783244307366578200,4.650578125,0.04881985274851322,-0.3268848067179322,-0.08637932968363166
1783244307376590300,4.66059033203125,0.1293552787095308,-0.2426160394474864,-0.0794444158539176
1783244307386601200,4.670601318359375,0.17648001797795296,-0.1979974377810955,-0.03762231303825974
1783244307396613000,4.680613037109375,0.13424305075109005,-0.2329685056582093,0.012268603007867931
1783244307406624000,4.6906240234375,0.03450432714819908,-0.26076222925186154,0.011034092776849865
1783244307416636200,4.70063623046875,-0.15054361268877983,-0.2661316473305225,0.03743380472883582
1783244307426647300,4.710647216796875,-0.30022914724349975,-0.21432196511626242,0.07124393906779587
1783244307436659200,4.7206591796875,-0.3259019331604242,-0.08442278878837824,0.0855479203607887
1783244307446670300,4.73067041015625,-0.35525486889481545,-0.05967033258676529,0.059015229678899044
1783244307456682200,4.74068212890625,-0.3392243560701608,-0.09349690660387278,0.015965046373009682
1783244307466693000,4.750693115234375,-0.28103578647375105,-0.10446896699517964,-0.026241891041770576
1783244307476705000,4.760705078125,-0.2545814947903156,-0.08483721480816603,-0.0091312548302114
1783244307486716200,4.770716064453125,-0.1852086833566427,-0.03680558982789516,0.05034260533638298
1783244307496728000,4.78072802734375,-0.13113690142929554,0.009591711948812007,0.08971702273897826
1783244307506739200,4.7907392578125,-0.11572013658881186,-0.05950374384820461,0.13424962662234902
1783244307516751400,4.80075146484375,-0.10946282975971698,-0.11647826147973536,0.15098215023651718
1783244307526762200,4.81076220703125,-0.17269173161089418,-0.12696399965882302,0.14717625514753163
1783244307536774100,4.820774169921875,-0.20480127257704733,-0.0736339760094881,0.2002603412117809
1783244307546785000,4.830784912109375,-0.1915232733309269,-0.014711831441521644,0.2009220930561423
1783244307556797200,4.840797119140625,-0.16664134553074836,0.027501462648808955,0.1589665731191635
1783244307566808300,4.850808349609375,-0.05385433978438377,0.05680705211013555,0.095885555306077
1783244307576820200,4.8608203125,-0.010201660540699958,0.032899522300064564,0.016346519971266387
1783244307586831000,4.8708310546875,0.034950317350029944,-0.0010559387937188148,-0.0626300591751933
1783244307596843300,4.88084326171875,0.12101590490937232,-0.015245499926805496,-0.10141067540310322
1783244307606854100,4.890854248046875,0.14282500113546848,0.024945640686154364,-0.07929360920637846
1783244307616866000,4.900865966796875,0.07551321388483047,0.005458265405893325,0.013763152414560317
1783244307626877200,4.910877197265625,-0.05866612398028374,-0.07760258737951517,0.07272139120921492
1783244307636889300,4.920889404296875,-0.15259469999969005,-0.1553372767060995,0.08176781730018555
1783244307646900200,4.930900146484375,-0.25117314765155313,-0.11073533391356467,0.1251412412110716
1783244307656912100,4.940912109375,-0.34933249310851094,-0.05878361288011074,0.17030848973616958
1783244307666923300,4.95092333984375,-0.36910979124605653,-0.019421032045781612,0.15505809443853794
1783244307676935200,4.96093505859375,-0.3036123599410057,-0.004558393956720828,0.10033354769088328
1783244307686946000,4.970946044921875,-0.2654062556654215,-0.03630699265599251,0.03922609497308731
1783244307696958000,4.9809580078125,-0.21940087581574916,-0.04190700462013483,-0.0021140695445239542
1783244307706969300,4.99096923828125,-0.19878478876650332,-0.06212357095777988,0.00985993443094194
1783244307716981200,5.000981201171875,-0.15799685130417346,-0.05985416472107172,0.021587343234196303
1783244307726992100,5.0109921875,-0.04624737191200256,-0.014641688814759253,0.06482077415250241
1783244307737004000,5.021004150390625,0.07873509854078292,0.014027356308698653,0.08568447928726673
1783244307747015200,5.03101513671875,0.12192191383838653,-0.03038870852291584,0.09912855581529438
1783244307757027000,5.041027099609375,0.10387304692864417,-0.12861468947529792,0.10555435107909142
1783244307767038200,5.0510380859375,0.065991352301836,-0.14530688107907772,0.14219788221307098
1783244307777050400,5.06105029296875,0.00017126491367816925,-0.02998860328942537,0.14041077960059045
1783244307787061200,5.071061279296875,0.03296586553454399,0.08252250812500715,0.1500000073313713
1783244307797073200,5.0810732421875,0.1459340730667114,0.08140928618609905,0.10715228779502213
1783244307807084000,5.091083984375,0.19647125112712382,0.011166121658682823,0.06461173451170325
1783244307817096200,5.10109619140625,0.27975100736021996,-0.02880611550658941,0.01359992467686534
1783244307827107000,5.111107177734375,0.3329226255774498,-0.023881518585979936,-0.009561462941020726
1783244307837119000,5.121118896484375,0.31637247279286385,0.04118453556448221,-0.014607128958031535
1783244307847131100,5.131131103515625,0.25460195305645467,0.07726561051011085,0.008599120714887977
1783244307857142300,5.141142333984375,0.24293372709453104,0.08295534658432006,0.04418210994526744
1783244307867154200,5.151154296875,0.17817045528292655,0.11840192301869391,0.10295542062707244
1783244307877165000,5.1611650390625,0.050691491839289664,0.10986147368848323,0.17800510865338146
1783244307887177200,5.17117724609375,-0.01641571274995804,0.07079875258356333,0.24833310192003843
1783244307897188000,5.18118798828125,-0.026966917380690573,0.11087941855937242,0.2058805191811174
1783244307907200000,5.191199951171875,-0.0027069208711385725,0.17786679616123438,0.12015497723110019
1783244307917211100,5.201211181640625,0.045966216883063314,0.20315292084813116,0.05418276802115142
1783244307927223300,5.211223388671875,0.1447404793679714,0.1701265572980046,-0.02060527339428663
1783244307937234200,5.221234130859375,0.23544424812197684,0.11348200227320193,-0.08784779480099678
1783244307947246000,5.23124609375,0.17839841881990431,-0.005280570751428603,-0.11588760211020707
1783244307957257000,5.241257080078125,0.04951952545046806,-0.053312195731699465,-0.07205379414595663
1783244307967269000,5.25126904296875,-0.0767366181999445,0.03769552440494299,0.025543241253122687
1783244307977280300,5.2612802734375,-0.16040566601157188,0.13814151949435471,0.1432937146257609
1783244307987292200,5.271292236328125,-0.20213176110684872,0.13608546374738215,0.16810696110390125
1783244307997303300,5.28130322265625,-0.22771511517465112,0.09367898517251014,0.07918949124477803
1783244308007315200,5.291315185546875,-0.28683599718511105,0.05810702879279851,-0.0073809040315449236
1783244308017326000,5.301326171875,-0.34862288353443144,0.044287762276828284,-0.035348230626434086
1783244308027338000,5.311337890625,-0.37796003717780113,0.04195084376186132,-0.06596373364254832
1783244308037349000,5.32134912109375,-0.36858138345777985,0.06668547204583883,-0.08593509304746985
1783244308047361000,5.331361083984375,-0.28250761259198187,0.10143091447353363,-0.09688523386791348
1783244308057372200,5.3413720703125,-0.16638590946495532,0.12745324448049067,-0.08066168268918991
1783244308067384300,5.35138427734375,-0.012032383099198341,0.10451543648540973,-0.09896189401149749
1783244308077395200,5.361395263671875,0.08856675672531128,0.051177521790564055,-0.12364764165244996
1783244308087407000,5.371406982421875,0.12255787365436553,-0.027396540969610212,-0.10903539812788367
1783244308097418000,5.38141796875,0.1470586931824684,-0.05066051217913627,-0.04390877289660275
1783244308107430100,5.39143017578125,0.1465454829633236,-0.04922843354940414,0.02405300269536674
1783244308117441300,5.401441162109375,0.07880933282077313,-0.027957681983709334,0.11841931254491209
1783244308127453200,5.411453125,0.07307517308294773,0.018474398845434187,0.17495953041240572
1783244308137464000,5.421464111328125,0.05568155521154403,0.0715904874831438,0.17270773289762437
1783244308147476200,5.431476318359375,0.04490238704383373,0.11061492240428925,0.08995857640989124
1783244308157487000,5.441487060546875,0.09778700501322746,0.11480945148468016,0.03439816335998475
1783244308167499000,5.4514990234375,0.18758067318499086,0.1019309729501605,-0.0016324965726584196
1783244308177510100,5.46151025390625,0.22910277014076708,0.02050678145587444,-0.007495470321923494
1783244308187522000,5.47152197265625,0.25024784950017925,-0.03561784134805202,0.01529569574408233
1783244308197533200,5.481533203125,0.2747428238093853,-0.002614274151623249,0.06108027244992554
1783244308207545000,5.491545166015625,0.21865268779695032,0.05677957958132028,0.13971322579048573
1783244308217556200,5.50155615234375,0.16458207491338253,0.08053308787345886,0.17607647867836057
1783244308227568000,5.511568115234375,0.10106032759547233,0.020537176594138146,0.1617485319878906
1783244308237579000,5.5215791015625,0.031492870372533795,-0.03482610644847155,0.0772220636293292
1783244308247591200,5.531591064453125,-0.04366436968147754,-0.06517652878761292,0.005800795233249664
1783244308257602300,5.541602294921875,-0.11571955206692218,-0.03257365134656429,-0.006555632188543677
1783244308267614200,5.5516142578125,-0.1678425380140543,0.035895196984708305,-0.00744184043854475
1783244308277625000,5.561625,-0.12523030773401259,0.09230389742702245,-0.024308584891632196
1783244308287637200,5.57163720703125,-0.05596563284993172,0.09563011924028396,-0.06146678754948079
1783244308297648000,5.581648193359375,-0.004443535405397415,0.009082885643839836,-0.05575995420999825
1783244308307660000,5.591659912109375,0.041270168021321295,-0.12703852619975806,-0.04611526996493339
1783244308317671200,5.601671142578125,0.06768880386948585,-0.17250497686713934,0.003003127338737249
1783244308327683300,5.611683349609375,0.024651041653752325,-0.10258943685889244,0.06745521430931985
1783244308337694200,5.621694091796875,-0.06064180796742439,-0.03405103042274713,0.15173070358149707
1783244308347706000,5.6317060546875,-0.059464580881595605,0.0480690343812108,0.15207250275649128
1783244308357717000,5.641717041015625,-0.05685118351280689,0.04111877685189247,0.0636398938048631
1783244308367729200,5.651729248046875,-0.08796586822271346,-0.0041261400192975995,-0.026267244678735733
1783244308377740000,5.661739990234375,-0.09605155952274799,-0.05375350975841284,-0.0903613119918853
1783244308387752000,5.671751953125,-0.09324293184280395,-0.03780950617343187,-0.10575257706493138
1783244308397763300,5.681763427734375,-0.04589958138763904,0.0030929975792765617,-0.08640935949571431
1783244308407775200,5.691775146484375,-0.08172901965975761,-0.002096095496416092,-0.08021649620495735
1783244308417786000,5.7017861328125,-0.09102057961821555,-0.04194967471808195,-0.08156944518387317
1783244308427798000,5.711798095703125,-0.0550076014727354,0.010672492922842503,-0.06441686952672898
1783244308437809200,5.72180908203125,-0.05162789590656757,0.09811521405428647,-0.03315240108259022
1783244308447821000,5.731821044921875,-0.019600772526860235,0.10107143351137637,-0.019987872148305177
1783244308457832200,5.741832275390625,0.018501871374249457,0.013394611363112926,-0.0685546269185841
1783244308467844400,5.75184423828125,0.09034604135751724,-0.027477789512276647,-0.1232678485546261
1783244308477855200,5.761855224609375,0.1491805076420307,0.02517798813730478,-0.11450104312263429
1783244308487867100,5.7718671875,0.21977496982514858,0.05716244141906499,-0.08585837454944849
1783244308497878000,5.7818779296875,0.28119828355908394,0.04089958114326,-0.03157148856669664
1783244308507890200,5.79189013671875,0.2799082437485456,-0.0231947053655982,-0.009535378651693462
1783244308517902000,5.801902099609375,0.1521440336227417,-0.07088759991079568,0.021411402145400642
1783244308527913200,5.811913330078125,0.0456312858402729,-0.06449409948140382,0.09898447116948664
1783244308537924000,5.821924072265625,-0.054445875936746595,-0.028777766194939613,0.12644326372034848
1783244308547936300,5.831936279296875,-0.125613754093647,-0.01214227321445942,0.10896079852171242
1783244308557947100,5.841947021484375,-0.1311386549949646,-0.01371814422905445,0.04243921180069447
1783244308567959000,5.851958984375,-0.13022037110626697,-0.051130175517499446,0.013061433885991573
1783244308577971200,5.86197119140625,-0.14704349561333654,-0.08824088577181101,-0.01762691517062485
1783244308587982000,5.871982177734375,-0.14239596206843852,-0.1036152727752924,-0.046256578131765126
1783244308597994000,5.881993896484375,-0.11144202087819575,-0.05769494086056948,-0.043288741302117704
1783244308608005000,5.892005126953125,-0.093645667424798,-0.012877309490740299,-0.02989602963514626
1783244308618017300,5.902017333984375,-0.08821604359149933,-0.014867314264178276,-0.0318345234170556
1783244308628028200,5.912028076171875,-0.04989420398175716,-0.031625849102437494,-0.06222659294083714
1783244308638040000,5.9220400390625,-0.04643441891670227,-0.03642185120731592,-0.04248348933383822
1783244308648051200,5.93205126953125,-0.08039747879505157,-0.05805500634461641,-0.016629720826819537
1783244308658063000,5.94206298828125,-0.08954933802187443,-0.08241524835824966,-0.012517682398110628
1783244308668074200,5.95207421875,-0.07156710660755634,-0.0723924515157938,-0.0011496084265410899
1783244308678086100,5.962086181640625,-0.1358300276815891,-0.050908641721308226,-0.015297157048806548
1783244308688096800,5.9720966796875,-0.2070861686438322,-0.10167056844830512,-0.10439261382333934
1783244308698108700,5.982108642578125,-0.16771861937344074,-0.08130816389918327,-0.09017287674769758
1783244308708119600,5.99211962890625,-0.15938275270462035,-0.022585341295599935,-0.04261033058390021
1783244308718131700,6.002131591796875,-0.14928689062595366,-0.03585428045243025,0.009737477095052599
1783244308728142800,6.012142822265625,-0.1226508126348257,-0.07832184156477451,0.00852050252072513
1783244308738154800,6.02215478515625,-0.13833879563212395,-0.10225041416287421,-0.01791515752747655
1783244308748165600,6.03216552734375,-0.14389409167170525,-0.08215192124694586,-0.05353899022489786
1783244308758177800,6.042177734375,-0.19257482821047306,-0.04763181200772523,-0.08885273405984044
1783244308768188700,6.052188720703125,-0.19274141694903374,-0.020272680439054964,-0.07610438471101225
1783244308778200600,6.06220068359375,-0.1661076770454645,-0.005035363818705081,-0.04700359710678458
1783244308788211700,6.072211669921875,-0.12146072606742381,-0.01766863542050123,-0.009585939795151353
1783244308798223600,6.0822236328125,-0.1028133087426424,-0.04636076915860176,-0.007319748428836465
1783244308808234800,6.09223486328125,-0.08337503330111504,-0.05331628738492727,-0.020309943709522483
1783244308818246700,6.10224658203125,-0.021611527827382085,0.010634206739068031,0.04061024280786514
1783244308828257800,6.1122578125,0.008387889117002487,0.02840104183703661,0.03393229941390455
1783244308838269700,6.122269775390625,0.04871873046159744,-0.007823240971565245,0.01158931550681591
1783244308848280600,6.132280517578125,0.15919453665614128,-0.007587094128131866,0.0321605405010283
1783244308858292500,6.14229248046875,0.22666414481699465,0.03977379198372364,0.05088102306202054
1783244308868304000,6.152303955078125,0.26477555654644963,0.03183715376555919,0.07260382924415171
1783244308878315800,6.162315673828125,0.2998766805440187,0.033695056591928,0.055263695125654336
1783244308888326700,6.17232666015625,0.3126911539316177,0.004293897801637649,0.04808423195034265
1783244308898338800,6.1823388671875,0.2998386866211891,-0.006426233655214309,0.05432809477597475
1783244308908349700,6.192349609375,0.26046236952245233,0.01267857204824686,0.08695435309261083
1783244308918361600,6.202361572265625,0.18547230272889137,0.022108663694560528,0.12152553493194282
1783244308928372700,6.212372802734375,0.10272738402485847,0.04285013068914413,0.11065452376231551
1783244308938385000,6.222385009765625,0.03185352037847042,0.021357553066313265,0.08613141933716834
1783244308948395800,6.232395751953125,-0.04789104746580124,-0.01528758550286293,0.06790069305449724
1783244308958407700,6.24240771484375,-0.09747370128035544,-0.006690145288407803,0.07494929639175534
1783244308968418600,6.25241845703125,-0.1651227576613426,0.007353577633202076,0.05684278101064264
1783244308978430700,6.2624306640625,-0.19969898100197314,0.055928807970881456,0.03588314122073352
1783244308988441600,6.272441650390625,-0.20968144583404064,0.05719312881827354,0.007910846189782023
1783244308998453500,6.28245361328125,-0.19600012648403645,0.03966360960751772,-0.043318917244672774
1783244309008464600,6.292464599609375,-0.19188275429308413,0.0029611878931522367,-0.06644976359382271
1783244309018476800,6.302476806640625,-0.20714403631091116,-0.031389409998059274,-0.0244436094481498
1783244309028487700,6.31248779296875,-0.16879881582558154,-0.009959083956480026,0.02231068907268345
1783244309038499600,6.32249951171875,-0.10332885704934597,0.08216653429418802,0.05655680367611348
1783244309048510700,6.3325107421875,-0.012221183669567107,0.08543927235454321,0.05181633115075528
1783244309058522600,6.342522705078125,0.062028293889760965,0.031766426616907116,0.022539237131550906
1783244309068533800,6.35253369140625,0.08284954812228679,-0.07089198382496834,-0.02073372207954526
1783244309078545700,6.362545654296875,0.07513619726598263,-0.09879296718537807,-0.015466230005398391
1783244309088556800,6.372556884765625,0.017888123390078545,-0.07293605687320232,0.033562808514386415
1783244309098568700,6.382568603515625,-0.014726444488763809,-0.061119946873188016,0.08623495277687906
1783244309108579600,6.39257958984375,-0.030135610544681547,-0.04382628224492073,0.12094788117446005
1783244309118591700,6.402591796875,-0.04595686453282833,-0.012767127114534378,0.09880860314592718
1783244309128602600,6.4126025390625,-0.034252398213744165,-0.004588204573094844,0.040896439338102934
1783244309138614500,6.422614501953125,-0.01690437304973602,0.012262100201845169,0.037866789318621155
1783244309148625700,6.432625732421875,0.03621171558797359,0.0037143443480134007,0.01734787903353572
1783244309158637800,6.442637939453125,0.09559680149257183,-0.014764438411593436,0.010928367380052805
1783244309168648700,6.452648681640625,0.10516191769540309,-0.042998891510069366,-0.013508958457782863
1783244309178660600,6.46266064453125,0.09769172794520854,-0.07570669063031674,-0.01590725177116692
1783244309188671500,6.47267138671875,0.11267828467488288,-0.06860153480023146,0.03078450290746987
1783244309198683600,6.48268359375,0.0772287856310606,-0.006088380002975464,0.08531308869160711
1783244309208694800,6.49269482421875,0.03400280736684799,0.005781506010890006,0.07602766621299087
1783244309218706700,6.502706787109375,-0.025205168405175206,-0.03615267887711525,0.040962855637818575
1783244309228717800,6.5127177734375,-0.08958031768202782,-0.049241000770032406,0.021847382409870622
1783244309238729700,6.522729736328125,-0.12237024212777614,-0.022224106767773626,-0.016079685728624463
1783244309248740600,6.53274072265625,-0.13707856643795965,-0.00012859481573104857,-0.029813246722519397
1783244309258752500,6.54275244140625,-0.12989537693560121,0.02573182262778282,-0.03538768585398793
1783244309268764000,6.552763916015625,-0.07676058359742165,0.061276014217734334,-0.06993884781859815
1783244309278775800,6.56277587890625,-0.07346855631470679,0.03048661593943834,-0.07922463562339543
1783244309288786700,6.57278662109375,-0.0645493367999792,-0.014113865548372267,-0.0824432323437184
1783244309298798800,6.582798828125,-0.07022913600206375,-0.03087619977891445,-0.06042977265194058
1783244309308809700,6.592809814453125,-0.08703764746189117,0.03367898223996162,-0.016875658411905168
1783244309318821600,6.602821533203125,-0.0888753842830658,0.07001461646854877,0.00391848861798644
1783244309328832500,6.61283251953125,-0.08183540264368057,0.05449205316603183,-0.019508564198762176
1783244309338844700,6.6228447265625,-0.05329787494540214,0.028652386249601838,-0.09050736939907074
1783244309348855800,6.632855712890625,-0.006913724911212921,0.038517362181842325,-0.1426819394029677
1783244309358867700,6.64286767578125,-0.016542554000020027,0.04159983836710453,-0.11746851462610065
1783244309368878600,6.652878662109375,-0.037924364724755286,0.03348696679919958,-0.062187795300409195
1783244309378890800,6.662890869140625,-0.052314709126949306,0.03871756092905998,-0.027456892854720354
1783244309388901600,6.672901611328125,-0.1148778405457735,0.011317512828111649,0.027423721237480637
1783244309398913500,6.68291357421875,-0.15254150850772857,-0.030801965498924253,0.07498166429139673
1783244309408924700,6.692924560546875,-0.12330489262938499,-0.013256664197146892,0.11003376151546836
1783244309418936800,6.702936767578125,-0.14315350243747232,0.014695757089555263,0.09766279411166906
1783244309428947700,6.71294775390625,-0.13617723368406295,-0.015259528452157974,0.07129055468849838
1783244309438959600,6.722959716796875,-0.04530103097259998,-0.014988894817233084,0.01345795892290771
1783244309448970800,6.732970703125,0.00703355189859867,0.011034604233503342,-0.005398863368853926
1783244309458982700,6.742982666015625,0.03561725682616233,0.004571837960183621,0.003223857417330146
1783244309468993500,6.75299365234375,0.12361468923091888,0.03528115673959255,0.021092764650285242
1783244309479005700,6.763005615234375,0.16503098772466182,0.03518061897456646,0.08270210247561335
1783244309489016800,6.773016845703125,0.21097148564457893,0.02247808152884245,0.10486351927071809
1783244309499028700,6.78302880859375,0.27529344342947004,-0.03882277486920357,0.14337686286456883
1783244309509039600,6.79303955078125,0.29602468129098414,-0.04989595754742622,0.16318163353092968
1783244309519051800,6.8030517578125,0.27766543325781823,-0.05634060364216566,0.2345758677896112
1783244309529062700,6.813062744140625,0.21985855645537375,-0.05860533370375633,0.280610181472823
1783244309539074600,6.823074462890625,0.14190613272488117,-0.05440788201391697,0.2668229905955493
1783244309549085700,6.833085693359375,0.040614334461092944,-0.02373714167922735,0.21340565398894248
1783244309559097900,6.843097900390625,-0.03466857779920101,-0.007644669534265995,0.15972491720579562
1783244309569108700,6.853108642578125,-0.036459552869200704,0.000950140331685543,0.10531732745282352
1783244309579120600,6.86312060546875,-0.048804655179381366,-0.0007303601011633872,0.050359702601656314
1783244309589131500,6.873131591796875,-0.09086042062044143,-0.03149930011332035,0.008595759714022278
1783244309599143700,6.883143798828125,-0.08939502424299717,-0.008742693904042243,0.025717721037194132
1783244309609154800,6.89315478515625,-0.06886018573641776,0.032711598512530325,0.039080549022555346
1783244309619166700,6.903166748046875,-0.07058452531099318,0.040241994017362594,0.041425577778741715
1783244309629177600,6.913177490234375,-0.07644494177699089,0.0036611528560519216,0.04213036504723131
1783244309639189800,6.923189697265625,-0.06755670192241668,-0.013446926072239875,0.02326389814428985
1783244309649200600,6.93320068359375,-0.06830781255066394,0.03125935387760401,0.009770283386111259
1783244309659212500,6.943212646484375,-0.08769172745645046,0.07138356673419476,-0.02749042979814112
1783244309669223700,6.9532236328125,-0.1018541083216667,0.07069470768719911,-0.07653919593170284
1783244309679235600,6.963235595703125,-0.09053133479654789,0.04224894992560148,-0.14745784856788813
1783244309689247000,6.9732470703125,-0.0963210241138935,0.06287672741264104,-0.17333265986293553
1783244309699259000,6.9832587890625,-0.08475450496077537,0.08280833932906388,-0.13288725222796202
1783244309709269800,6.993269775390625,-0.03407704164683819,0.09622691608965396,-0.12767105194963513
1783244309719282000,7.003281982421875,0.014224924707412719,0.07537760480642318,-0.1260276686567813
1783244309729292800,7.013292724609375,0.04557166460752487,0.00957329950928688,-0.1207943711131811
1783244309739304700,7.0233046875,0.0684749858111143,-0.04674713812768459,-0.10310118577331304
1783244309749315800,7.03331591796875,0.028580197796225545,-0.04892418990582227,-0.027999621429294345
1783244309759328000,7.043327880859375,-0.032983401191234586,-0.026927462153136728,0.026277181550860403
1783244309769339000,7.0533388671875,-0.09099953683018684,0.007970540487766265,0.0563969369392842
1783244309779350800,7.063350830078125,-0.16348375828266143,-0.01118365731537342,0.052422918741777534
1783244309789361700,7.073361572265625,-0.21834172215163705,-0.02206891620606184,0.05065269419886172
1783244309799373800,7.083373779296875,-0.24170915373563764,-0.04859890347421169,0.03997055666483938
1783244309809384700,7.093384765625,-0.22528818028867242,-0.0674582099840045,0.04686579607129097
1783244309819396600,7.103396728515625,-0.14865502246320247,-0.04929594582766294,0.07189772680141031
1783244309829408000,7.113407958984375,-0.051719081321358676,-0.008097381737828254,0.10921126615144312
1783244309839420000,7.123419921875,-0.000813069948554039,-0.0491626748368144,0.10931757607012986
1783244309849430800,7.1334306640625,0.06713000094294548,-0.09825725287348032,0.10362988582253456
1783244309859442700,7.143442626953125,0.12349427772164344,-0.10882394733428954,0.08172536639794707
1783244309869453800,7.153453857421875,0.1507102014273405,-0.12041472414582967,0.07475238558016717
1783244309879465700,7.1634658203125,0.16132687250971794,-0.10282675274610519,0.08849128033630549
1783244309889476900,7.173476806640625,0.1414431913882494,-0.08003098357021808,0.10072291233465075
1783244309899489000,7.183489013671875,0.10595394485592842,-0.07211947979331017,0.10397329243272542
1783244309909500000,7.1935,0.06194003108441829,-0.06604951222985983,0.08795724652484059
1783244309919511800,7.20351171875,-0.010758709901571272,-0.08638181390166282,0.059130745817348354
1783244309929522700,7.213522705078125,-0.025545944666862486,-0.11426175447404384,0.04161130960918963
1783244309939534800,7.223534912109375,-0.02347965978682041,-0.06641600745469331,-0.0008029138807207346
1783244309949546000,7.2335458984375,-0.01733925733566284,-0.05353899022489786,-0.05346292931400239
1783244309959558000,7.243557861328125,0.005626023188233375,-0.06082184070944786,-0.08813676781021058
1783244309969568800,7.25356884765625,0.03220657159984112,-0.06009498773962259,-0.09415537051260471
1783244309979581000,7.263580810546875,0.037951837253570556,-0.06223901403099298,-0.10794278058558701
1783244309989591800,7.273591796875,0.03481412374973297,-0.07670388497412205,-0.08900112955458461
1783244309999603700,7.283603759765625,0.015302198550105095,-0.06871288622021675,-0.07991247175708413
1783244310009614600,7.293614501953125,-0.026577041280269623,-0.024359657491743562,-0.058072322805598375
1783244310019626800,7.303626708984375,-0.11002104816436767,0.025613164684176442,-0.01046381860822439
1783244310029638000,7.313637939453125,-0.13793372196257114,0.03855447932183742,-0.03396415585689246
1783244310039649800,7.32364990234375,-0.10788169804811477,0.022775310909748075,-0.10783924714587628
1783244310049661000,7.333660888671875,-0.1138449903666973,0.02118570363074541,-0.13970460409261284
1783244310059672800,7.3436728515625,-0.1072094978749752,0.0326931860730052,-0.14180537576414645
1783244310069683700,7.35368359375,-0.027723288705945013,0.06422668071687221,-0.13141389173977075
1783244310079695600,7.363695556640625,0.016617957323789595,0.08512655314356088,-0.12471066777408123
1783244310089707000,7.37370703125,0.04241232379376888,0.0521627334356308,-0.12071977150700985
1783244310099719000,7.383718994140625,0.08922668193876743,0.034437691652774806,-0.12159304721020162
1783244310109729800,7.393729736328125,0.13578618853986263,0.03577887712866068,-0.104128409929201
1783244310119742000,7.403741943359375,0.07818214083313942,0.006058569386601448,-0.07222381695061922
1783244310129752800,7.4137529296875,0.02424479894042015,-0.030480770720541474,-0.03565042844340205
1783244310139764700,7.4237646484375,0.05634498755633831,-0.0014765022933483122,0.006834595260396599
1783244310149775600,7.433775634765625,0.07535831558406353,0.047099020305275914,0.0250775234375149
1783244310159787800,7.443787841796875,0.07067103455066681,0.0012865326792001724,-0.01222052608244121
1783244310169799000,7.453798828125,0.046076691520214076,-0.05317424856573343,-0.025939766290038822
1783244310179810800,7.463810791015625,-0.04033376395404339,-0.12298165202438831,-0.01995703861862421
1783244310189821700,7.47382177734375,-0.09853402398824691,-0.09412205276489258,0.01558693377561867
1783244310199833900,7.483833740234375,-0.10804302608966827,-0.012341595178842544,0.044324879416823386
1783244310209844700,7.4938447265625,-0.07678922517001628,0.033873335768282414,0.04829100656881928
1783244310219856600,7.503856689453125,-0.02512625795006752,0.03061608753800392,0.01748188067674637
1783244310229867800,7.51386767578125,0.03850888661444187,-0.030966216149926184,-0.05652545868977904
1783244310239880000,7.5238798828125,0.020554712250828742,-0.12131167298555373,-0.0763113785251975
1783244310249890800,7.533890869140625,-0.04109305788874626,-0.14638795431405305,-0.050880292409658426
1783244310259902700,7.54390283203125,-0.10509060602486132,-0.07246142509877682,0.003804141523316502
1783244310269913900,7.553913818359375,-0.15539280628561972,-0.01754062512665987,0.07024542954973877
1783244310279925800,7.56392578125,-0.16981062321662901,0.012163900524377822,0.06835742384605109
1783244310289937000,7.57393701171875,-0.15117489632964135,-0.03717705348879099,-0.0046608314178884025
1783244310299949000,7.583948974609375,-0.07986848648488522,-0.08250234211981296,-0.10304156454056501
1783244310309960000,7.5939599609375,-0.03984335008859634,-0.08853548480421304,-0.12783121094740926
1783244310319971800,7.603971923828125,-0.022106617867946623,-0.0737190239444375,-0.11063808408416807
1783244310329982700,7.613982666015625,-0.027989830687642096,-0.07037409743070602,-0.05054558056257665
1783244310339995000,7.623994873046875,-0.039521278527379036,-0.10935878486335276,0.0286257905036211
1783244310350005800,7.634005859375,-0.020778584134578705,-0.1299742873907089,0.03338577144704759
1783244310360017700,7.644017578125,0.012314122650027274,-0.08198240989893675,0.06338606517426669
1783244310370028800,7.65402880859375,0.03966507091224193,-0.018216916953027247,0.059217255057021974
1783244310380041000,7.664041015625,0.07407470551431179,-0.02672083366513252,0.02829823904968798
1783244310390051800,7.6740517578125,0.09376666345596313,-0.10001198758631943,-0.001336217039823532
1783244310400063700,7.684063720703125,0.0929489173322916,-0.14918693738281727,-0.017709844213724135
1783244310410074600,7.69407470703125,0.07592471729516982,-0.13353519474267958,0.024944179381430148
1783244310420086800,7.704086669921875,0.07808803280889988,-0.05337123244255781,0.09598565467968583
1783244310430098000,7.714097900390625,0.07287935824990271,-0.037760406334698196,0.12622859805636108
1783244310440109800,7.72410986328125,0.020123335096240043,-0.10362608643025159,0.08950162642262875
1783244310450121000,7.734120849609375,-0.06174713886082172,-0.16446370923072098,0.04865034140050411
1783244310460132900,7.7441328125,-0.09900982480645179,-0.12335311568528413,0.06196311969906091
1783244310470143700,7.754143798828125,-0.13254384561777113,-0.04846855509281158,0.06987316217124462
1783244310480155600,7.76415576171875,-0.17784487659037113,-0.05582768568396568,0.06829707196094095
1783244310490166800,7.774166748046875,-0.19495733943283558,-0.10468757818192242,0.05863996662572026
1783244310500178700,7.7841787109375,-0.17173077762424946,-0.11122107160389423,0.06199293031543493
1783244310510189800,7.79418994140625,-0.15766601191461085,-0.05249532639086246,0.04451996359750628
1783244310520202000,7.804201904296875,-0.12448153519332408,-0.03014817776530981,0.03887713540494442
1783244310530212900,7.814212890625,-0.08236673304140567,-0.022495617185533046,0.024173633400350808
1783244310540224800,7.824224853515625,-0.04374678726792335,-0.05909925470054149,-0.039315380691736936
1783244310550235600,7.834235595703125,-0.007535656201839446,-0.04466010272055864,-0.09446750520169735
1783244310560247800,7.844247802734375,0.035384032592177386,0.002391279050707817,-0.11507029437795281
1783244310570259000,7.854259033203125,0.06237199276089668,0.02991203092187643,-0.16023958872966468
1783244310580270800,7.864270751953125,0.047891631987690926,0.04746610005199909,-0.18294556073024867
1783244310590281700,7.87428173828125,0.037329321441054344,0.06844225258529185,-0.1719289305448532
1783244310600294000,7.8842939453125,0.034732290685176845,0.094565120357275,-0.12613872781582175
1783244310610304800,7.8943046875,0.03261865953207016,0.08712386444061994,-0.0927173735987395
1783244310620316700,7.904316650390625,0.045726562908291815,0.06878390562981367,-0.09304770153164862
1783244310630327800,7.914327880859375,0.01023556281030178,0.04498714271783828,-0.09761807818710803
1783244310640340000,7.924340087890625,-0.07790449293553829,0.015289631329476833,-0.0786768655475229
1783244310650350800,7.934350830078125,-0.1349684424161911,0.04043722432851791,-0.0731796563707292
1783244310660362800,7.94436279296875,-0.19167291093468666,0.09034253422617912,-0.05184723774567246
1783244310670374000,7.954373779296875,-0.22194413055777548,0.09445669154673814,-0.06719919372163713
1783244310680385800,7.9643857421875,-0.18232231426537035,0.061544309765100474,-0.10220357934646308
1783244310690397000,7.97439697265625,-0.14598901812434195,0.02656827345192432,-0.13857735362835227
1783244310700409000,7.9844091796875,-0.08725216699540615,0.033383798685669895,-0.10574066743142903
1783244310710420200,7.994420166015625,-0.026391747841238974,0.06508680467754602,-0.05865092641115188
1783244310720432000,8.00443212890625,0.023684242448210716,0.08825929821133613,-0.03538640721235424
1783244310730443000,8.014443115234375,0.08523205934464931,0.07494681217372418,-0.03581877074763179
1783244310740455200,8.024455078125,0.12819208014905453,0.04352846834212541,-0.022176212505437432
1783244310750466000,8.034466064453126,0.2129156054496765,0.013177753742039203,-0.018733195912092923
1783244310760478000,8.04447802734375,0.21244214271903036,-0.025277649119496343,-0.03633084845561534
1783244310770489000,8.054489013671875,0.1591664796054363,-0.03650222296714783,-0.021714513277821243
1783244310780501200,8.064501220703125,0.11919044304788112,-0.021972470094263553,0.008525032565370202
1783244310790512000,8.07451220703125,0.035785014608502384,0.0008364508241415023,0.038670141590759155
1783244310800524000,8.08452392578125,0.0005938742399215698,0.013889116881787776,0.04743154019527137
1783244310810535000,8.094534912109374,-0.03947568581998348,-0.023237083202600477,0.02827014546636492
1783244310820546000,8.104546142578124,-0.11195640014111995,-0.03312280966192484,0.04289729429911822
1783244310830558000,8.114557861328125,-0.14597966577410698,-0.025485154390335083,0.043090624914132056
1783244310840569000,8.124569091796875,-0.1575678122371435,-0.00966039327085018,0.038354865096509455
1783244310850581200,8.134581298828126,-0.1727525218874216,0.021197101807594296,0.039035431239195166
1783244310860592000,8.144592041015626,-0.14636311213374137,0.020751111605763435,0.012798179839923977
1783244310870604000,8.15460400390625,-0.1251554889321327,-0.012150164259970187,0.006402852779626846
1783244310880615000,8.164614990234375,-0.1436123521208763,-0.02695873407423496,-0.015924239438585935
1783244310890627000,8.174626953125,-0.1852823331147432,-0.009622399348020554,-0.001629683561064303
1783244310900638200,8.18463818359375,-0.1826075609475374,0.04449439076483249,0.045579994044452905
1783244310910650000,8.194650146484374,-0.13989420838057995,0.04787351180911064,0.03464209165107458
1783244310920661000,8.204660888671874,-0.07541676777303219,0.04935761288702488,0.0370974489139393
1783244310930673200,8.214673095703125,0.0008265139520168304,0.04168751665055752,0.03879764042794704
1783244310940684000,8.22468408203125,0.06759469584524631,0.04012304381281137,0.03404748675879091
1783244310950696000,8.234696044921876,0.08685995280742645,-0.021928923213481902,0.05021938081551343
1783244310960707000,8.24470703125,0.09502630812823772,-0.03126899848878383,0.1023245388450101
1783244310970719000,8.254718994140624,0.06567980213463306,0.0038908699586987492,0.12201795809138566
1783244310980730000,8.264730224609375,0.036380057892203325,0.044909109045565124,0.12303860637601464
1783244310990742000,8.274741943359375,-0.03176116591989994,0.031096272270381448,0.12598525428716092
1783244311000753200,8.284753173828125,-0.06287000541090965,0.009201251326501368,0.1414296377869323
1783244311010765000,8.29476513671875,-0.042889878177642816,0.00661094257235527,0.13314056940190494
1783244311020776000,8.30477587890625,-0.036869887235760686,0.008759352777898312,0.11469839232563972
1783244311030787800,8.314787841796875,0.01267594169974327,0.022930209210515022,0.11183836325202137
1783244311040799200,8.32479931640625,0.11837328144609928,0.004890110129117965,0.13461462400984017
1783244311050811100,8.33481103515625,0.19813246233761309,-0.007731471034884452,0.1288212083654478
1783244311060822000,8.344822021484376,0.19452245514690875,-0.048233869554102415,0.12123506408538669
1783244311070834200,8.354834228515625,0.19294073891341684,-0.01987199068367481,0.14027750860974192
1783244311080845000,8.364844970703125,0.14304711945354937,0.026996435736119744,0.17838249059841035
1783244311090857000,8.37485693359375,0.03479775713682175,0.032984277974069116,0.1718411061309278
1783244311100868000,8.3848681640625,-0.05266834487020969,-0.01590571740120649,0.1370923392349854
1783244311110880300,8.39488037109375,-0.11771510979831218,-0.06545066955387592,0.08589066938385367
1783244311120891100,8.40489111328125,-0.1388023214906454,-0.04573913012892008,0.04370696671418845
1783244311130903000,8.414903076171875,-0.159528883177042,-0.0010708441019058226,0.02276866197325289
1783244311140914000,8.424913818359375,-0.12909399742484093,0.005325871197879314,0.027559586044214664
1783244311150926000,8.434926025390626,-0.04697919331789016,0.0012684125006198882,0.009021730041131376
1783244311160937000,8.44493701171875,0.010704933887720107,-0.015439853455126284,-0.010746471474505961
1783244311170948900,8.454948974609374,0.07682488100528717,-0.05338438418507575,-0.02936407818291336
1783244311180960300,8.464960205078125,0.08281330776512623,-0.05159662398546934,0.0043132600892335175
1783244311190972200,8.47497216796875,0.024892449194192885,-0.03272884190827608,0.07312058312725275
1783244311200983000,8.484983154296875,-0.0022778818041086194,-0.03226210117936134,0.0631727877497673
1783244311210995000,8.494994873046876,-0.019663316369056702,-0.03658464055359363,0.03308178353179246
1783244311221006000,8.505006103515624,-0.03612228373885155,-0.010590075336396694,-0.0067222209271043535
1783244311231018000,8.51501806640625,-0.03891220671832561,-0.0029766777232289312,-0.04279390698987991
1783244311241029000,8.525029052734375,-0.05330313564240932,-0.019122633621096608,-0.06313384397886693
1783244311251041300,8.535041259765626,-0.0505634815454483,-0.03839052093178034,-0.08263316542524844
1783244311261052200,8.54505224609375,0.006890928557515144,0.004150689938664436,-0.08562094906438142
1783244311271064000,8.55506396484375,0.01553892991542816,0.04030921403467655,-0.032086561949364836
1783244311281075000,8.565074951171875,-0.019117957445979116,-0.03473024485856294,-0.01146733309496194
1783244311291087000,8.575087158203125,0.006854688200354576,-0.10374036045968532,-0.10126176845170556
1783244311301098000,8.585097900390625,-0.039972529426217075,-0.08563070327341556,-0.05420413960274308
1783244311311110100,8.595110107421876,-0.05187748675346374,-0.004914952309429645,0.030627339584380388
1783244311321121000,8.60512109375,-0.044219080954790116,0.02104278802871704,0.04525222339481115
1783244311331133200,8.61513330078125,-0.08193243327736854,0.026604221548140048,0.01952270232196897
1783244311341144000,8.62514404296875,-0.09828677122890948,0.017248071920871733,0.0014486644383519887
1783244311351156000,8.635156005859375,-0.07734042931199073,0.015231763662397861,-0.06172726511657237
1783244311361166800,8.645166748046876,-0.09711948101520537,0.01777764875292778,-0.08968366845864802
1783244311371179000,8.655178955078124,-0.04605564873218536,0.033732465992867944,-0.08684698372799902
1783244311381190100,8.665190185546875,0.026923662760853766,0.0012242810979485512,-0.07191427607741206
1783244311391202000,8.6752021484375,0.07700082209408282,-0.03463233744204044,-0.024057423142157492
1783244311401213200,8.685213134765625,0.08901625405848025,-0.022668635664880275,-0.002916362370736897
1783244311411225000,8.69522509765625,0.056634325891733166,0.009806523743271827,0.02594002201836556
1783244311421236000,8.705236083984374,0.02874211035966873,0.023387889850139617,0.06538396099321543
1783244311431248000,8.715247802734375,-0.03480360235571861,0.030356267558038233,0.0647390141531825
1783244311441259300,8.72525927734375,-0.09128244542479515,0.022133798135817048,0.05883629291541874
1783244311451271200,8.735271240234376,-0.13317103760540486,0.007039397117495536,0.030744207429699598
1783244311461282000,8.745281982421876,-0.16424655934870241,0.013015548917651176,-0.018250380831211804
1783244311471294200,8.755294189453124,-0.0751806209295988,0.04227788375914097,-0.06013268940150737
1783244311481305000,8.76530517578125,-0.04123100505471229,0.06565291412770748,-0.0885622266806662
1783244311491317000,8.77531689453125,0.010972644913196564,0.06016688393205404,-0.10819544017240404
1783244311501328000,8.785327880859375,0.012012509354948997,0.053988195297121996,-0.09701686089094727
1783244311511339000,8.795339111328126,0.02643675602674484,0.06026829847991466,-0.05247567184232175
1783244311521351200,8.80535107421875,0.0520621956706047,0.07017126833498477,-0.012868797390721737
1783244311531362000,8.815362060546875,0.030977906587719914,0.045375265252590176,-0.0016903642397373914
1783244311541374000,8.8253740234375,0.02713175255358219,0.023305472263693807,0.007116261745989322
1783244311551385000,8.835385009765625,0.031819618108868596,0.0035310967355966566,-0.0034122195962816475
1783244311561397000,8.84539697265625,0.03601239362359047,0.01948123780041933,-0.011484686088562011
1783244311571408100,8.855408203125,0.0679348875850439,0.022526012323796748,-0.027861089741438624
1783244311581420000,8.865419921875,0.09565466915965079,0.015139116942882537,-0.040055531534552574
1783244311591431200,8.87543115234375,0.09087444914579391,-0.03703764501810074,-0.037957061417959626
1783244311601443000,8.885443115234375,0.08767536084353923,-0.08032996651679276,0.0034044746812433003
1783244311611454000,8.895453857421876,0.10880699619948864,-0.0825903126642108,0.04465783769823611
1783244311621466000,8.905466064453124,0.07796820582151412,-0.0718611211180687,0.07720609887521714
1783244311631477000,8.91547705078125,0.02255728424489498,-0.07837678662240505,0.11354239069093018
1783244311641489200,8.9254892578125,-0.05310439819991588,-0.12081073772609233,0.11222436689492314
1783244311651500000,8.9355,-0.11890928801894188,-0.10224252311736344,0.11525496676247567
1783244311661512200,8.94551220703125,-0.16959435011744498,-0.05087240136414766,0.11271434236895292
1783244311671523000,8.955523193359374,-0.19589608158767222,-0.046396132732927794,0.09251735751461238
1783244311681535000,8.965534912109375,-0.19425123699009417,-0.09255319601297378,0.00497749615162611
1783244311691546000,8.975546142578125,-0.16675591182112692,-0.08934650892615317,-0.05988726327307522
1783244311701558300,8.985558349609375,-0.10701076043248176,-0.04289513887465,-0.08004227214921265
1783244311711569400,8.9955693359375,-0.06477145511806011,0.016192133127152918,-0.07458144946005195
1783244311721581300,9.005581298828124,-0.006449030008912086,0.018961305579543113,-0.025853768507018683
1783244311731592200,9.01559228515625,0.014414309799671171,-0.05729308206140995,-0.004085442682728171
1783244311741604400,9.025604248046875,0.03588613689541816,-0.0821589355096221,-0.0055026525368914005
1783244311751615200,9.035615234375,0.029115035325288773,-0.03923895445466041,0.02001191061101854
1783244311761627100,9.045627197265626,-0.02343523612320423,-0.0029798925936222074,0.058419053884036835
1783244311771638300,9.05563818359375,-0.0424725295484066,0.010963292562961578,0.015424107896722852
1783244311781650400,9.065650390625,-0.020334932020306586,0.051425943593680856,-0.04814929654318839
1783244311791661300,9.075661376953125,-0.008690086933970451,0.09953472546339034,-0.10157375701032578
1783244311801673200,9.085673095703125,0.07815116117298603,0.09498451481312513,-0.13496961145997047
1783244311811684400,9.095684326171876,0.12572890490591526,0.037466099563241005,-0.15799688783679156
1783244311821696300,9.1056962890625,0.14592413619458675,-0.01886953564286232,-0.1458051129247993
1783244311831707100,9.11570703125,0.10458148745894431,-0.008939385519921779,-0.10534797831941395
1783244311841719300,9.12571923828125,-0.025982582518458364,0.010471417392790316,-0.004950754275172949
1783244311851730400,9.13573046875,-0.1292950729548931,0.03388093455284834,0.03953344388920814
1783244311861742300,9.145742431640626,-0.19568916083872318,0.0779296273767948,0.05062496594171971
1783244311871753200,9.155753173828124,-0.2312631630450487,0.08001344791352748,0.0014776713371276854
1783244311881765400,9.165765380859375,-0.21547113515138624,0.04460895705521106,-0.08204933765530585
1783244311891776300,9.1757763671875,-0.14549977330267427,-0.010451835909485816,-0.15979809203986078
1783244311901788200,9.1857880859375,-0.08452946403324603,-0.0213037770524621,-0.2019324391424656
1783244311911799300,9.19579931640625,-0.01212473755776882,0.028283552937209605,-0.144038870437257
1783244311921811500,9.2058115234375,0.0010778583645820617,0.031543431515991684,-0.033856749959662556
1783244311931822300,9.215822265625,0.022144027268886566,0.014269932892918585,0.056251683249697086
1783244311941834200,9.225834228515625,0.03103577425479889,0.04030366107672453,0.09042900693323462
1783244311951845000,9.23584521484375,0.017280220624804495,0.056142450721561904,0.10115750435963272
1783244311961857300,9.245857177734376,0.046642508709430694,0.017095803968608377,0.0897848272781819
1783244311971868200,9.2558681640625,0.09424421783983707,-0.014678513693809509,0.010601327382773161
1783244311981880000,9.265880126953125,0.10968144094645976,-0.013142390167713165,-0.0395615740051493
1783244311991891500,9.275891357421875,0.10876549514532088,0.009729951375722884,-0.049034993336535986
1783244312001902300,9.28590234375,0.09620236617028713,-0.01577156962752342,-0.01692906909957528
1783244312011914200,9.295914306640626,0.04598024540841579,-0.04212181641459465,-0.024141119370236993
1783244312021925000,9.305925048828126,-0.003906944310665131,-0.03188625360429287,-0.015047821930237114
1783244312031937300,9.315937255859374,0.008750877210497856,0.03360767056941986,0.026510551915317773
1783244312041948400,9.325948486328125,0.02251987484395504,0.07367752289026976,0.05999908961709589
1783244312051960300,9.335960205078125,0.04014847051501274,0.04299187724739313,0.0533887315666303
1783244312061971200,9.34597119140625,0.07156067686676978,-0.03850421043932438,0.038562187704257664
1783244312071983400,9.3559833984375,0.12949497944116592,-0.07342442491203546,0.05765522990468889
1783244312081994200,9.365994140625,0.18126725225448606,-0.052887832839787007,0.0820685903450474
1783244312092006100,9.376006103515625,0.17946517126858233,0.00933539910018444,0.12147654469106346
1783244312102017300,9.386017333984375,0.03197217832207679,0.0377428706780076,0.10897753046080469
1783244312112029400,9.396029541015626,-0.1918798316836357,0.07021919912993907,0.08630776228476315
1783244312122040300,9.406040283203126,-0.39406186167299745,0.1390527891203761,-0.009095416331849992
1783244312132052200,9.41605224609375,-0.586484714192152,0.039565702190995214,-0.030711839530058203
1783244312142063400,9.4260634765625,-0.4412637578308582,-0.08454553838521242,-0.19550196770355105
1783244312152075300,9.4360751953125,-0.12997311834692954,-0.0446247391462326,-0.15882106370124965
1783244312162086100,9.446086181640625,0.10965981363654136,0.09492781618982553,-0.0035877222936600444
1783244312172098000,9.45609814453125,0.30469080282747746,0.13207535132318735,0.11448325173761695
1783244312182109400,9.466109375,0.40373394538164137,0.08050123143047094,0.17366357231773435
1783244312192121300,9.476121337890625,0.38290743045210834,-0.03491261568814516,0.20537677091006187
1783244312202132200,9.48613232421875,0.29436873077750203,-0.0588853196889162,0.2365531592119485
1783244312212144400,9.496144287109376,0.0017015432208776474,0.09112930068969725,0.29811617367751897
