time,seconds_elapsed,z,y,x
1783244302751267000,0.03526708984375,-0.121162548661232,0.18520376086235046,-0.30718332529067993
1783244302761278200,0.0452783203125,-0.13297739624977112,0.14790590107440948,-0.24835501611232758
1783244302771290000,0.0552900390625,-0.1261008381843567,0.11966973543167114,-0.17169007658958435
1783244302781301200,0.06530126953125,-0.10857932269573212,0.0990815982222557,-0.10644596815109253
1783244302791313200,0.075313232421875,-0.09922310709953308,0.08951286226511002,-0.07409761101007462
1783244302801324000,0.085323974609375,-0.104910708963871,0.08395498991012573,-0.06896089762449265
1783244302811336000,0.0953359375,-0.11175103485584259,0.052548594772815704,-0.07252367585897446
1783244302821347300,0.105347412109375,-0.10725594311952591,0.019920818507671356,-0.0820717141032219
1783244302831359200,0.115359130859375,-0.08844470232725143,-0.0035261851735413074,-0.09279173612594604
1783244302841371100,0.12537109375,-0.05848914012312889,-0.014640969224274158,-0.09670349955558777
1783244302851382300,0.13538232421875,-0.03138348460197449,-0.01624339446425438,-0.09101685136556625
1783244302861394200,0.145394287109375,-0.013352363370358944,-0.013918879441916943,-0.07440434396266937
1783244302871405000,0.155405029296875,0.0009349638130515814,0.009996573440730572,-0.06099506467580795
1783244302881417000,0.1654169921875,0.004128850996494293,0.05644785240292549,-0.046595942229032516
1783244302891428400,0.175428466796875,-0.0007764254696667194,0.11407173424959183,-0.03652919456362724
1783244302901440300,0.185440185546875,-0.0110136978328228,0.1548435240983963,-0.02872135303914547
1783244302911451100,0.195451171875,-0.019424226135015488,0.16589777171611786,-0.02228049747645855
1783244302921463300,0.20546337890625,-0.018936213105916977,0.15659692883491516,-0.018228160217404366
1783244302931474200,0.21547412109375,-0.018274150788784027,0.1133543848991394,0.0002552424557507038
1783244302941486000,0.225486083984375,-0.02973155677318573,0.030727649107575417,0.028026815503835678
1783244302951497000,0.2354970703125,-0.04723145440220833,-0.043660566210746765,0.050996046513319016
1783244302961509000,0.245509033203125,-0.06585284322500229,-0.0724964588880539,0.06121034547686577
1783244302971520300,0.255520263671875,-0.0891331285238266,-0.06991931796073914,0.06695105135440826
1783244302981532200,0.2655322265625,-0.11447475105524063,-0.07519648224115372,0.0694596990942955
1783244302991543000,0.27554296875,-0.1357976198196411,-0.08393218368291855,0.0721215233206749
1783244303001555200,0.28555517578125,-0.15103735029697418,-0.0780450627207756,0.07009851187467575
1783244303011567000,0.295567138671875,-0.1599632054567337,-0.05431016907095909,0.05854145810008049
1783244303021578000,0.305577880859375,-0.1573607325553894,-0.06158244237303734,0.050521738827228546
1783244303031590100,0.315590087890625,-0.1427048295736313,-0.08869928121566772,0.05312950536608696
1783244303041601300,0.325601318359375,-0.123100146651268,-0.10198312997817993,0.06428850442171097
1783244303051613200,0.33561328125,-0.0966392531991005,-0.08907665312290192,0.08611656725406647
1783244303061624000,0.3456240234375,-0.07215600460767746,-0.04926599934697151,0.11986368149518967
1783244303071636200,0.35563623046875,-0.04954816401004791,0.0023255576379597187,0.15713649988174438
1783244303081647000,0.365647216796875,-0.043135084211826324,0.057874951511621475,0.18566878139972687
1783244303091659000,0.375658935546875,-0.048256341367959976,0.10168474167585373,0.20105572044849396
1783244303101670100,0.385670166015625,-0.057434502989053726,0.1353130042552948,0.21410901844501495
1783244303111682300,0.395682373046875,-0.07439884543418884,0.14706739783287048,0.22874067723751068
1783244303121693200,0.405693115234375,-0.10169600695371628,0.13511326909065247,0.23604148626327515
1783244303131705000,0.415705078125,-0.12356109172105789,0.11704318225383759,0.23313863575458527
1783244303141716200,0.42571630859375,-0.13914336264133453,0.10087514668703079,0.22010718286037445
1783244303151728000,0.43572802734375,-0.15003356337547302,0.0920126736164093,0.19894623756408691
1783244303161740000,0.445739990234375,-0.14871832728385925,0.09891193360090256,0.16876250505447388
1783244303171751200,0.455751220703125,-0.1357167661190033,0.12118155509233475,0.1447298675775528
1783244303181763000,0.46576318359375,-0.11217565834522247,0.13251815736293793,0.13456463813781738
1783244303191774200,0.475774169921875,-0.08474510163068771,0.1259675770998001,0.1399863064289093
1783244303201786000,0.4857861328125,-0.05585869401693344,0.10281693190336227,0.16492222249507904
1783244303211797200,0.49579736328125,-0.02540305256843567,0.0720377117395401,0.19630198180675507
1783244303221809200,0.50580908203125,0.004708992317318916,0.06625323742628098,0.22643093764781952
1783244303231820000,0.515820068359375,0.029842041432857513,0.09182597696781158,0.2532910406589508
1783244303241832200,0.525832275390625,0.056908320635557175,0.1361647993326187,0.2638167142868042
1783244303251843300,0.53584326171875,0.07913373410701752,0.18262630701065063,0.2591862678527832
1783244303261855200,0.545855224609375,0.09376296401023865,0.22133058309555054,0.24874387681484222
1783244303271866000,0.5558662109375,0.10088079422712326,0.25161659717559814,0.22683192789554596
1783244303281878300,0.565878173828125,0.09314063936471939,0.2926866114139557,0.18345403671264648
1783244303291889200,0.57588916015625,0.0739259272813797,0.3410046100616455,0.11339238286018372
1783244303301901000,0.585901123046875,0.037874169647693634,0.35694631934165955,0.021827975288033485
1783244303311912000,0.595911865234375,-0.01581941731274128,0.3105604350566864,-0.06456789374351501
1783244303321924000,0.605924072265625,-0.07646225392818451,0.19075389206409454,-0.11991850286722183
1783244303331936000,0.61593603515625,-0.1190403401851654,0.02264583855867386,-0.1163695752620697
1783244303341947100,0.625947021484375,-0.13098935782909393,-0.15136262774467468,-0.043093565851449966
1783244303351959300,0.635959228515625,-0.11822083592414856,-0.25883740186691284,0.070493184030056
1783244303361970200,0.64597021484375,-0.10825532674789429,-0.2284252941608429,0.16963408887386322
1783244303371982000,0.655982177734375,-0.1093970239162445,-0.0720042735338211,0.20932477712631226
1783244303381993000,0.665992919921875,-0.12030261754989624,0.13889233767986298,0.1932258903980255
1783244303392005000,0.676005126953125,-0.1348400115966797,0.3233855068683624,0.13329865038394928
1783244303402016300,0.686016357421875,-0.149758979678154,0.4330253601074219,0.05756967514753342
1783244303412028200,0.696028076171875,-0.1462736874818802,0.4386400878429413,-0.008638370782136917
1783244303422039000,0.7060390625,-0.13416901230812073,0.334822416305542,-0.04526037722826004
1783244303432051200,0.71605126953125,-0.11426640301942825,0.17368704080581665,-0.04538821056485176
1783244303442062000,0.72606201171875,-0.08534702658653259,0.014653186313807964,-0.03647986054420471
1783244303452074000,0.736073974609375,-0.06593097746372223,-0.07255575060844421,-0.06833553314208984
1783244303462085000,0.746085205078125,-0.07629767060279846,-0.07067638635635376,-0.15295714139938354
1783244303472097300,0.75609716796875,-0.10993579030036926,-0.04022553563117981,-0.27727988362312317
1783244303482108200,0.766108154296875,-0.159317284822464,-0.022524377331137657,-0.4104945957660675
1783244303492120000,0.7761201171875,-0.20984730124473572,-0.035631127655506134,-0.5218549370765686
1783244303502132200,0.78613232421875,-0.2274857461452484,-0.05428263172507286,-0.5857999324798584
1783244303512143000,0.79614306640625,-0.2092375010251999,-0.050877247005701065,-0.6025442481040955
1783244303522155000,0.806155029296875,-0.171942800283432,-0.008767140097916126,-0.5857083201408386
1783244303532166100,0.816166259765625,-0.12077441811561584,0.04255650192499161,-0.564751386642456
1783244303542178000,0.826177978515625,-0.08196274191141129,0.08135401457548141,-0.5547960996627808
1783244303552189200,0.836189208984375,-0.06439360231161118,0.08926732838153839,-0.5453565120697021
1783244303562201300,0.846201416015625,-0.0526498481631279,0.07515612989664078,-0.5363993644714355
1783244303572212200,0.856212158203125,-0.0415780209004879,0.0558687187731266,-0.5292101502418518
1783244303582224100,0.86622412109375,-0.03477036580443382,0.042228490114212036,-0.5219358205795288
1783244303592235000,0.876235107421875,-0.034190595149993896,0.03836024925112724,-0.507499098777771
1783244303602247200,0.8862470703125,-0.030166763812303543,0.013560416176915169,-0.4936453104019165
1783244303612258300,0.89625830078125,-0.030214965343475342,-0.011159577406942844,-0.4757680296897888
1783244303622270200,0.906270263671875,-0.03703286871314049,-0.035476699471473694,-0.4515569806098938
1783244303632281000,0.916281005859375,-0.04450436681509018,-0.05093102157115936,-0.42216628789901733
1783244303642293200,0.926293212890625,-0.04942259192466736,-0.05368494987487793,-0.39189276099205017
1783244303652304100,0.93630419921875,-0.03757498785853386,-0.06412268429994583,-0.3528795838356018
1783244303662316000,0.94631591796875,-0.0182289220392704,-0.0899353101849556,-0.3109038472175598
1783244303672327200,0.9563271484375,-0.0002597768325358629,-0.12623527646064758,-0.2724328637123108
1783244303682338600,0.966338623046875,0.01682880148291588,-0.16845738887786865,-0.25064516067504883
1783244303692350700,0.976350830078125,0.023476317524909973,-0.20130908489227295,-0.24220827221870422
1783244303702361600,0.986361572265625,0.022966934368014336,-0.23594574630260468,-0.24243035912513733
1783244303712373500,0.99637353515625,0.009452990256249905,-0.2592470645904541,-0.23850592970848083
1783244303722384400,1.00638427734375,-0.0037798965349793434,-0.2478775680065155,-0.23028315603733063
1783244303732396500,1.016396484375,-0.009013541042804718,-0.2171873152256012,-0.218094140291214
1783244303742407700,1.02640771484375,-0.0029968502931296825,-0.20208649337291718,-0.20241768658161163
1783244303752419600,1.036419677734375,0.003879431402310729,-0.18999174237251282,-0.18144315481185913
1783244303762430500,1.046430419921875,0.007341626100242138,-0.17803554236888885,-0.1643407642841339
1783244303772442600,1.056442626953125,0.011573122814297676,-0.1643460988998413,-0.14591355621814728
1783244303782453500,1.06645361328125,0.019087128341197968,-0.1548670083284378,-0.12386457622051239
1783244303792465400,1.07646533203125,0.02938743680715561,-0.13953466713428497,-0.09648674726486206
1783244303802476300,1.086476318359375,0.04099943861365318,-0.12762998044490814,-0.06741894781589508
1783244303812488400,1.096488525390625,0.047691695392131805,-0.12140298634767532,-0.04674855247139931
1783244303822499600,1.10649951171875,0.05233088508248329,-0.11401376873254776,-0.04521510377526283
1783244303832511500,1.116511474609375,0.05923246592283249,-0.09878075867891312,-0.051780059933662415
1783244303842522600,1.126522705078125,0.06730671972036362,-0.08431065827608109,-0.06364131718873978
1783244303852534500,1.136534423828125,0.07768692821264267,-0.07259009033441544,-0.0805707722902298
1783244303862546400,1.14654638671875,0.0891113355755806,-0.06984666734933853,-0.09850294142961502
1783244303872557600,1.1565576171875,0.09783398360013962,-0.08716333657503128,-0.10087315738201141
1783244303882569500,1.166569580078125,0.0991806834936142,-0.10238774120807648,-0.09344068914651871
1783244303892580600,1.17658056640625,0.09305834770202637,-0.09533782303333282,-0.07928945124149323
1783244303902592500,1.186592529296875,0.08370879292488098,-0.06542722135782242,-0.07440153509378433
1783244303912603600,1.196603759765625,0.07119593024253845,-0.012427392415702343,-0.08344350010156631
1783244303922615600,1.206615478515625,0.06353174895048141,0.03148287162184715,-0.09244827181100845
1783244303932626400,1.21662646484375,0.0647330954670906,0.04583944007754326,-0.09916316717863083
1783244303942638600,1.226638671875,0.06880134344100952,0.036010511219501495,-0.09836341440677643
1783244303952649500,1.2366494140625,0.07706619799137115,0.014811749570071697,-0.08850599080324173
1783244303962661600,1.24666162109375,0.08147157728672028,-0.008141114376485348,-0.07807271927595139
1783244303972672500,1.256672607421875,0.07703901082277298,-0.028860239312052727,-0.07155676186084747
1783244303982684700,1.2666845703125,0.06588056683540344,-0.037236735224723816,-0.07138852030038834
1783244303992695600,1.276695556640625,0.04309775307774544,-0.0439566895365715,-0.07592947781085968
1783244304002707500,1.28670751953125,0.023410862311720848,-0.042999401688575745,-0.08258078992366791
1783244304012718300,1.29671826171875,0.005501369945704937,-0.03282319754362106,-0.0843627080321312
1783244304022730500,1.30673046875,0.0018887046026065946,-0.020365802571177483,-0.08285555243492126
1783244304032741600,1.31674169921875,0.013544561341404915,-0.009160819463431835,-0.07682828605175018
1783244304042753500,1.32675341796875,0.028993766754865646,0.01301884837448597,-0.074880450963974
1783244304052765700,1.336765625,0.045891523361206055,0.03345993906259537,-0.07594065368175507
1783244304062776600,1.346776611328125,0.05937314033508301,0.03733201324939728,-0.08057229220867157
1783244304072788500,1.35678857421875,0.06762654334306717,0.022992487996816635,-0.08419578522443771
1783244304082799400,1.36679931640625,0.06604889035224915,0.0025782703887671232,-0.0803777351975441
1783244304092811500,1.3768115234375,0.05638907849788666,-0.020340362563729286,-0.0769537091255188
1783244304102822700,1.38682275390625,0.046852659434080124,-0.037982553243637085,-0.06881403923034668
1783244304112834600,1.39683447265625,0.035723041743040085,-0.04948048293590546,-0.061443474143743515
1783244304122845400,1.406845458984375,0.019823813810944557,-0.06505729258060455,-0.04900337755680084
1783244304132857600,1.416857666015625,0.0002013780176639557,-0.07716216146945953,-0.026498600840568542
1783244304142868500,1.426868408203125,-0.022801432758569717,-0.07540308684110641,-0.0006600897759199142
1783244304152880400,1.43688037109375,-0.04461298882961273,-0.052771005779504776,0.025798149406909943
1783244304162891500,1.4468916015625,-0.05984111130237579,-0.022916121408343315,0.036143265664577484
1783244304172903400,1.4569033203125,-0.06967882812023163,0.000024881213903427124,0.03808284550905228
1783244304182914600,1.46691455078125,-0.06865736842155457,0.008784770965576172,0.03025522083044052
1783244304192926500,1.476926513671875,-0.06303916126489639,0.0039029307663440704,0.02068115770816803
1783244304202937600,1.4869375,-0.049363695085048676,-0.006163657642900944,0.01001292746514082
1783244304212949500,1.496949462890625,-0.03246007859706879,-0.007186044938862324,-0.003878386691212654
1783244304222960400,1.50696044921875,-0.008785742335021496,-0.0017242170870304108,-0.02039138227701187
1783244304232972500,1.51697265625,0.003842434613034129,-0.007712334860116243,-0.03223365917801857
1783244304242983700,1.526983642578125,0.018370933830738068,-0.03661590442061424,-0.02407686412334442
1783244304252995600,1.53699560546875,0.024414177983999252,-0.0685698390007019,-0.004430992063134909
1783244304263007500,1.547007568359375,0.023483941331505775,-0.09337946772575378,0.025391152128577232
1783244304273018600,1.5570185546875,0.009996630251407623,-0.09698618948459625,0.05558473989367485
1783244304283030500,1.567030517578125,-0.002974284812808037,-0.0807393342256546,0.07457534968852997
1783244304293041400,1.57704150390625,-0.016031496226787567,-0.055850498378276825,0.07566271722316742
1783244304303053600,1.587053466796875,-0.025389473885297775,-0.03031008318066597,0.062307097017765045
1783244304313064400,1.597064453125,-0.03299093618988991,-0.006617804057896137,0.040510986000299454
1783244304323076600,1.60707666015625,-0.03390095382928848,0.004413719289004803,0.015822745859622955
1783244304333087500,1.61708740234375,-0.027050774544477463,0.006813760381191969,-0.004226062446832657
1783244304343099600,1.627099609375,-0.024234989657998085,0.000058594392612576485,-0.01620388589799404
1783244304353110500,1.637110595703125,-0.022431230172514915,-0.020724449306726456,-0.015442222356796265
1783244304363122400,1.647122314453125,-0.020788008347153664,-0.024315107613801956,-0.010423296131193638
1783244304373133300,1.65713330078125,-0.014584973454475403,-0.0160214900970459,-0.00872393324971199
1783244304383145500,1.6671455078125,-0.0030836998485028744,-0.008073276840150356,-0.010674240067601204
1783244304393156600,1.677156494140625,-0.0016778171993792057,-0.006347548216581345,-0.012752038426697254
1783244304403168500,1.68716845703125,-0.0021757595241069794,-0.01708843559026718,-0.009788064286112785
1783244304413179600,1.6971796875,0.0030509603675454855,-0.03362319990992546,0.0021428968757390976
1783244304423191600,1.707191650390625,0.00973692536354065,-0.05308926850557327,0.02114834077656269
1783244304433202400,1.717202392578125,0.008786976337432861,-0.06485697627067566,0.04246801137924194
1783244304443214300,1.72721435546875,0.0019078428158536553,-0.06113950163125992,0.05491815134882927
1783244304453226500,1.7372265625,-0.010901961475610733,-0.05672797933220863,0.06391910463571548
1783244304463237600,1.747237548828125,-0.026015805080533028,-0.04892002418637276,0.06460553407669067
1783244304473249500,1.75724951171875,-0.038101762533187866,-0.03653765469789505,0.05608581751585007
1783244304483260700,1.7672607421875,-0.03573000803589821,-0.02608947642147541,0.054991789162158966
1783244304493272600,1.7772724609375,-0.025773247703909874,-0.036766357719898224,0.06491951644420624
1783244304503283500,1.787283447265625,-0.015120272524654865,-0.06424346566200256,0.08645763993263245
1783244304513295400,1.79729541015625,-0.0077832648530602455,-0.0874132364988327,0.10582521557807922
1783244304523306500,1.807306396484375,-0.00301497895270586,-0.09007629007101059,0.11993024498224258
1783244304533318400,1.817318359375,-0.0021672947332262993,-0.07578790187835693,0.12191882729530334
1783244304543329500,1.82732958984375,-0.005341250449419022,-0.0643022209405899,0.12185144424438477
1783244304553341700,1.837341796875,-0.01573769748210907,-0.06793077290058136,0.12135078012943268
1783244304563352600,1.8473525390625,-0.020009182393550873,-0.06690509617328644,0.1176813393831253
1783244304573364500,1.857364501953125,-0.02342521771788597,-0.04523814842104912,0.11359471082687378
1783244304583375400,1.867375244140625,-0.02243889681994915,-0.019002776592969894,0.10104044526815414
1783244304593387500,1.877387451171875,-0.020953118801116943,-0.005265394225716591,0.08616243302822113
1783244304603398700,1.887398681640625,-0.017448050901293755,0.0037352461367845535,0.06907651573419571
1783244304613410600,1.89741064453125,-0.012133711948990822,0.008636527694761753,0.050199493765830994
1783244304623421400,1.90742138671875,-0.007825834676623344,-0.004168299958109856,0.04016104340553284
1783244304633433600,1.91743359375,-0.006700383499264717,-0.025988377630710602,0.04223963990807533
1783244304643444500,1.927444580078125,-0.0033034696243703365,-0.03672589361667633,0.04387661814689636
1783244304653456400,1.937456298828125,-0.0025098472833633423,-0.05027845501899719,0.054653100669384
1783244304663468500,1.947468505859375,-0.008744638413190842,-0.0669831782579422,0.07907715439796448
1783244304673479700,1.957479736328125,-0.01541399210691452,-0.05960302799940109,0.10185330361127853
1783244304683491600,1.96749169921875,-0.024593999609351158,-0.035089630633592606,0.11795024573802948
1783244304693502700,1.977502685546875,-0.036247726529836655,-0.014497801661491394,0.12101554125547409
1783244304703514600,1.9875146484375,-0.0487489216029644,0.014899151399731636,0.11431616544723511
1783244304713525500,1.997525390625,-0.048409368842840195,0.050215329974889755,0.08686856180429459
1783244304723537400,2.007537353515625,-0.03389168530702591,0.06530628353357315,0.046510420739650726
1783244304733548500,2.017548583984375,-0.015534250065684319,0.04846178740262985,0.00807274878025055
1783244304743560400,2.027560546875,0.0011675357818603516,0.009946472942829132,-0.019032038748264313
1783244304753571600,2.037571533203125,0.016842901706695557,-0.015964752063155174,-0.03512392193078995
1783244304763583700,2.047583740234375,0.019555408507585526,-0.03853476047515869,-0.04109213128685951
1783244304773594600,2.0575947265625,0.008434315212070942,-0.05405938997864723,-0.02964240312576294
1783244304783606500,2.0676064453125,-0.00502717774361372,-0.05112375691533089,-0.015152812004089355
1783244304793617400,2.077617431640625,-0.018406633287668228,-0.03488726168870926,-0.00381600228138268
1783244304803629600,2.087629638671875,-0.02854495495557785,-0.007504590786993504,0.008953124284744263
1783244304813640700,2.097640625,-0.03612484410405159,-0.013561418280005455,0.03395834192633629
1783244304823652600,2.107652587890625,-0.03440798819065094,-0.048242293298244476,0.06363235414028168
1783244304833663500,2.11766357421875,-0.03379040211439133,-0.05917217209935188,0.0813698023557663
1783244304843675600,2.127675537109375,-0.030682960525155067,-0.03943304717540741,0.0787527784705162
1783244304853686500,2.1376865234375,-0.034703005105257034,-0.02552228979766369,0.06776031851768494
1783244304863698400,2.147698486328125,-0.038414690643548965,-0.035357192158699036,0.0584663450717926
1783244304873709600,2.15770947265625,-0.04055853188037872,-0.04314720630645752,0.054640449583530426
1783244304883721500,2.167721435546875,-0.03443364426493645,-0.030169757083058357,0.045062124729156494
1783244304893732600,2.177732666015625,-0.027638858184218407,-0.02026066556572914,0.0336744487285614
1783244304903744500,2.18774462890625,-0.023412998765707016,-0.03935869410634041,0.030126987025141716
1783244304913756700,2.197756591796875,-0.023533107712864876,-0.0626368522644043,0.034979529678821564
1783244304923767600,2.207767578125,-0.02211778238415718,-0.06648380309343338,0.04307854175567627
1783244304933779500,2.217779541015625,-0.01850440353155136,-0.04757668823003769,0.04730045050382614
1783244304943790600,2.22779052734375,-0.014677535742521286,-0.03528612107038498,0.0550055168569088
1783244304953802500,2.237802490234375,-0.01976257562637329,-0.043499309569597244,0.0692419782280922
1783244304963813600,2.247813720703125,-0.02584300935268402,-0.04233052581548691,0.08061579614877701
1783244304973825500,2.257825439453125,-0.03307003155350685,-0.00873901229351759,0.07938701659440994
1783244304983836700,2.267836669921875,-0.02701929584145546,0.024845842272043228,0.06518995761871338
1783244304993848600,2.2778486328125,-0.015791140496730804,0.017608702182769775,0.052235815674066544
1783244305003859500,2.287859375,-0.00012976792640984058,-0.0037394787650555372,0.04551086947321892
1783244305013871600,2.29787158203125,0.014608964323997498,-0.004804210737347603,0.028515111654996872
1783244305023882800,2.3078828125,0.02840876393020153,-0.0028579249046742916,0.015153560787439346
1783244305033894700,2.317894775390625,0.03723873943090439,-0.024537919089198112,0.00667751906439662
1783244305043905500,2.327905517578125,0.03911775350570679,-0.04135138913989067,0.0000060335732996463776
1783244305053917700,2.337917724609375,0.03676937520503998,-0.02510717138648033,-0.01138909999281168
1783244305063928600,2.347928466796875,0.03554421663284302,0.011280763894319534,-0.026521582156419754
1783244305073940500,2.3579404296875,0.03321288526058197,0.024261541664600372,-0.03174164146184921
1783244305083951400,2.367951416015625,0.030293632298707962,0.0040176911279559135,-0.016157222911715508
1783244305093963500,2.377963623046875,0.027543919160962105,-0.019532108679413795,0.0060045369900763035
1783244305103974700,2.387974609375,0.02865958958864212,-0.0105677405372262,0.01918066293001175
1783244305113986600,2.397986572265625,0.0255812406539917,-0.004019826650619507,0.0264031570404768
1783244305123997400,2.40799755859375,0.01849684864282608,-0.021794430911540985,0.032872237265110016
1783244305134009600,2.418009521484375,0.012396878562867641,-0.01790595054626465,0.029276970773935318
1783244305144021500,2.428021484375,0.01349931675940752,0.01729542948305607,0.018950097262859344
1783244305154032400,2.438032470703125,0.017233334481716156,0.027605591341853142,0.0135076604783535
1783244305164044500,2.44804443359375,0.02142658457159996,0.006833900697529316,0.011492312885820866
1783244305174055700,2.4580556640625,0.020433492958545685,0.00974260549992323,-0.006391611881554127
1783244305184067600,2.468067626953125,0.016524095088243484,0.025219019502401352,-0.026636360213160515
1783244305194078500,2.478078369140625,0.019660234451293945,0.012073655612766743,-0.03357655555009842
1783244305204090600,2.488090576171875,0.026631688699126244,-0.005973740015178919,-0.029503189027309418
1783244305214101500,2.4981015625,0.034109845757484436,-0.003914850298315287,-0.016438785940408707
1783244305224113400,2.508113525390625,0.03615652024745941,0.008292132057249546,-0.00042087072506546974
1783244305234124500,2.51812451171875,0.03373171389102936,0.025930248200893402,0.005565648898482323
1783244305244136400,2.528136474609375,0.02914571203291416,0.035052791237831116,0.005199397448450327
1783244305254147600,2.538147705078125,0.022545067593455315,0.03888934105634689,-0.0056135687045753
1783244305264159700,2.54815966796875,0.01952819898724556,0.036880139261484146,-0.01594136841595173
1783244305274170600,2.558170654296875,0.020983349531888962,0.02812233194708824,-0.02305733598768711
1783244305284182500,2.5681826171875,0.023455485701560974,0.014801979064941406,-0.028808370232582092
1783244305294193400,2.578193359375,0.0260776337236166,0.01704782247543335,-0.035982925444841385
1783244305304205600,2.58820556640625,0.023626310750842094,0.02471519634127617,-0.040430404245853424
1783244305314216700,2.598216796875,0.02745433896780014,0.023501060903072357,-0.03176474571228027
1783244305324228600,2.608228515625,0.024449175223708153,0.015393251553177834,-0.018145805224776268
1783244305334239500,2.618239501953125,0.02069678157567978,0.02361416257917881,-0.010135282762348652
1783244305344251600,2.628251708984375,0.015986623242497444,0.023528747260570526,-0.007783706299960613
1783244305354262500,2.638262451171875,0.006813098676502705,0.0030748716089874506,-0.005739463493227959
1783244305364274400,2.6482744140625,-0.009024064056575298,-0.009000768885016441,-0.006058249622583389
1783244305374285600,2.65828564453125,-0.022332677617669106,0.009146809577941895,-0.011527316644787788
1783244305384297700,2.668297607421875,-0.026261411607265472,0.019064035266637802,-0.015521327033638954
1783244305394309600,2.6783095703125,-0.01249739620834589,-0.0029571112245321274,-0.012132454663515091
1783244305404320500,2.688320556640625,0.004703960847109556,-0.019786424934864044,-0.008835993707180023
1783244305414332700,2.698332763671875,0.011958678252995014,-0.003899604082107544,-0.015417197719216347
1783244305424343600,2.708343505859375,0.013081791810691357,0.02363874576985836,-0.028595317155122757
1783244305434355500,2.71835546875,0.008663874119520187,0.027982095256447792,-0.03624444827437401
1783244305444366300,2.728366455078125,0.004587781615555286,0.010553855448961258,-0.037046659737825394
1783244305454378500,2.73837841796875,-0.003472008742392063,-0.021479444578289986,-0.022532165050506592
1783244305464389600,2.7483896484375,-0.013456718996167183,-0.03663606196641922,-0.0017407333943992853
1783244305474401500,2.758401611328125,-0.022088022902607918,-0.02953793853521347,0.016836145892739296
1783244305484412700,2.76841259765625,-0.03165379539132118,-0.029856331646442413,0.040823038667440414
1783244305494424600,2.778424560546875,-0.04113597795367241,-0.03842558711767197,0.06009260565042496
1783244305504435500,2.788435546875,-0.04486476629972458,-0.02094331756234169,0.06636614352464676
1783244305514447400,2.798447265625,-0.04450497403740883,-0.0008393819443881512,0.06107258424162865
1783244305524458800,2.808458740234375,-0.04084176570177078,-0.014049399644136429,0.055607590824365616
1783244305534470700,2.818470703125,-0.03729603439569473,-0.035213276743888855,0.048728909343481064
1783244305544481500,2.8284814453125,-0.028435926884412766,-0.03284333646297455,0.03489138185977936
1783244305554493700,2.83849365234375,-0.01684505306184292,-0.019450034946203232,0.019832003861665726
1783244305564504600,2.848504638671875,-0.0119826290756464,-0.022313309833407402,0.012591070495545864
1783244305574516500,2.8585166015625,-0.019352395087480545,-0.021295448765158653,0.020031675696372986
1783244305584527600,2.868527587890625,-0.043751079589128494,0.03495965898036957,0.04433608055114746
1783244305594539500,2.87853955078125,-0.048146095126867294,0.081661656498909,0.06393348425626755
1783244305604550700,2.888550537109375,-0.03157258406281471,0.08619094640016556,0.07269562035799026
1783244305614562600,2.8985625,-0.020258942618966103,0.075275719165802,0.05396747589111328
1783244305624573400,2.908573486328125,-0.015390757471323013,0.05746052414178848,0.013937363401055336
1783244305634585600,2.918585693359375,-0.009193049743771553,0.018783703446388245,-0.029997337609529495
1783244305644596500,2.928596435546875,0.0005186859052628279,-0.02448437176644802,-0.06075724586844444
1783244305654608400,2.9386083984375,0.010537497699260712,-0.044728390872478485,-0.064080610871315
1783244305664620500,2.94862060546875,0.02016974799335003,-0.04729557782411575,-0.05546887218952179
1783244305674631700,2.958631591796875,0.034697290509939194,-0.03721658140420914,-0.03110308013856411
1783244305684643600,2.9686435546875,0.04652203246951103,-0.021434038877487183,-0.005053839646279812
1783244305694654500,2.978654541015625,0.04789089784026146,-0.00542764225974679,0.019562024623155594
1783244305704666400,2.988666259765625,0.04079635441303253,0.007816657423973083,0.037866465747356415
1783244305714677200,2.99867724609375,0.03156504034996033,0.01104467548429966,0.045018117874860764
1783244305724689400,3.008689453125,0.020329046994447708,0.009338254109025002,0.03929551690816879
1783244305734700500,3.018700439453125,0.007812720723450184,0.0004217245150357485,0.025946419686079025
1783244305744712400,3.02871240234375,-0.0019237836822867393,-0.01391410268843174,0.007875410839915276
1783244305754723300,3.038723388671875,-0.006004811730235815,-0.014447001740336418,-0.010891087353229523
1783244305764735500,3.048735595703125,-0.0014055515639483929,-0.007946842350065708,-0.020810764282941818
1783244305774746400,3.058746337890625,0.01032833568751812,-0.007207016460597515,-0.02329123206436634
1783244305784758300,3.06875830078125,0.02305009961128235,-0.007361196912825108,-0.015189697965979576
1783244305794769400,3.078769287109375,0.03064010851085186,-0.003882576012983918,-0.003423585556447506
1783244305804781300,3.08878125,0.02994949370622635,-0.0024539888836443424,0.005456725135445595
1783244305814792400,3.09879248046875,0.023389596492052078,0.011792058125138283,0.011413950473070145
1783244305824804400,3.108804443359375,0.009023519232869148,0.009373471140861511,0.018681658431887627
1783244305834815500,3.1188154296875,-0.01046176441013813,0.001599171431735158,0.020174361765384674
1783244305844827400,3.128827392578125,-0.01764550805091858,0.007244893349707127,0.015897715464234352
1783244305854838300,3.13883837890625,-0.01999015547335148,0.017982225865125656,0.003623738419264555
1783244305864850200,3.14885009765625,-0.020434480160474777,0.03187112882733345,-0.011166859418153763
1783244305874861600,3.158861572265625,-0.016685280948877335,0.043512869626283646,-0.030477970838546753
1783244305884873500,3.16887353515625,-0.006833295337855816,0.03243090957403183,-0.03901520371437073
1783244305894884400,3.17888427734375,0.006222319323569536,0.014088653959333897,-0.03750491887331009
1783244305904896500,3.188896484375,0.017312275245785713,0.005423340946435928,-0.03334486484527588
1783244305914907400,3.198907470703125,0.0208396315574646,0.009355764836072922,-0.027904026210308075
1783244305924919300,3.208919189453125,0.01400261465460062,0.022528959438204765,-0.029827892780303955
1783244305934930400,3.218930419921875,0.006553486920893192,0.03238105773925781,-0.031443096697330475
1783244305944942600,3.228942626953125,-0.003085525706410408,0.027318919077515602,-0.02764197252690792
1783244305954954500,3.23895458984375,-0.012468907982110977,0.01148269884288311,-0.016707565635442734
1783244305964965400,3.24896533203125,-0.02162753976881504,-0.003309904132038355,-0.001692857826128602
1783244305974977500,3.2589775390625,-0.030754193663597107,0.0008046797011047602,0.012288471683859825
1783244305984988400,3.268988525390625,-0.032284222543239594,0.02008386328816414,0.018159806728363037
1783244305995000300,3.279000244140625,-0.029529180377721786,0.025833360850811005,0.01666790433228016
1783244306005011200,3.28901123046875,-0.019065063446760178,0.029267171397805214,0.008115692995488644
1783244306015023400,3.2990234375,-0.005146584939211607,0.041254058480262756,-0.01022682897746563
1783244306025034500,3.309034423828125,0.007571254391223192,0.041054729372262955,-0.026004724204540253
1783244306035046400,3.31904638671875,0.011927653104066849,0.022754019126296043,-0.03781557455658913
1783244306045057300,3.329057373046875,0.005968297831714153,0.007236045319586992,-0.041733887046575546
1783244306055069400,3.3390693359375,-0.0015311641618609428,0.00023459515068680048,-0.0393839105963707
1783244306065080300,3.349080322265625,-0.002837754786014557,-0.003604588797315955,-0.02662377804517746
1783244306075092200,3.35909228515625,-0.0058375392109155655,0.0009438240667805076,-0.0097127053886652
1783244306085103600,3.369103515625,-0.006441206205636263,0.008659164421260357,0.008198250085115433
1783244306095115500,3.379115478515625,-0.013466890901327133,0.028825152665376663,0.014797830954194069
1783244306105126400,3.38912646484375,-0.016750959679484367,0.06460926681756973,0.0028273877687752247
1783244306115138300,3.39913818359375,-0.015878774225711823,0.08761338889598846,-0.026976581662893295
1783244306125149400,3.4091494140625,-0.011441031470894814,0.07337812334299088,-0.06022215262055397
1783244306135161300,3.419161376953125,0.0034897152800112963,0.030279388651251793,-0.08424360305070877
1783244306145172500,3.42917236328125,0.01675812341272831,-0.012526282109320164,-0.09256777912378311
1783244306155184400,3.439184326171875,0.020825568586587906,-0.023397836834192276,-0.09153074026107788
1783244306165195500,3.449195556640625,0.019152766093611717,-0.01281832717359066,-0.0837714895606041
1783244306175207400,3.45920751953125,0.009739556349813938,-0.007545800879597664,-0.058668531477451324
1783244306185218300,3.46921826171875,-0.001922782976180315,-0.018413297832012177,-0.0260783638805151
1783244306195230500,3.47923046875,-0.013357597403228283,-0.042779624462127686,0.022752558812499046
1783244306205241300,3.489241455078125,-0.019531674683094025,-0.06564062833786011,0.07262144982814789
1783244306215253200,3.499253173828125,-0.026351764798164368,-0.062121257185935974,0.09910605847835541
1783244306225264400,3.509264404296875,-0.0373917818069458,-0.019933996722102165,0.09025823324918747
1783244306235276500,3.519276611328125,-0.050052985548973083,0.038373783230781555,0.04680130258202553
1783244306245288400,3.529288330078125,-0.058881472796201706,0.0762401893734932,-0.017499856650829315
1783244306255299300,3.53929931640625,-0.059585876762866974,0.07218659669160843,-0.07493145763874054
1783244306265311500,3.5493115234375,-0.04671139642596245,0.029871508479118347,-0.10988471657037735
1783244306275322400,3.559322265625,-0.02223694697022438,-0.01181095652282238,-0.1218380481004715
1783244306285334300,3.569334228515625,-0.0017889360897243023,-0.04148587957024574,-0.11367978900671005
1783244306295345400,3.579345458984375,0.002950691618025303,-0.04523986950516701,-0.09519345313310623
1783244306305357600,3.589357666015625,-0.008788899518549442,-0.01157060544937849,-0.08628804236650467
1783244306315368400,3.599368408203125,-0.031533628702163696,0.042584773153066635,-0.08786729723215103
1783244306325380400,3.60938037109375,-0.04815666377544403,0.07643742114305496,-0.09179572761058807
1783244306335391200,3.61939111328125,-0.05247471109032631,0.07130630314350128,-0.08753892779350281
1783244306345403400,3.6294033203125,-0.046619564294815063,0.02643393538892269,-0.07197394967079163
1783244306355414300,3.639414306640625,-0.0414852574467659,-0.038953058421611786,-0.04375642538070679
1783244306365426200,3.64942626953125,-0.04682528227567673,-0.10693556070327759,0.0020456151105463505
1783244306375437600,3.6594375,-0.06224338710308075,-0.14540943503379822,0.05493679270148277
1783244306385449500,3.669449462890625,-0.08206839859485626,-0.09178542345762253,0.08239798247814178
1783244306395460400,3.67946044921875,-0.09796267747879028,0.023157671093940735,0.08145229518413544
1783244306405472300,3.68947216796875,-0.11437583714723587,0.09932854771614075,0.07683616876602173
1783244306415483400,3.6994833984375,-0.12782825529575348,0.140479177236557,0.07001128792762756
1783244306425495300,3.709495361328125,-0.1411709040403366,0.14912959933280945,0.06020312383770943
1783244306435506400,3.71950634765625,-0.16639050841331482,0.15917396545410156,0.072725310921669
1783244306445518600,3.7295185546875,-0.1931910216808319,0.1882762610912323,0.11592444777488708
1783244306455529500,3.739529541015625,-0.2007213681936264,0.22608064115047455,0.16853439807891846
1783244306465541400,3.749541259765625,-0.19586390256881714,0.32783108949661255,0.1672467589378357
1783244306475552300,3.75955224609375,-0.18224582076072693,0.487764835357666,0.05868246406316757
1783244306485564400,3.769564453125,-0.16704900562763214,0.5642078518867493,-0.1200866848230362
1783244306495575600,3.779575439453125,-0.15047350525856018,0.48396143317222595,-0.2948036193847656
1783244306505587500,3.78958740234375,-0.1315368115901947,0.2966371774673462,-0.4051039516925812
1783244306515598300,3.799598388671875,-0.09818285703659058,0.11874682456254959,-0.43314704298973083
1783244306525610500,3.809610595703125,-0.04866110160946846,-0.005678611807525158,-0.3868364691734314
1783244306535621400,3.819621337890625,0.0002417240757495165,-0.049023956060409546,-0.30340683460235596
1783244306545633300,3.82963330078125,0.019840575754642487,-0.02663089707493782,-0.22046907246112823
1783244306555644400,3.83964453125,0.011965608224272728,0.02211480401456356,-0.14539775252342224
1783244306565656300,3.84965625,-0.01598372682929039,0.12815648317337036,-0.10483215749263763
1783244306575668200,3.859668212890625,-0.07806281000375748,0.2809172570705414,-0.1075427234172821
1783244306585679400,3.869679443359375,-0.1500968635082245,0.41392168402671814,-0.14325718581676483
1783244306595691500,3.87969140625,-0.21425853669643402,0.4850664436817169,-0.20783938467502594
1783244306605702400,3.889702392578125,-0.24952244758605957,0.47678831219673157,-0.286630779504776
1783244306615714300,3.89971435546875,-0.26076072454452515,0.41053152084350586,-0.3608895540237427
1783244306625725400,3.909725341796875,-0.2480405569076538,0.3045240640640259,-0.40711405873298645
1783244306635737300,3.9197373046875,-0.21077147126197815,0.16242127120494843,-0.4130598306655884
1783244306645748500,3.92974853515625,-0.1572619527578354,-0.0035679503343999386,-0.3728262484073639
1783244306655760400,3.939760498046875,-0.11105877161026001,-0.17057664692401886,-0.29125601053237915
1783244306665771500,3.949771484375,-0.0876111164689064,-0.3020457327365875,-0.1734744757413864
1783244306675783400,3.959783447265625,-0.09536810219287872,-0.3384900391101837,-0.047724269330501556
1783244306685795000,3.969795166015625,-0.12034398317337036,-0.276782751083374,0.02773786336183548
1783244306695807200,3.97980712890625,-0.1302535980939865,-0.14596962928771973,-0.0015952580142766237
1783244306705818000,3.989818115234375,-0.12058236449956894,-0.01390346884727478,-0.13257138431072235
1783244306715830000,3.999830078125,-0.09574226289987564,0.0762123093008995,-0.32173171639442444
1783244306725841400,4.00984130859375,-0.060456156730651855,0.08878551423549652,-0.48520219326019287
1783244306735853300,4.019853271484375,-0.02153805084526539,0.047720104455947876,-0.5553492903709412
1783244306745864200,4.0298642578125,0.012785656377673149,-0.017641646787524223,-0.5170613527297974
1783244306755876400,4.03987646484375,0.05058416724205017,-0.1074807271361351,-0.3871488571166992
1783244306765887200,4.04988720703125,0.0776219591498375,-0.19133970141410828,-0.2127540111541748
1783244306775899100,4.059899169921875,0.07651008665561676,-0.2202131599187851,-0.030711248517036438
1783244306785910000,4.069909912109375,0.06002749875187874,-0.20621511340141296,0.1334216147661209
1783244306795922200,4.079922119140625,0.030451765283942223,-0.15270259976387024,0.27275925874710083
1783244306805933300,4.089933349609375,-0.012473619543015957,-0.0588771253824234,0.3633323907852173
1783244306815945200,4.0999453125,-0.06921359896659851,0.1034579873085022,0.34752440452575684
1783244306825956000,4.1099560546875,-0.13082872331142426,0.3232380449771881,0.20909227430820465
1783244306835968300,4.11996826171875,-0.17889904975891113,0.4940795600414276,-0.013186866417527199
1783244306845979100,4.129979248046875,-0.21327438950538635,0.5309975743293762,-0.24968993663787842
1783244306855991000,4.139990966796875,-0.2323136031627655,0.4298083484172821,-0.43108367919921875
1783244306866002200,4.150002197265625,-0.21726089715957642,0.24570411443710327,-0.5253478288650513
1783244306876014300,4.160014404296875,-0.1661180853843689,0.03223443776369095,-0.5187559723854065
1783244306886025200,4.170025146484375,-0.10240783542394638,-0.1673453152179718,-0.414961040019989
1783244306896037000,4.180037109375,-0.07623162865638733,-0.3203575015068054,-0.2654826045036316
1783244306906048300,4.19004833984375,-0.09981265664100647,-0.3316217362880707,-0.16099916398525238
1783244306916060200,4.20006005859375,-0.12780912220478058,-0.21671326458454132,-0.16183939576148987
1783244306926071000,4.210071044921875,-0.1434195637702942,-0.11712855845689774,-0.23576821386814117
1783244306936083200,4.220083251953125,-0.19331443309783936,-0.013066868297755718,-0.3262392580509186
1783244306946095000,4.23009521484375,-0.2026345133781433,0.06219257414340973,-0.41734158992767334
1783244306956106200,4.240106201171875,-0.20481324195861816,0.12401386350393295,-0.49874696135520935
1783244306966118100,4.2501181640625,-0.2103681117296219,0.1761852204799652,-0.5392261147499084
1783244306976129300,4.26012939453125,-0.20361272990703583,0.17854291200637817,-0.5627011060714722
1783244306986141200,4.27014111328125,-0.19156762957572937,0.17449462413787842,-0.589422881603241
1783244306996152000,4.280152099609375,-0.19576530158519745,0.2060142159461975,-0.6181541085243225
1783244307006164000,4.2901640625,-0.22092923521995544,0.25279390811920166,-0.6495295166969299
1783244307016175400,4.30017529296875,-0.24264784157276154,0.26667991280555725,-0.664775013923645
1783244307026187300,4.310187255859375,-0.24328333139419556,0.23520725965499878,-0.6562848687171936
1783244307036198100,4.3201982421875,-0.2321009784936905,0.17611545324325562,-0.6155899167060852
1783244307046210300,4.330210205078125,-0.2098085731267929,0.10850699245929718,-0.5435231328010559
1783244307056221200,4.34022119140625,-0.18297989666461945,0.06591638922691345,-0.47159385681152344
1783244307066233000,4.350233154296875,-0.15421202778816223,0.07404518872499466,-0.4201720058917999
1783244307076244200,4.360244140625,-0.12664350867271423,0.08708535879850388,-0.40252217650413513
1783244307086256400,4.37025634765625,-0.12265761196613312,0.10735476762056351,-0.40974700450897217
1783244307096267300,4.380267333984375,-0.13887013494968414,0.158115416765213,-0.4308765232563019
1783244307106279200,4.390279052734375,-0.15613976120948792,0.21928927302360535,-0.4562518298625946
1783244307116290000,4.4002900390625,-0.1650586873292923,0.2505023181438446,-0.4644802212715149
1783244307126302200,4.41030224609375,-0.16894103586673737,0.2579515874385834,-0.4658118486404419
1783244307136313000,4.42031298828125,-0.1508544385433197,0.24142269790172577,-0.4663916230201721
1783244307146325000,4.430324951171875,-0.11911094188690186,0.20401687920093536,-0.4662811756134033
1783244307156336000,4.440336181640625,-0.08703609555959702,0.16666577756404877,-0.4705667495727539
1783244307166348300,4.450348388671875,-0.05094434320926666,0.11383897811174393,-0.47646617889404297
1783244307176359200,4.460359130859375,-0.02359634079039097,0.03962360695004463,-0.47206103801727295
1783244307186371000,4.47037109375,-0.0238843634724617,-0.01136456336826086,-0.4573839604854584
1783244307196382200,4.48038232421875,-0.017230721190571785,-0.051808394491672516,-0.43780121207237244
1783244307206394000,4.49039404296875,-0.007639849092811346,-0.06913766264915466,-0.40344667434692383
1783244307216405200,4.5004052734375,-0.002816864289343357,-0.04994532838463783,-0.3761860430240631
1783244307226417400,4.51041748046875,-0.006739079020917416,-0.015120561234652996,-0.35413798689842224
1783244307236428300,4.52042822265625,-0.006443734280765057,0.00799115002155304,-0.34089329838752747
1783244307246440200,4.530440185546875,-0.005461656488478184,0.01779099553823471,-0.33786535263061523
1783244307256451000,4.540451171875,-0.01235737930983305,0.028097163885831833,-0.3415951132774353
1783244307266463200,4.550463134765625,-0.030151624232530594,0.020469825714826584,-0.3442745804786682
1783244307276474000,4.56047412109375,-0.05295867100358009,-0.009724561125040054,-0.330987811088562
1783244307286486300,4.570486328125,-0.06630642712116241,-0.05027305334806442,-0.3065679669380188
1783244307296497200,4.5804970703125,-0.07394357770681381,-0.078567273914814,-0.269275963306427
1783244307306509300,4.59050927734375,-0.07142461091279984,-0.09095738083124161,-0.2253212183713913
1783244307316520200,4.600520263671875,-0.0659472867846489,-0.09173528850078583,-0.17854732275009155
1783244307326532000,4.610531982421875,-0.06466575711965561,-0.0848865881562233,-0.13543760776519775
1783244307336543000,4.62054296875,-0.0613141730427742,-0.07141685485839844,-0.10259443521499634
1783244307346555100,4.63055517578125,-0.052077312022447586,-0.059955645352602005,-0.08890752494335175
1783244307356567000,4.640567138671875,-0.0412859171628952,-0.04525259882211685,-0.09772685170173645
1783244307366578200,4.650578125,-0.03430989012122154,-0.04378916695713997,-0.11230558156967163
1783244307376590300,4.66059033203125,-0.03144512698054314,-0.05619284138083458,-0.13034237921237946
1783244307386601200,4.670601318359375,-0.02929237112402916,-0.05824962630867958,-0.15346014499664307
1783244307396613000,4.680613037109375,-0.0277290940284729,-0.06117963790893555,-0.177935391664505
1783244307406624000,4.6906240234375,-0.010821601375937462,-0.07253601402044296,-0.1960451602935791
1783244307416636200,4.70063623046875,0.0028742370195686817,-0.1044476106762886,-0.19263790547847748
1783244307426647300,4.710647216796875,0.009405810385942459,-0.1391633003950119,-0.17000643908977509
1783244307436659200,4.7206591796875,0.009701421484351158,-0.15412867069244385,-0.13489851355552673
1783244307446670300,4.73067041015625,0.006611546501517296,-0.14118371903896332,-0.09569558501243591
1783244307456682200,4.74068212890625,-0.0010929782874882221,-0.10799914598464966,-0.05542539060115814
1783244307466693000,4.750693115234375,-0.010254157707095146,-0.0737159475684166,-0.015984434634447098
1783244307476705000,4.760705078125,-0.018243107944726944,-0.04835359752178192,0.017905620858073235
1783244307486716200,4.770716064453125,-0.023705901578068733,-0.036666274070739746,0.0428791306912899
1783244307496728000,4.78072802734375,-0.029122771695256233,-0.020903820171952248,0.05086089298129082
1783244307506739200,4.7907392578125,-0.024200865998864174,-0.021170003339648247,0.04039626568555832
1783244307516751400,4.80075146484375,-0.011874424293637276,-0.04254293441772461,0.022562675178050995
1783244307526762200,4.81076220703125,0.0029985106084495783,-0.07458670437335968,0.009574772790074348
1783244307536774100,4.820774169921875,0.01735348254442215,-0.1030295267701149,0.0025336407124996185
1783244307546785000,4.830784912109375,0.023754345253109932,-0.1296887993812561,0.0032243304885923862
1783244307556797200,4.840797119140625,0.018479686230421066,-0.1477982997894287,0.0126764215528965
1783244307566808300,4.850808349609375,0.007818009704351425,-0.14315518736839294,0.028881700709462166
1783244307576820200,4.8608203125,0.005249657668173313,-0.10363174229860306,0.037844039499759674
1783244307586831000,4.8708310546875,-0.002937083598226309,-0.059493571519851685,0.04209329932928085
1783244307596843300,4.88084326171875,-0.02034856379032135,-0.03700743988156319,0.04322940111160278
1783244307606854100,4.890854248046875,-0.0408128947019577,-0.025433119386434555,0.036725372076034546
1783244307616866000,4.900865966796875,-0.04674667865037918,0.002819824032485485,0.016788944602012634
1783244307626877200,4.910877197265625,-0.0391814261674881,0.013203982263803482,-0.004183584824204445
1783244307636889300,4.920889404296875,-0.027053389698266983,-0.02284669689834118,-0.014258056879043579
1783244307646900200,4.930900146484375,-0.016807639971375465,-0.05761733651161194,-0.013876356184482574
1783244307656912100,4.940912109375,-0.008120408281683922,-0.07000689208507538,-0.007870927453041077
1783244307666923300,4.95092333984375,-0.005389404483139515,-0.09366912394762039,0.008104782551527023
1783244307676935200,4.96093505859375,-0.00953647866845131,-0.11759310215711594,0.036884233355522156
1783244307686946000,4.970946044921875,-0.01662706956267357,-0.10733337700366974,0.06341902911663055
1783244307696958000,4.9809580078125,-0.02332305535674095,-0.08763477951288223,0.08726949989795685
1783244307706969300,4.99096923828125,-0.02708834409713745,-0.06327672302722931,0.10693195462226868
1783244307716981200,5.000981201171875,-0.02443636953830719,-0.04708496853709221,0.11698751896619797
1783244307726992100,5.0109921875,-0.024023622274398804,-0.04817869886755943,0.1178278774023056
1783244307737004000,5.021004150390625,-0.026923004537820816,-0.04787483066320419,0.1021445170044899
1783244307747015200,5.03101513671875,-0.02939007058739662,-0.030389908701181412,0.06957992911338806
1783244307757027000,5.041027099609375,-0.018741155043244362,-0.02814139984548092,0.04091285914182663
1783244307767038200,5.0510380859375,-0.003521825186908245,-0.05250949040055275,0.024476759135723114
1783244307777050400,5.06105029296875,0.003844744525849819,-0.0698823556303978,0.028865117579698563
1783244307787061200,5.071061279296875,0.013839654624462128,-0.07386107742786407,0.03555583953857422
1783244307797073200,5.0810732421875,0.013862291350960732,-0.05407751724123955,0.03645918145775795
1783244307807084000,5.091083984375,0.010841615498065948,-0.02029731124639511,0.032736886292696
1783244307817096200,5.10109619140625,0.004192768130451441,0.008449647575616837,0.0230520348995924
1783244307827107000,5.111107177734375,-0.004311762750148773,0.03323579952120781,0.012809847481548786
1783244307837119000,5.121118896484375,-0.012737737968564034,0.06623183190822601,-0.002426096238195896
1783244307847131100,5.131131103515625,-0.015200214460492134,0.08881238102912903,-0.020140107721090317
1783244307857142300,5.141142333984375,-0.01716110110282898,0.06737872958183289,-0.04217803105711937
1783244307867154200,5.151154296875,-0.019082602113485336,0.020683653652668,-0.06229449063539505
1783244307877165000,5.1611650390625,-0.004086873959749937,-0.029895901679992676,-0.08301547914743423
1783244307887177200,5.17117724609375,0.01562534086406231,-0.08669525384902954,-0.09566788375377655
1783244307897188000,5.18118798828125,0.02730410173535347,-0.12769195437431335,-0.0867694616317749
1783244307907200000,5.191199951171875,0.03624006360769272,-0.12924975156784058,-0.07266170531511307
1783244307917211100,5.201211181640625,0.03659985587000847,-0.0875217467546463,-0.06179121136665344
1783244307927223300,5.211223388671875,0.030199497938156128,-0.028007596731185913,-0.060765236616134644
1783244307937234200,5.221234130859375,0.015810437500476837,0.029217077419161797,-0.07243546843528748
1783244307947246000,5.23124609375,0.002547859214246273,0.0747000128030777,-0.09207635372877121
1783244307957257000,5.241257080078125,0.0008567518088966608,0.0828559473156929,-0.10693465918302536
1783244307967269000,5.25126904296875,0.023119749501347542,0.05444546788930893,-0.11154745519161224
1783244307977280300,5.2612802734375,0.04912738502025604,-0.0013850410468876362,-0.11202708631753922
1783244307987292200,5.271292236328125,0.05578245967626572,-0.05141235515475273,-0.11708775907754898
1783244307997303300,5.28130322265625,0.049085408449172974,-0.08342514932155609,-0.11883240193128586
1783244308007315200,5.291315185546875,0.036632414907217026,-0.09572557359933853,-0.10702361166477203
1783244308017326000,5.301326171875,0.035723477602005005,-0.09590639919042587,-0.07713229209184647
1783244308027338000,5.311337890625,0.03831211477518082,-0.08864958584308624,-0.036749307066202164
1783244308037349000,5.32134912109375,0.03299484774470329,-0.07815353572368622,0.009673582389950752
1783244308047361000,5.331361083984375,0.02484159544110298,-0.06320551782846451,0.051894668489694595
1783244308057372200,5.3413720703125,0.01598259061574936,-0.04144802317023277,0.0823228731751442
1783244308067384300,5.35138427734375,0.0005290417466312647,-0.009937305003404617,0.09742734581232071
1783244308077395200,5.361395263671875,-0.012792356312274933,0.03415825217962265,0.09602572023868561
1783244308087407000,5.371406982421875,-0.018215438351035118,0.0703117847442627,0.0786573737859726
1783244308097418000,5.38141796875,-0.011900285258889198,0.07269291579723358,0.05966850370168686
1783244308107430100,5.39143017578125,-0.0007902132347226143,0.04679190739989281,0.037238959223032
1783244308117441300,5.401441162109375,0.014297126792371273,0.004776014015078545,0.017711862921714783
1783244308127453200,5.411453125,0.027351483702659607,-0.04318815469741821,0.006591698154807091
1783244308137464000,5.421464111328125,0.03584350645542145,-0.07156307250261307,0.0063916947692632675
1783244308147476200,5.431476318359375,0.0350579209625721,-0.07325878739356995,0.020967397838830948
1783244308157487000,5.441487060546875,0.024261731654405594,-0.05180196836590767,0.03610160946846008
1783244308167499000,5.4514990234375,0.015985015779733658,-0.003871071385219693,0.044695354998111725
1783244308177510100,5.46151025390625,0.009442958980798721,0.05138659104704857,0.03690987080335617
1783244308187522000,5.47152197265625,0.007497150916606188,0.07095079869031906,0.01760661043226719
1783244308197533200,5.481533203125,0.011255670338869095,0.04959757626056671,-0.003039279952645302
1783244308207545000,5.491545166015625,0.01945958100259304,0.020743532106280327,-0.024369198828935623
1783244308217556200,5.50155615234375,0.03264861926436424,0.0031179345678538084,-0.047901421785354614
1783244308227568000,5.511568115234375,0.043852221220731735,-0.004940433893352747,-0.0667208656668663
1783244308237579000,5.5215791015625,0.04917002096772194,-0.005067732650786638,-0.07111934572458267
1783244308247591200,5.531591064453125,0.048294100910425186,-0.008307850919663906,-0.06329211592674255
1783244308257602300,5.541602294921875,0.049127139151096344,-0.014803566969931126,-0.04573095962405205
1783244308267614200,5.5516142578125,0.04392291605472565,-0.017687173560261726,-0.014238741248846054
1783244308277625000,5.561625,0.024392088875174522,-0.01470922864973545,0.015827549621462822
1783244308287637200,5.57163720703125,0.006949741393327713,0.014644423499703407,0.03476450592279434
1783244308297648000,5.581648193359375,-0.007669148966670036,0.06188543885946274,0.032559677958488464
1783244308307660000,5.591659912109375,-0.00560760498046875,0.09377885609865189,0.01293894462287426
1783244308317671200,5.601671142578125,0.007984369993209839,0.08349718898534775,-0.011534173041582108
1783244308327683300,5.611683349609375,0.024955177679657936,0.04975530877709389,-0.03455139696598053
1783244308337694200,5.621694091796875,0.03735698387026787,0.008334098383784294,-0.04875003546476364
1783244308347706000,5.6317060546875,0.045493800193071365,-0.032089829444885254,-0.05447530746459961
1783244308357717000,5.641717041015625,0.0477076880633831,-0.04913831874728203,-0.049390532076358795
1783244308367729200,5.651729248046875,0.03955309838056564,-0.030820723623037338,-0.04186517745256424
1783244308377740000,5.661739990234375,0.03314127027988434,-0.005998196080327034,-0.029312897473573685
1783244308387752000,5.671751953125,0.027507826685905457,0.0044398680329322815,-0.010349325835704803
1783244308397763300,5.681763427734375,0.023529861122369766,0.019729606807231903,-0.002545464551076293
1783244308407775200,5.691775146484375,0.023206442594528198,0.03286537155508995,-0.006710845045745373
1783244308417786000,5.7017861328125,0.014023596420884132,0.008042579516768456,-0.01364624872803688
1783244308427798000,5.711798095703125,0.002195508684962988,-0.029546454548835754,-0.007595956791192293
1783244308437809200,5.72180908203125,-0.000645551597699523,-0.05104855075478554,0.0013384157791733742
1783244308447821000,5.731821044921875,0.0004946351982653141,-0.03846224024891853,0.009780112653970718
1783244308457832200,5.741832275390625,-0.005071371328085661,-0.01323278434574604,0.01749848574399948
1783244308467844400,5.75184423828125,-0.012410776689648628,-0.0014344481751322746,0.025447754189372063
1783244308477855200,5.761855224609375,-0.019805843010544777,0.01430456805974245,0.03073439747095108
1783244308487867100,5.7718671875,-0.025317160412669182,0.03696200251579285,0.017956621944904327
1783244308497878000,5.7818779296875,-0.03464141860604286,0.0470292828977108,-0.003963323310017586
1783244308507890200,5.79189013671875,-0.03864182531833649,0.04922480508685112,-0.03205130249261856
1783244308517902000,5.801902099609375,-0.029465369880199432,0.04725965857505798,-0.051698237657547
1783244308527913200,5.811913330078125,-0.009153300896286964,0.03106367029249668,-0.058401208370923996
1783244308537924000,5.821924072265625,0.009999886155128479,0.007007070817053318,-0.05495427921414375
1783244308547936300,5.831936279296875,0.017284207046031952,-0.010583133436739445,-0.049158304929733276
1783244308557947100,5.841947021484375,0.01570255681872368,-0.0220768041908741,-0.04401706904172897
1783244308567959000,5.851958984375,0.007349523715674877,-0.00915813259780407,-0.04101346805691719
1783244308577971200,5.86197119140625,0.0026951173786073923,0.008871467784047127,-0.03751087933778763
1783244308587982000,5.871982177734375,0.005636090412735939,0.008204357698559761,-0.030830036848783493
1783244308597994000,5.881993896484375,0.006407607812434435,0.0032593996729701757,-0.024089308455586433
1783244308608005000,5.892005126953125,0.0018193855648860335,0.01008138619363308,-0.02204405516386032
1783244308618017300,5.902017333984375,-0.003145013004541397,0.010235050693154335,-0.017606165260076523
1783244308628028200,5.912028076171875,-0.008398424834012985,-0.0009442935697734356,-0.014660969376564026
1783244308638040000,5.9220400390625,-0.012107942253351212,-0.0036061229184269905,-0.01523221842944622
1783244308648051200,5.93205126953125,-0.012445466592907906,0.005767501424998045,-0.016736239194869995
1783244308658063000,5.94206298828125,-0.015091318637132645,0.004620743915438652,-0.014387599192559719
1783244308668074200,5.95207421875,-0.011202364228665829,0.0010218218667432666,-0.010097773745656013
1783244308678086100,5.962086181640625,-0.016908451914787292,0.030859878286719322,-0.001334642292931676
1783244308688096800,5.9720966796875,-0.028744660317897797,0.05610660836100578,0.010362202301621437
1783244308698108700,5.982108642578125,-0.03346244990825653,0.03806076571345329,0.029008060693740845
1783244308708119600,5.99211962890625,-0.03694868087768555,0.0326334685087204,0.03734324127435684
1783244308718131700,6.002131591796875,-0.03780435025691986,0.03698667511343956,0.04025966674089432
1783244308728142800,6.012142822265625,-0.040212832391262054,0.04757482558488846,0.04009030759334564
1783244308738154800,6.02215478515625,-0.040636274963617325,0.058023206889629364,0.04405282437801361
1783244308748165600,6.03216552734375,-0.04341670125722885,0.07209299504756927,0.05626340210437775
1783244308758177800,6.042177734375,-0.04611208289861679,0.08559335768222809,0.06956189125776291
1783244308768188700,6.052188720703125,-0.0453413650393486,0.07424482703208923,0.07948802411556244
1783244308778200600,6.06220068359375,-0.045355215668678284,0.0449090451002121,0.07957085222005844
1783244308788211700,6.072211669921875,-0.05197954922914505,0.021742668002843857,0.0716380625963211
1783244308798223600,6.0822236328125,-0.0651472806930542,0.016245370730757713,0.06547097861766815
1783244308808234800,6.09223486328125,-0.06852114945650101,0.009132042527198792,0.06997375935316086
1783244308818246700,6.10224658203125,-0.0587950199842453,0.0046624597162008286,0.08153267204761505
1783244308828257800,6.1122578125,-0.04751143231987953,0.013222145847976208,0.08946201205253601
1783244308838269700,6.122269775390625,-0.033436357975006104,0.0019492512801662087,0.09013685584068298
1783244308848280600,6.132280517578125,-0.028788307681679726,-0.025252683088183403,0.08403296768665314
1783244308858292500,6.14229248046875,-0.03183230012655258,-0.03554393723607063,0.0719805657863617
1783244308868304000,6.152303955078125,-0.028091900050640106,-0.027461085468530655,0.05958109349012375
1783244308878315800,6.162315673828125,-0.02064783126115799,-0.012485332787036896,0.045533183962106705
1783244308888326700,6.17232666015625,-0.012366147711873055,0.0061954958364367485,0.03029477596282959
1783244308898338800,6.1823388671875,-0.0051942546851933,0.021131567656993866,0.009919730946421623
1783244308908349700,6.192349609375,-0.005476068705320358,0.031458690762519836,-0.01325210090726614
1783244308918361600,6.202361572265625,0.00005451752804219723,0.02689855918288231,-0.030361313372850418
1783244308928372700,6.212372802734375,0.008389180526137352,0.021415242925286293,-0.041766487061977386
1783244308938385000,6.222385009765625,0.013505378738045692,0.017868978902697563,-0.051375437527894974
1783244308948395800,6.232395751953125,0.020821409299969673,0.010231757536530495,-0.05438721179962158
1783244308958407700,6.24240771484375,0.023165257647633553,-0.001999607775360346,-0.052424196153879166
1783244308968418600,6.25241845703125,0.02732214145362377,-0.013013885356485844,-0.04158846661448479
1783244308978430700,6.2624306640625,0.023390784859657288,-0.02282843180000782,-0.02824576385319233
1783244308988441600,6.272441650390625,0.014383810572326183,-0.021190686151385307,-0.013523673638701439
1783244308998453500,6.28245361328125,0.001118338666856289,-0.014732252806425095,-0.002155971247702837
1783244309008464600,6.292464599609375,-0.005082187242805958,-0.0019764986354857683,0.007631609216332436
1783244309018476800,6.302476806640625,-0.00392424501478672,0.005137870088219643,0.019404646009206772
1783244309028487700,6.31248779296875,0.0010982956737279892,-0.013915495947003365,0.02995956689119339
1783244309038499600,6.32249951171875,-0.003112161997705698,-0.03953723609447479,0.03886331245303154
1783244309048510700,6.3325107421875,-0.00997396931052208,-0.04244770482182503,0.03561636433005333
1783244309058522600,6.342522705078125,-0.012526076287031174,-0.029751881957054138,0.022331448271870613
1783244309068533800,6.35253369140625,-0.01692008413374424,-0.017302600666880608,0.011027399450540543
1783244309078545700,6.362545654296875,-0.01819227635860443,-0.004645395092666149,0.0016978131607174873
1783244309088556800,6.372556884765625,-0.012522630393505096,0.004139548167586327,-0.004226516932249069
1783244309098568700,6.382568603515625,0.0010762696620076895,-0.00007170857861638069,-0.007038548588752747
1783244309108579600,6.39257958984375,0.012251571752130985,-0.019749395549297333,-0.006820161361247301
1783244309118591700,6.402591796875,0.018069246783852577,-0.036844756454229355,-0.000021111220121383667
1783244309128602600,6.4126025390625,0.013942094519734383,-0.03951359912753105,0.009682714007794857
1783244309138614500,6.422614501953125,0.00670575350522995,-0.029166681692004204,0.01905970275402069
1783244309148625700,6.432625732421875,0.0010459856130182743,-0.02161204256117344,0.023377632722258568
1783244309158637800,6.442637939453125,0.0018430696800351143,-0.006878371350467205,0.02362983487546444
1783244309168648700,6.452648681640625,0.0023225508630275726,0.013128903694450855,0.014772888273000717
1783244309178660600,6.46266064453125,0.009478198364377022,0.01751353219151497,0.003910654690116644
1783244309188671500,6.47267138671875,0.018846211954951286,0.0017972977366298437,-0.011189618147909641
1783244309198683600,6.48268359375,0.02578907273709774,-0.016974259167909622,-0.02547454833984375
1783244309208694800,6.49269482421875,0.030290501192212105,-0.018118366599082947,-0.03516571968793869
1783244309218706700,6.502706787109375,0.03958307206630707,-0.016655758023262024,-0.03759292513132095
1783244309228717800,6.5127177734375,0.04693266376852989,-0.01593480072915554,-0.03068995289504528
1783244309238729700,6.522729736328125,0.048227760940790176,-0.01274886168539524,-0.02051587961614132
1783244309248740600,6.53274072265625,0.04369822144508362,-0.009517285972833633,-0.010426472872495651
1783244309258752500,6.54275244140625,0.037416357547044754,-0.015413258224725723,-0.00423435727134347
1783244309268764000,6.552763916015625,0.02932446077466011,-0.022418851032853127,0.0018253889866173267
1783244309278775800,6.56277587890625,0.024463126435875893,-0.014194476418197155,-0.0021656244061887264
1783244309288786700,6.57278662109375,0.022343456745147705,-0.010666780173778534,-0.007204319350421429
1783244309298798800,6.582798828125,0.020701617002487183,-0.018148666247725487,-0.004794957581907511
1783244309308809700,6.592809814453125,0.02340170368552208,-0.02613820880651474,-0.00030920421704649925
1783244309318821600,6.602821533203125,0.028365036472678185,-0.02113892324268818,0.004303124267607927
1783244309328832500,6.61283251953125,0.03237488865852356,-0.017596954479813576,0.005465538706630468
1783244309338844700,6.6228447265625,0.027294643223285675,-0.018482187762856483,0.006372345145791769
1783244309348855800,6.632855712890625,0.011078080162405968,-0.01428928505629301,0.003405442461371422
1783244309358867700,6.64286767578125,-0.007442340720444918,-0.0055447956547141075,-0.004985645413398743
1783244309368878600,6.652878662109375,-0.015590221621096134,-0.007053549401462078,-0.01093408651649952
1783244309378890800,6.662890869140625,-0.01956658810377121,-0.012443787418305874,-0.012225186452269554
1783244309388901600,6.672901611328125,-0.01430317759513855,-0.01019201148301363,-0.010641400702297688
1783244309398913500,6.68291357421875,-0.004672120790928602,-0.020078465342521667,-0.004637304227799177
1783244309408924700,6.692924560546875,0.0005985838361084461,-0.037626054137945175,0.007515639532357454
1783244309418936800,6.702936767578125,0.005629561375826597,-0.032149266451597214,0.016415391117334366
1783244309428947700,6.71294775390625,0.005567448679357767,-0.02308512292802334,0.021959032863378525
1783244309438959600,6.722959716796875,-0.0010204128921031952,-0.03271458297967911,0.028117060661315918
1783244309448970800,6.732970703125,-0.012535147368907928,-0.031232822686433792,0.03000735491514206
1783244309458982700,6.742982666015625,-0.02403787150979042,-0.023894216865301132,0.03278928995132446
1783244309468993500,6.75299365234375,-0.033788908272981644,-0.019402066245675087,0.03771815821528435
1783244309479005700,6.763005615234375,-0.038130126893520355,-0.0032486633863300085,0.039512328803539276
1783244309489016800,6.773016845703125,-0.03312397748231888,0.01466653123497963,0.03533000499010086
1783244309499028700,6.78302880859375,-0.02127104625105858,0.02749577723443508,0.024342069402337074
1783244309509039600,6.79303955078125,-0.011673384346067905,0.03620490804314613,0.0034210416488349438
1783244309519051800,6.8030517578125,0.0034461799077689648,0.03947260603308678,-0.0238417387008667
1783244309529062700,6.813062744140625,0.023609695956110954,0.025042686611413956,-0.04709801450371742
1783244309539074600,6.823074462890625,0.04067976027727127,0.007202436216175556,-0.06074458360671997
1783244309549085700,6.833085693359375,0.05410986393690109,0.008001736365258694,-0.0626397579908371
1783244309559097900,6.843097900390625,0.06261653453111649,0.008017981424927711,-0.060330264270305634
1783244309569108700,6.853108642578125,0.06609201431274414,0.010998941957950592,-0.05403594672679901
1783244309579120600,6.86312060546875,0.05908097326755524,0.02668975479900837,-0.04982708767056465
1783244309589131500,6.873131591796875,0.05629635229706764,0.04233108460903168,-0.04692303016781807
1783244309599143700,6.883143798828125,0.05346115306019783,0.037617821246385574,-0.04076633229851723
1783244309609154800,6.89315478515625,0.05521687492728233,0.0289892740547657,-0.037120334804058075
1783244309619166700,6.903166748046875,0.05932293459773064,0.024433670565485954,-0.04244745522737503
1783244309629177600,6.913177490234375,0.06033482402563095,0.011413466185331345,-0.046762239187955856
1783244309639189800,6.923189697265625,0.06570109724998474,-0.0005340073257684708,-0.049169205129146576
1783244309649200600,6.93320068359375,0.06554558873176575,-0.0100781861692667,-0.04753464460372925
1783244309659212500,6.943212646484375,0.06503985822200775,-0.011051837354898453,-0.04374123737215996
1783244309669223700,6.9532236328125,0.06115315109491348,-0.012437730096280575,-0.03604833781719208
1783244309679235600,6.963235595703125,0.04936333745718002,-0.016218088567256927,-0.02462337538599968
1783244309689247000,6.9732470703125,0.033897317945957184,-0.013020388782024384,-0.010831632651388645
1783244309699259000,6.9832587890625,0.0209873765707016,-0.00222872756421566,0.00017361389473080635
1783244309709269800,6.993269775390625,0.006761946249753237,0.0036533144302666187,0.012056921608746052
1783244309719282000,7.003281982421875,-0.0025210343301296234,0.01718243956565857,0.012325101532042027
1783244309729292800,7.013292724609375,-0.009565062820911407,0.03782154247164726,-0.0013924920931458473
1783244309739304700,7.0233046875,-0.016231222078204155,0.04329007491469383,-0.020552072674036026
1783244309749315800,7.03331591796875,-0.009376500733196735,0.03405407443642616,-0.03407394513487816
1783244309759328000,7.043327880859375,0.0012732136528939009,0.016995728015899658,-0.04382804036140442
1783244309769339000,7.0533388671875,0.007046927697956562,0.003733772784471512,-0.04470540210604668
1783244309779350800,7.063350830078125,0.0050759222358465195,-0.003653037128970027,-0.04071439057588577
1783244309789361700,7.073361572265625,0.002773311920464039,-0.0022287580650299788,-0.03063393570482731
1783244309799373800,7.083373779296875,0.002180758398026228,0.002834177576005459,-0.01782359927892685
1783244309809384700,7.093384765625,0.0024834568612277508,0.0028284145519137383,-0.0016610098537057638
1783244309819396600,7.103396728515625,0.0024706737603992224,-0.009137701243162155,0.014020480215549469
1783244309829408000,7.113407958984375,0.006537772715091705,-0.011057708412408829,0.021438341587781906
1783244309839420000,7.123419921875,0.010848631151020527,-0.0024333279579877853,0.019736848771572113
1783244309849430800,7.1334306640625,0.014488575980067253,0.003297249786555767,0.010922415181994438
1783244309859442700,7.143442626953125,0.020768042653799057,0.008415047079324722,-0.0008924321737140417
1783244309869453800,7.153453857421875,0.025150984525680542,0.013794386759400368,-0.0133812315762043
1783244309879465700,7.1634658203125,0.0250732209533453,0.016905758529901505,-0.02518169768154621
1783244309889476900,7.173476806640625,0.030526036396622658,0.01607557013630867,-0.0352155938744545
1783244309899489000,7.183489013671875,0.03510134667158127,0.008459461852908134,-0.03782309219241142
1783244309909500000,7.1935,0.04372001811861992,0.009477199986577034,-0.036385778337717056
1783244309919511800,7.20351171875,0.051216550171375275,0.007534956559538841,-0.030404582619667053
1783244309929522700,7.213522705078125,0.05258849635720253,-0.0055105495266616344,-0.02088424563407898
1783244309939534800,7.223534912109375,0.04811758175492287,-0.01184727530926466,-0.01312299445271492
1783244309949546000,7.2335458984375,0.04174003750085831,-0.004888467490673065,-0.0058289156295359135
1783244309959558000,7.243557861328125,0.03682597354054451,0.005729556083679199,-0.0022648072335869074
1783244309969568800,7.25356884765625,0.030812084674835205,0.01914382353425026,-0.001545493956655264
1783244309979581000,7.263580810546875,0.02644929476082325,0.03483729809522629,-0.017926597967743874
1783244309989591800,7.273591796875,0.023179292678833008,0.03809387609362602,-0.03371640294790268
1783244309999603700,7.283603759765625,0.021365679800510406,0.015739303082227707,-0.045952294021844864
1783244310009614600,7.293614501953125,0.01971421204507351,-0.009476550854742527,-0.04851067066192627
1783244310019626800,7.303626708984375,0.022322244942188263,-0.014122435823082924,-0.040905747562646866
1783244310029638000,7.313637939453125,0.022441288456320763,-0.017132606357336044,-0.028071176260709763
1783244310039649800,7.32364990234375,0.019009539857506752,-0.02076808735728264,-0.012979308143258095
1783244310049661000,7.333660888671875,0.008885644376277924,-0.009272009134292603,-0.003447659546509385
1783244310059672800,7.3436728515625,-0.0013214526697993279,-0.0031917463056743145,0.0028669615276157856
1783244310069683700,7.35368359375,-0.0106155164539814,-0.014453285373747349,0.008400613442063332
1783244310079695600,7.363695556640625,-0.014837957918643951,-0.021602541208267212,0.005450097378343344
1783244310089707000,7.37370703125,-0.0288594588637352,-0.01593269221484661,0.0010621505789458752
1783244310099719000,7.383718994140625,-0.04082983359694481,-0.008901148103177547,-0.0025525582022964954
1783244310109729800,7.393729736328125,-0.0426948107779026,0.002430233871564269,-0.006436273455619812
1783244310119742000,7.403741943359375,-0.034992679953575134,0.014138555154204369,-0.009899181313812733
1783244310129752800,7.4137529296875,-0.028910214081406593,0.00502746133133769,-0.010577267035841942
1783244310139764700,7.4237646484375,-0.024773791432380676,-0.019822759553790092,-0.01059537660330534
1783244310149775600,7.433775634765625,-0.02358461171388626,-0.025929780676960945,-0.018211903050541878
1783244310159787800,7.443787841796875,-0.023309238255023956,-0.014778058975934982,-0.029381200671195984
1783244310169799000,7.453798828125,-0.016668502241373062,0.007539908401668072,-0.038321688771247864
1783244310179810800,7.463810791015625,-0.012288135476410389,0.02054705284535885,-0.04710053279995918
1783244310189821700,7.47382177734375,-0.004107937216758728,0.007591714151203632,-0.04499601945281029
1783244310199833900,7.483833740234375,-0.00011985376477241516,-0.021229548379778862,-0.0372515469789505
1783244310209844700,7.4938447265625,0.003716364037245512,-0.041428569704294205,-0.029613763093948364
1783244310219856600,7.503856689453125,0.006561685353517532,-0.038776326924562454,-0.027980979532003403
1783244310229867800,7.51386767578125,0.002198026515543461,-0.022261299192905426,-0.03404984623193741
1783244310239880000,7.5238798828125,0.0023732625413686037,0.0036320826038718224,-0.04587747901678085
1783244310249890800,7.533890869140625,0.003918737173080444,0.007012677378952503,-0.05122309923171997
1783244310259902700,7.54390283203125,0.009216830134391785,-0.012551968917250633,-0.04567573592066765
1783244310269913900,7.553913818359375,0.01575196161866188,-0.041685350239276886,-0.033017463982105255
1783244310279925800,7.56392578125,0.022773118689656258,-0.05669732391834259,-0.02294592373073101
1783244310289937000,7.57393701171875,0.02129282057285309,-0.06637845933437347,-0.014541447162628174
1783244310299949000,7.583948974609375,0.011935538612306118,-0.06761709600687027,-0.009836707264184952
1783244310309960000,7.5939599609375,-0.00811714306473732,-0.05129952356219292,-0.0076433392241597176
1783244310319971800,7.603971923828125,-0.02112189121544361,-0.028095668181777,-0.000906607136130333
1783244310329982700,7.613982666015625,-0.022673234343528748,-0.007430422119796276,0.0013872385025024414
1783244310339995000,7.623994873046875,-0.013828611001372337,-0.011466176249086857,0.0018492969684302807
1783244310350005800,7.634005859375,-0.006737133488059044,-0.040303751826286316,-0.002821119502186775
1783244310360017700,7.644017578125,-0.004736034199595451,-0.06800808757543564,-0.00394657114520669
1783244310370028800,7.65402880859375,-0.006837649270892143,-0.07258643209934235,-0.0018656817264854908
1783244310380041000,7.664041015625,-0.010199091397225857,-0.04940706863999367,-0.00010133767500519753
1783244310390051800,7.6740517578125,-0.017313437536358833,-0.018685877323150635,0.00007791724056005478
1783244310400063700,7.684063720703125,-0.02156730368733406,0.002819414483383298,-0.0025282520800828934
1783244310410074600,7.69407470703125,-0.02323654666543007,0.004921233747154474,-0.0016194044146686792
1783244310420086800,7.704086669921875,-0.01562256645411253,-0.005674951709806919,-0.0029592406935989857
1783244310430098000,7.714097900390625,-0.006675747223198414,-0.004397465847432613,-0.00993704330176115
1783244310440109800,7.72410986328125,0.0005179832223802805,0.0012106188805773854,-0.018345175310969353
1783244310450121000,7.734120849609375,-0.0006410854402929544,-0.00800970196723938,-0.020753998309373856
1783244310460132900,7.7441328125,0.0005259118042886257,-0.01841413974761963,-0.014548299834132195
1783244310470143700,7.754143798828125,0.0007178324740380049,-0.01876547560095787,-0.0069589014165103436
1783244310480155600,7.76415576171875,0.0010520592331886292,-0.007888326421380043,-0.0013079398777335882
1783244310490166800,7.774166748046875,0.002750511048361659,-0.010717413388192654,0.008574056439101696
1783244310500178700,7.7841787109375,0.00946860108524561,-0.0204057265073061,0.016294561326503754
1783244310510189800,7.79418994140625,0.019244972616434097,-0.03171597048640251,0.02636495977640152
1783244310520202000,7.804201904296875,0.02191745489835739,-0.0406721793115139,0.03406096249818802
1783244310530212900,7.814212890625,0.023062869906425476,-0.04413439333438873,0.03109547309577465
1783244310540224800,7.824224853515625,0.025885822251439095,-0.045955464243888855,0.027825379744172096
1783244310550235600,7.834235595703125,0.027765214443206787,-0.04452161863446236,0.024685511365532875
1783244310560247800,7.844247802734375,0.028900785371661186,-0.04218895360827446,0.01864519529044628
1783244310570259000,7.854259033203125,0.01929624006152153,-0.03479986637830734,0.016950108110904694
1783244310580270800,7.864270751953125,0.005184948444366455,-0.020841440185904503,0.016042768955230713
1783244310590281700,7.87428173828125,-0.0115968631580472,-0.0060861073434352875,0.016268305480480194
1783244310600294000,7.8842939453125,-0.019587945193052292,0.001528136432170868,0.01955118589103222
1783244310610304800,7.8943046875,-0.014876952394843102,0.0047030881978571415,0.020527653396129608
1783244310620316700,7.904316650390625,-0.009349028579890728,-0.0023694683331996202,0.012353614903986454
1783244310630327800,7.914327880859375,-0.005134596023708582,-0.0033680973574519157,-0.0003447183407843113
1783244310640340000,7.924340087890625,-0.0058616395108401775,-0.01389663852751255,-0.012969434261322021
1783244310650350800,7.934350830078125,-0.00959877297282219,-0.03326797112822533,-0.012982457876205444
1783244310660362800,7.94436279296875,-0.012647027149796486,-0.035124193876981735,-0.0015966445207595825
1783244310670374000,7.954373779296875,-0.014454299584031105,-0.02689467929303646,0.009219666942954063
1783244310680385800,7.9643857421875,-0.017268195748329163,-0.02665659226477146,0.017522336915135384
1783244310690397000,7.97439697265625,-0.026395993307232857,-0.02697683870792389,0.026295743882656097
1783244310700409000,7.9844091796875,-0.030368631705641747,-0.03403288498520851,0.03364953026175499
1783244310710420200,7.994420166015625,-0.033962469547986984,-0.0388651043176651,0.03687511384487152
1783244310720432000,8.00443212890625,-0.03473425284028053,-0.04733075946569443,0.038694851100444794
1783244310730443000,8.014443115234375,-0.036781974136829376,-0.03805465251207352,0.03920659422874451
1783244310740455200,8.024455078125,-0.03205139935016632,-0.027947958558797836,0.036310937255620956
1783244310750466000,8.034466064453126,-0.014433175325393677,-0.025105606764554977,0.025720898061990738
1783244310760478000,8.04447802734375,-0.011282656341791153,-0.010399632155895233,0.006216172594577074
1783244310770489000,8.054489013671875,-0.016248540952801704,-0.0011286265216767788,-0.012647868134081364
1783244310780501200,8.064501220703125,-0.014869023114442825,-0.0027398390229791403,-0.02548297308385372
1783244310790512000,8.07451220703125,-0.007376312743872404,-0.012802657671272755,-0.0270516537129879
1783244310800524000,8.08452392578125,0.0025527505204081535,-0.021188419312238693,-0.02518530935049057
1783244310810535000,8.094534912109374,0.006629446521401405,-0.017706632614135742,-0.02146013081073761
1783244310820546000,8.104546142578124,0.013736091554164886,-0.006313363555818796,-0.021190620958805084
1783244310830558000,8.114557861328125,0.014729509130120277,-0.001272501889616251,-0.016218582168221474
1783244310840569000,8.124569091796875,0.015803562477231026,-0.005654999986290932,-0.00984324049204588
1783244310850581200,8.134581298828126,0.020524948835372925,-0.01673993282020092,-0.0033948933705687523
1783244310860592000,8.144592041015626,0.020957447588443756,-0.02257518470287323,-0.003295557340607047
1783244310870604000,8.15460400390625,0.020555943250656128,-0.02135750837624073,-0.005812818184494972
1783244310880615000,8.164614990234375,0.015057580545544624,-0.022113846614956856,-0.000750415027141571
1783244310890627000,8.174626953125,0.014078155159950256,-0.02596668340265751,0.0060276142321527
1783244310900638200,8.18463818359375,0.00976836122572422,-0.028408536687493324,0.0144575834274292
1783244310910650000,8.194650146484374,0.00400849524885416,-0.03393544629216194,0.0246775820851326
1783244310920661000,8.204660888671874,-0.005040925927460194,-0.03633175790309906,0.0335666798055172
1783244310930673200,8.214673095703125,-0.007332165725529194,-0.02622358314692974,0.03453635051846504
1783244310940684000,8.22468408203125,-0.006774500012397766,-0.0033571498934179544,0.030473431572318077
1783244310950696000,8.234696044921876,-0.0022229421883821487,0.012588175013661385,0.021399039775133133
1783244310960707000,8.24470703125,0.003813112387433648,0.011330097913742065,0.009520011954009533
1783244310970719000,8.254718994140624,0.010292654857039452,0.00423902552574873,0.0005808114074170589
1783244310980730000,8.264730224609375,0.007337611168622971,-0.01071169413626194,-0.00012572528794407845
1783244310990742000,8.274741943359375,0.007529062684625387,-0.011662589386105537,-0.0003228886052966118
1783244311000753200,8.284753173828125,0.008940005674958229,-0.01781289279460907,0.005826616659760475
1783244311010765000,8.29476513671875,0.01061921939253807,-0.01999874785542488,0.017718510702252388
1783244311020776000,8.30477587890625,0.00809134729206562,-0.005892249755561352,0.025931432843208313
1783244311030787800,8.314787841796875,0.00784787256270647,0.01667492277920246,0.030553091317415237
1783244311040799200,8.32479931640625,0.009920078329741955,0.037875548005104065,0.025959938764572144
1783244311050811100,8.33481103515625,0.014914387837052345,0.05549488961696625,0.005936268251389265
1783244311060822000,8.344822021484376,0.020278260111808777,0.05177125707268715,-0.01621990092098713
1783244311070834200,8.354834228515625,0.023241639137268066,0.027988124638795853,-0.034001272171735764
1783244311080845000,8.364844970703125,0.029901407659053802,0.01257321611046791,-0.04186185821890831
1783244311090857000,8.37485693359375,0.043282389640808105,0.015070070512592793,-0.03931956738233566
1783244311100868000,8.3848681640625,0.05287163332104683,0.023883003741502762,-0.03568461909890175
1783244311110880300,8.39488037109375,0.05575156211853027,0.020598528906702995,-0.028412461280822754
1783244311120891100,8.40489111328125,0.051542699337005615,0.011175199411809444,-0.02045466937124729
1783244311130903000,8.414903076171875,0.044744864106178284,0.00707956962287426,-0.00974973663687706
1783244311140914000,8.424913818359375,0.03984890878200531,0.0017615031683817506,0.0018821521662175655
1783244311150926000,8.434926025390626,0.03681092709302902,0.009173604659736156,0.008649849332869053
1783244311160937000,8.44493701171875,0.034547507762908936,0.024528859183192253,0.00833426509052515
1783244311170948900,8.454948974609374,0.034103404730558395,0.03356656804680824,0.0028691194020211697
1783244311180960300,8.464960205078125,0.036559637635946274,0.03948597609996796,-0.007520671002566814
1783244311190972200,8.47497216796875,0.04945684224367142,0.030923735350370407,-0.01832438074052334
1783244311200983000,8.484983154296875,0.05844341963529587,0.013646744191646576,-0.024368159472942352
1783244311210995000,8.494994873046876,0.05956362187862396,-0.004642646759748459,-0.02654412016272545
1783244311221006000,8.505006103515624,0.05335099995136261,-0.005910311825573444,-0.022382397204637527
1783244311231018000,8.51501806640625,0.048759426921606064,0.009544333443045616,-0.014064929448068142
1783244311241029000,8.525029052734375,0.04691359028220177,0.023247895762324333,-0.0003123651258647442
1783244311251041300,8.535041259765626,0.047893937677145004,0.023150140419602394,0.008588863536715508
1783244311261052200,8.54505224609375,0.033644430339336395,-0.005826916545629501,0.00628629419952631
1783244311271064000,8.55506396484375,0.036713745445013046,0.0138623071834445,-0.007199306972324848
1783244311281075000,8.565074951171875,0.03895239904522896,0.019464267417788506,-0.023112228140234947
1783244311291087000,8.575087158203125,0.03058316558599472,0.02194770611822605,-0.034989360719919205
1783244311301098000,8.585097900390625,0.03426818177103996,0.03134786710143089,-0.03959742560982704
1783244311311110100,8.595110107421876,0.040918078273534775,0.026147469878196716,-0.038612622767686844
1783244311321121000,8.60512109375,0.04942288249731064,0.004674134775996208,-0.03214886784553528
1783244311331133200,8.61513330078125,0.05060262978076935,-0.011479046195745468,-0.01704864576458931
1783244311341144000,8.62514404296875,0.05051314830780029,-0.025914976373314857,-0.003947490360587835
1783244311351156000,8.635156005859375,0.043916866183280945,-0.028544675558805466,0.015703845769166946
1783244311361166800,8.645166748046876,0.030382415279746056,-0.015782540664076805,0.035557981580495834
1783244311371179000,8.655178955078124,0.02402568608522415,0.013498233631253242,0.04403925687074661
1783244311381190100,8.665190185546875,0.01902826316654682,0.04090429097414017,0.04063547030091286
1783244311391202000,8.6752021484375,0.020284436643123627,0.0458921454846859,0.028095301240682602
1783244311401213200,8.685213134765625,0.0240328349173069,0.03496652841567993,0.0063969288021326065
1783244311411225000,8.69522509765625,0.03167606517672539,0.0168403759598732,-0.013073664158582687
1783244311421236000,8.705236083984374,0.04036249592900276,-0.0023375796154141426,-0.024262137711048126
1783244311431248000,8.715247802734375,0.04668883606791496,-0.016037248075008392,-0.02530042454600334
1783244311441259300,8.72525927734375,0.0567457340657711,-0.011866205371916294,-0.015609713271260262
1783244311451271200,8.735271240234376,0.06313549727201462,0.002731891581788659,-0.004420564975589514
1783244311461282000,8.745281982421876,0.06414536386728287,0.008125858381390572,0.008121325634419918
1783244311471294200,8.755294189453124,0.05786118656396866,0.006951901130378246,0.015790188685059547
1783244311481305000,8.76530517578125,0.04994814097881317,0.0105871157720685,0.012156838551163673
1783244311491317000,8.77531689453125,0.03873824700713158,0.00999348983168602,0.004377018194645643
1783244311501328000,8.785327880859375,0.031246507540345192,0.001901474897749722,-0.004755493253469467
1783244311511339000,8.795339111328126,0.03349998593330383,-0.008451101370155811,-0.008122343569993973
1783244311521351200,8.80535107421875,0.030483154579997063,-0.010841287672519684,-0.009771106764674187
1783244311531362000,8.815362060546875,0.03103780932724476,-0.004696005955338478,-0.008363381028175354
1783244311541374000,8.8253740234375,0.0340394601225853,-0.006180452182888985,-0.0032719499431550503
1783244311551385000,8.835385009765625,0.03251351788640022,-0.002901483094319701,0.0019712168723344803
1783244311561397000,8.84539697265625,0.03007938712835312,0.0010216196533292532,0.007822182029485703
1783244311571408100,8.855408203125,0.023919936269521713,0.00308506959117949,0.009457200765609741
1783244311581420000,8.865419921875,0.01238152477890253,0.012247675098478794,0.006701094564050436
1783244311591431200,8.87543115234375,0.005397253204137087,0.024954630061984062,-0.003161350265145302
1783244311601443000,8.885443115234375,0.005187928676605225,0.0306687094271183,-0.013756470754742622
1783244311611454000,8.895453857421876,0.0041956352069973946,0.03389059752225876,-0.023209892213344574
1783244311621466000,8.905466064453124,0.00931130163371563,0.0434899628162384,-0.03313176706433296
1783244311631477000,8.91547705078125,0.019283181056380272,0.04208149388432503,-0.04422914981842041
1783244311641489200,8.9254892578125,0.027431121096014977,0.023173052817583084,-0.046194031834602356
1783244311651500000,8.9355,0.03335388004779816,-0.002369867404922843,-0.03358149528503418
1783244311661512200,8.94551220703125,0.040496744215488434,-0.014282187446951866,-0.01848216913640499
1783244311671523000,8.955523193359374,0.044190242886543274,-0.00905704777687788,-0.0017853595782071352
1783244311681535000,8.965534912109375,0.04201310873031616,-0.000026534544304013252,0.012014076113700867
1783244311691546000,8.975546142578125,0.03485226258635521,-0.004160506185144186,0.022318072617053986
1783244311701558300,8.985558349609375,0.018339067697525024,-0.008751263841986656,0.028305659070611
1783244311711569400,8.9955693359375,0.003593223635107279,-0.001818282762542367,0.03072224371135235
1783244311721581300,9.005581298828124,-0.0016630575992166996,0.01249514240771532,0.020595306530594826
1783244311731592200,9.01559228515625,0.003041930729523301,0.021711930632591248,0.01029637735337019
1783244311741604400,9.025604248046875,0.009008742868900299,0.013720584101974964,-0.0008438921067863703
1783244311751615200,9.035615234375,0.02178870141506195,0.007661945186555386,-0.010265475139021873
1783244311761627100,9.045627197265626,0.0305694118142128,-0.0009741531684994698,-0.018198765814304352
1783244311771638300,9.05563818359375,0.030913203954696655,-0.0191016998142004,-0.017044667154550552
1783244311781650400,9.065650390625,0.020277870818972588,-0.025909272953867912,-0.006060193292796612
1783244311791661300,9.075661376953125,0.0072626229375600815,-0.015007631853222847,0.005397597327828407
1783244311801673200,9.085673095703125,-0.005027865059673786,0.013154763728380203,0.011831527575850487
1783244311811684400,9.095684326171876,-0.013281594961881638,0.04873014613986015,0.005660726688802242
1783244311821696300,9.1056962890625,-0.017956508323550224,0.06734857708215714,-0.009333668276667595
1783244311831707100,9.11570703125,-0.013111183419823647,0.06533321738243103,-0.026599563658237457
1783244311841719300,9.12571923828125,-0.002071848139166832,0.044591180980205536,-0.0416719913482666
1783244311851730400,9.13573046875,0.006464892998337746,-0.003609576728194952,-0.04496243596076965
1783244311861742300,9.145742431640626,0.008091818541288376,-0.049011945724487305,-0.03850853443145752
1783244311871753200,9.155753173828124,0.004836545325815678,-0.06749915331602097,-0.020935215055942535
1783244311881765400,9.165765380859375,0.0007752245292067528,-0.05593996122479439,-0.00025470368564128876
1783244311891776300,9.1757763671875,-0.012134592980146408,-0.018989553675055504,0.017887001857161522
1783244311901788200,9.1857880859375,-0.027897575870156288,0.015954315662384033,0.029831543564796448
1783244311911799300,9.19579931640625,-0.0385640412569046,0.042555976659059525,0.030275050550699234
1783244311921811500,9.2058115234375,-0.03817015886306763,0.04530861973762512,0.020948393270373344
1783244311931822300,9.215822265625,-0.03281310573220253,0.013672302477061749,0.011069799773395061
1783244311941834200,9.225834228515625,-0.025991685688495636,-0.031452830880880356,0.0012637744657695293
1783244311951845000,9.23584521484375,-0.015171386301517487,-0.053294587880373,-0.006988011300563812
1783244311961857300,9.245857177734376,-0.006812789011746645,-0.06050403043627739,-0.013721814379096031
1783244311971868200,9.2558681640625,-0.0073781562969088554,-0.05755171552300453,-0.014858074486255646
1783244311981880000,9.265880126953125,-0.01621319353580475,-0.0259474515914917,-0.01253659650683403
1783244311991891500,9.275891357421875,-0.023016227409243584,0.006770918145775795,-0.012488603591918945
1783244312001902300,9.28590234375,-0.017363667488098145,0.02147529646754265,-0.014153878204524517
1783244312011914200,9.295914306640626,-0.013446854427456856,0.020540963858366013,-0.019861428067088127
1783244312021925000,9.305925048828126,-0.020552169531583786,0.007579891476780176,-0.025083620101213455
1783244312031937300,9.315937255859374,-0.029568567872047424,-0.01257411204278469,-0.031890127807855606
1783244312041948400,9.325948486328125,-0.03487784415483475,-0.020978249609470367,-0.034891244024038315
1783244312051960300,9.335960205078125,-0.035594258457422256,-0.009868811815977097,-0.0411607027053833
1783244312061971200,9.34597119140625,-0.03224213793873787,0.006098968908190727,-0.05421019345521927
1783244312071983400,9.3559833984375,-0.029856493696570396,0.021143123507499695,-0.07992330938577652
1783244312081994200,9.365994140625,-0.03808193281292915,-0.021165184676647186,-0.11604829132556915
1783244312092006100,9.376006103515625,-0.030025197193026543,-0.06702706217765808,-0.1627047210931778
1783244312102017300,9.386017333984375,-0.019680680707097054,-0.10657420754432678,-0.18257403373718262
1783244312112029400,9.396029541015626,-0.010988070629537106,-0.17678302526474,-0.1220947802066803
1783244312122040300,9.406040283203126,-0.0013679340481758118,-0.11986649036407471,-0.03985237330198288
1783244312132052200,9.41605224609375,-0.00027861003763973713,0.041597843170166016,0.04393767938017845
1783244312142063400,9.4260634765625,-0.027714230120182037,0.15973566472530365,0.1096370592713356
1783244312152075300,9.4360751953125,-0.050927773118019104,0.20019929111003876,0.12827612459659576
1783244312162086100,9.446086181640625,-0.060211554169654846,0.1698581725358963,0.09393306821584702
1783244312172098000,9.45609814453125,-0.05452096462249756,0.0897749587893486,0.025173239409923553
1783244312182109400,9.466109375,-0.04177667200565338,0.006580476649105549,-0.06822222471237183
1783244312192121300,9.476121337890625,-0.029204659163951874,-0.07090803980827332,-0.17177408933639526
1783244312202132200,9.48613232421875,-0.017483286559581757,-0.1480366438627243,-0.2518766522407532
1783244312212144400,9.496144287109376,0.008972464129328728,-0.19164811074733734,-0.2535918056964874
