time,seconds_elapsed,z,y,x
1783244241131807500,0.061807373046875,-0.06260767579078674,0.06274603307247162,0.07259900867938995
1783244241141818600,0.071818603515625,-0.06300421804189682,0.03215697035193443,0.0612102672457695
1783244241151830800,0.081830810546875,-0.052752118557691574,0.017297035083174706,0.04809295013546944
1783244241161841700,0.091841552734375,-0.04250853508710861,0.0022496425081044436,0.03486716002225876
1783244241171852500,0.1018525390625,-0.03077658638358116,-0.009700641967356205,0.0192717332392931
1783244241181864400,0.111864501953125,-0.023467274382710457,-0.011544348672032356,0.0024216463789343834
1783244241191875600,0.12187548828125,-0.015739215537905693,0.004701933823525906,-0.010313083417713642
1783244241201887500,0.131887451171875,-0.002730737440288067,0.018068606033921242,-0.016320908442139626
1783244241211898600,0.141898681640625,0.013122456148266792,0.020565181970596313,-0.008735563606023788
1783244241221909500,0.151909423828125,0.02827051654458046,0.010027586482465267,0.0019785999320447445
1783244241231921700,0.161921630859375,0.04038019850850105,-0.0012921050656586885,0.00919321645051241
1783244241241932500,0.1719326171875,0.040403101593256,-0.008971596136689186,0.016478825360536575
1783244241251943700,0.181943603515625,0.03934410959482193,-0.002770673716440797,0.0222846120595932
1783244241261955600,0.19195556640625,0.0393608883023262,-0.004537148401141167,0.02993347868323326
1783244241271966700,0.201966796875,0.045092590153217316,-0.005905119702219963,0.03279072791337967
1783244241281977600,0.2119775390625,0.04752858355641365,-0.0017351419664919376,0.023728519678115845
1783244241291989500,0.221989501953125,0.037142567336559296,0.011439582332968712,0.01372385025024414
1783244241302000600,0.232000732421875,0.03187297284603119,0.026581518352031708,0.014003749936819077
1783244241312012800,0.2420126953125,0.039072878658771515,0.02512168139219284,0.024237243458628654
1783244241322023700,0.252023681640625,0.04835186526179314,0.013781407848000526,0.028494838625192642
1783244241332034600,0.26203466796875,0.045936666429042816,0.015944749116897583,0.01441765297204256
1783244241342046500,0.27204638671875,0.03211326524615288,0.016746092587709427,-0.006264188792556524
1783244241352057600,0.2820576171875,0.016605960205197334,0.01724865660071373,-0.021899055689573288
1783244241362068700,0.29206884765625,0.015243221074342728,0.013689341023564339,-0.020394103601574898
1783244241372080600,0.30208056640625,0.018264606595039368,0.005957710091024637,-0.005092544946819544
1783244241382091500,0.312091552734375,0.026860492303967476,-0.007489655166864395,0.016709156334400177
1783244241392103700,0.322103759765625,0.022944388911128044,-0.004338453523814678,0.029489358887076378
1783244241402114600,0.332114501953125,0.005262595601379871,0.012389926239848137,0.03340607136487961
1783244241412125700,0.342125732421875,-0.01167966052889824,0.015077535063028336,0.03505801409482956
1783244241422137600,0.3521376953125,-0.020619893446564674,0.019773487001657486,0.031171394512057304
1783244241432148700,0.362148681640625,-0.021934092044830322,0.03361780196428299,0.027850307524204254
1783244241442159600,0.37215966796875,-0.014049537479877472,0.01971397176384926,0.02319643273949623
1783244241452171500,0.382171630859375,-0.01279167365282774,0.005017969757318497,0.009942001663148403
1783244241462182400,0.392182373046875,-0.022123657166957855,-0.0005898484960198402,-0.0006970600225031376
1783244241472193500,0.402193603515625,-0.03298889473080635,-0.015410223975777626,0.001996499951928854
1783244241482205700,0.412205810546875,-0.03419557213783264,-0.02375071309506893,0.016417251899838448
1783244241492216600,0.422216552734375,-0.03709715977311134,-0.02062697522342205,0.03409801796078682
1783244241502228500,0.432228515625,-0.043358515948057175,-0.010647045448422432,0.043528005480766296
1783244241512239600,0.442239501953125,-0.05131841450929642,-0.022785944864153862,0.05839352309703827
1783244241522250800,0.452250732421875,-0.05217568576335907,-0.04707344248890877,0.07079479843378067
1783244241532262700,0.4622626953125,-0.060748618096113205,-0.04204236716032028,0.0737399235367775
1783244241542273500,0.4722734375,-0.07614222168922424,-0.041833311319351196,0.07579801976680756
1783244241552284400,0.482284423828125,-0.07238179445266724,-0.01943092979490757,0.07138955593109131
1783244241562296600,0.492296630859375,-0.06329029053449631,0.011142158880829811,0.062214165925979614
1783244241572307700,0.5023076171875,-0.05824938789010048,0.05143935978412628,0.04698145389556885
1783244241582318600,0.512318603515625,-0.05277100205421448,0.06907401233911514,0.018866196274757385
1783244241592330800,0.522330810546875,-0.045965053141117096,0.05416423827409744,-0.010180473327636719
1783244241602341600,0.532341552734375,-0.03161967173218727,0.015980901196599007,-0.03782941401004791
1783244241612353500,0.542353515625,-0.016293995082378387,-0.01854541338980198,-0.059638939797878265
1783244241622364200,0.5523642578125,-0.009517849422991276,-0.03918784111738205,-0.06307947635650635
1783244241632375000,0.562375,-0.008551728911697865,-0.049712806940078735,-0.041542984545230865
1783244241642387200,0.57238720703125,-0.007287791930139065,-0.04776497185230255,-0.007513381540775299
1783244241652398000,0.582398193359375,-0.007710096426308155,-0.025029145181179047,0.025679951533675194
1783244241662409000,0.592408935546875,-0.01625564694404602,0.004034996964037418,0.04642597585916519
1783244241672420900,0.6024208984375,-0.021807225421071053,0.010059162974357605,0.0553448460996151
1783244241682432000,0.612431884765625,-0.023561449721455574,0.004903282504528761,0.0465947650372982
1783244241692444200,0.622444091796875,-0.02443341538310051,-0.0034751170314848423,0.028887195512652397
1783244241702455000,0.632455078125,-0.026048891246318817,-0.011401750147342682,0.008549168705940247
1783244241712466000,0.6424658203125,-0.02672271803021431,-0.025620995089411736,-0.008612450212240219
1783244241722478000,0.65247802734375,-0.023003078997135162,-0.02582552656531334,-0.013770727440714836
1783244241732489200,0.6624892578125,-0.017066437751054764,-0.02022293210029602,-0.013335350900888443
1783244241742500000,0.6725,-0.011379789561033249,-0.016455091536045074,0.005084136035293341
1783244241752512000,0.682511962890625,-0.013720656745135784,-0.019992973655462265,0.02471921592950821
1783244241762523000,0.69252294921875,-0.020011577755212784,-0.007205008529126644,0.03466079756617546
1783244241772535000,0.70253515625,-0.024853087961673737,0.014057343825697899,0.03221671283245087
1783244241782546000,0.7125458984375,-0.02276383712887764,0.014764146879315376,0.024332158267498016
1783244241792557000,0.72255712890625,-0.01190116535872221,0.0015120648313313723,0.012731276452541351
1783244241802569200,0.7325693359375,-0.008782603777945042,-0.003951676189899445,-0.0040801954455673695
1783244241812580000,0.742580078125,-0.008452320471405983,0.00015715369954705238,-0.02299846149981022
1783244241822591000,0.752591064453125,-0.0035326634533703327,-0.0035196065437048674,-0.0335317961871624
1783244241832603000,0.762602783203125,0.011313103139400482,-0.011737109161913395,-0.027343690395355225
1783244241842614000,0.772614013671875,0.022880010306835175,-0.004715418443083763,-0.016412213444709778
1783244241852625200,0.782625244140625,0.024782594293355942,-0.0009446048643440008,-0.009032133035361767
1783244241862637000,0.792636962890625,0.020063739269971848,-0.0036575670819729567,-0.008591912686824799
1783244241872648000,0.80264794921875,0.020539235323667526,-0.006613431964069605,-0.006635918747633696
1783244241882660000,0.81266015625,0.025029057636857033,-0.001173925120383501,-0.007038854993879795
1783244241892671200,0.822671142578125,0.030096255242824554,0.005212068557739258,-0.014222998172044754
1783244241902682000,0.83268212890625,0.02490309067070484,0.011477688327431679,-0.028858134523034096
1783244241912694000,0.842694091796875,0.016631776466965675,0.008265523239970207,-0.03687429800629616
1783244241922705000,0.852704833984375,0.013689782470464706,-0.0026861936785280704,-0.03827938064932823
1783244241932716000,0.862716064453125,0.011642439290881157,-0.004056212026625872,-0.03125442937016487
1783244241942728000,0.87272802734375,0.008953711949288845,-0.0016218165401369333,-0.017208652570843697
1783244241952739000,0.882739013671875,0.012839915230870247,-0.000869769835844636,-0.0026629166677594185
1783244241962751200,0.892751220703125,0.017891932278871536,-0.0033385201822966337,0.007271472830325365
1783244241972762000,0.90276220703125,0.020770737901329994,0.002478215843439102,0.0007801451720297337
1783244241982773000,0.91277294921875,0.01888841576874256,0.007434092462062836,-0.017228148877620697
1783244241992785000,0.922784912109375,0.01799420267343521,-0.00894043780863285,-0.02874031662940979
1783244242002796000,0.932796142578125,0.018316444009542465,-0.03528362885117531,-0.028365077450871468
1783244242012807200,0.94280712890625,0.014123272150754929,-0.04203375056385994,-0.021836183965206146
1783244242022819000,0.952819091796875,0.0040743667632341385,-0.03102211095392704,-0.007526754401624203
1783244242032830000,0.962829833984375,-0.006706885062158108,-0.017699874937534332,0.009402620606124401
1783244242042840800,0.9728408203125,-0.018027983605861664,0.004885329864919186,0.01790875755250454
1783244242052853000,0.98285302734375,-0.02846510335803032,0.02762649580836296,0.01900896057486534
1783244242062864100,0.992864013671875,-0.032655321061611176,0.041429124772548676,0.009780043736100197
1783244242072876000,1.0028759765625,-0.025788338854908943,0.04200173169374466,-0.004111170303076506
1783244242082887000,1.012886962890625,-0.008776597678661346,0.029018554836511612,-0.015542256645858288
1783244242092898000,1.02289794921875,0.0059273457154631615,0.0036907654721289873,-0.025105157867074013
1783244242102910000,1.032909912109375,0.012073121964931488,-0.03096281923353672,-0.02352084405720234
1783244242112921000,1.042921142578125,0.01647215522825718,-0.0587771013379097,-0.008692970499396324
1783244242122933200,1.052933349609375,0.020912710577249527,-0.06694341450929642,0.015187062323093414
1783244242132944100,1.062944091796875,0.020479874685406685,-0.06527002155780792,0.044215116649866104
1783244242142955000,1.072955078125,0.014893362298607826,-0.05034300684928894,0.06803309917449951
1783244242152967000,1.082966796875,0.010840710252523422,-0.013558854348957539,0.07760042697191238
1783244242162978000,1.09297802734375,0.009414587169885635,-0.0007565063424408436,0.07240752875804901
1783244242172989200,1.1029892578125,0.01064850203692913,-0.016152087599039078,0.05395764112472534
1783244242183001000,1.1130009765625,0.032150063663721085,-0.008993511088192463,0.02536807581782341
1783244242193012000,1.123011962890625,0.03829685598611832,-0.023166701197624207,0.0012589748948812485
1783244242203022800,1.13302294921875,0.037321873009204865,-0.03149706870317459,-0.01913045346736908
1783244242213035000,1.143034912109375,0.03559069707989693,-0.02801816165447235,-0.02840028703212738
1783244242223046100,1.153046142578125,0.037758778780698776,-0.01857059821486473,-0.024226315319538116
1783244242233058000,1.16305810546875,0.04161990061402321,-0.010512801818549633,-0.007299660239368677
1783244242243069000,1.17306884765625,0.043769869953393936,0.0012690233998000622,0.007867041975259781
1783244242253080000,1.183080078125,0.045094866305589676,0.010801957920193672,0.023152215406298637
1783244242263092000,1.193092041015625,0.047006748616695404,0.007546775974333286,0.027959220111370087
1783244242273103000,1.20310302734375,0.048640601336956024,-0.002281337045133114,0.021067583933472633
1783244242283114000,1.213114013671875,0.04721740633249283,-0.0028461934998631477,-0.0014355932362377644
1783244242293126100,1.223126220703125,0.047367826104164124,-0.0009621023200452328,-0.02254801243543625
1783244242303137000,1.233136962890625,0.04843601956963539,-0.004116883035749197,-0.0373634435236454
1783244242313149000,1.24314892578125,0.04790883511304855,-0.01278204657137394,-0.042482227087020874
1783244242323159800,1.253159912109375,0.042498357594013214,-0.0180140919983387,-0.03831331431865692
1783244242333171200,1.263171142578125,0.03454523906111717,-0.014873656444251537,-0.024286523461341858
1783244242343183000,1.27318310546875,0.023716295138001442,-0.012096245773136616,-0.007489168085157871
1783244242353194000,1.283194091796875,0.009296655654907227,0.002906255656853318,0.005891125649213791
1783244242363204900,1.293204833984375,-0.0068010869435966015,0.025545787066221237,0.010594268329441547
1783244242373217000,1.303217041015625,-0.017012396827340126,0.03497609868645668,0.009700797498226166
1783244242383228200,1.313228271484375,-0.023163501173257828,0.035857073962688446,0.008729543536901474
1783244242393239000,1.323239013671875,-0.02358686923980713,0.025603003799915314,0.004709556233137846
1783244242403251000,1.3332509765625,-0.019596390426158905,0.008815502747893333,-0.001589086139574647
1783244242413262000,1.343261962890625,-0.01690514385700226,-0.0024816440418362617,-0.007307786960154772
1783244242423274000,1.35327392578125,-0.019295331090688705,-0.010580848902463913,-0.01431962288916111
1783244242433285000,1.36328515625,-0.019004270434379578,-0.003897172398865223,-0.016218477860093117
1783244242443296000,1.3732958984375,-0.019285233691334724,0.015676528215408325,-0.016269875690340996
1783244242453308200,1.38330810546875,-0.021574512124061584,0.039547450840473175,-0.016778025776147842
1783244242463319000,1.393319091796875,-0.019176866859197617,0.058494508266448975,-0.01976342871785164
1783244242473330000,1.403329833984375,-0.01375498715788126,0.0656556785106659,-0.03318614140152931
1783244242483341800,1.413341796875,-0.005264829844236374,0.06123882159590721,-0.04461909458041191
1783244242493353200,1.423353271484375,0.0020796838216483593,0.0399077944457531,-0.0475132055580616
1783244242503365000,1.433365234375,0.0027020645793527365,0.019755389541387558,-0.04180258885025978
1783244242513376000,1.4433759765625,0.008945628069341183,0.010421371087431908,-0.028548095375299454
1783244242523387000,1.453386962890625,0.018980417400598526,0.013786274939775467,-0.018629949539899826
1783244242533399000,1.46339892578125,0.024044733494520187,0.020162511616945267,-0.013456284068524837
1783244242543410200,1.47341015625,0.025840502232313156,0.025513334199786186,-0.013877330347895622
1783244242553421000,1.483421142578125,0.031141065061092377,0.02495739795267582,-0.019102320075035095
1783244242563433000,1.493432861328125,0.031199123710393906,0.015923690050840378,-0.021813150495290756
1783244242573444000,1.503444091796875,0.028887473046779633,0.0034507063683122396,-0.024132872000336647
1783244242583456000,1.5134560546875,0.026494355872273445,0.0006621103966608644,-0.025759264826774597
1783244242593467000,1.523466796875,0.02912229299545288,0.004166708793491125,-0.021108897402882576
1783244242603478000,1.53347802734375,0.027512144297361374,0.00565701350569725,-0.014599598944187164
1783244242613490200,1.543490234375,0.027159662917256355,0.00839737057685852,-0.010626616887748241
1783244242623501300,1.553501220703125,0.027406005188822746,0.012355626560747623,-0.014499652199447155
1783244242633512200,1.56351220703125,0.02244342304766178,0.009705152362585068,-0.019217651337385178
1783244242643524400,1.5735244140625,0.010336427018046379,0.00836132187396288,-0.02175271511077881
1783244242653535500,1.583535400390625,-0.0013662050478160381,0.025975659489631653,-0.02534250169992447
1783244242663547400,1.59354736328125,-0.008963937871158123,0.04568225517868996,-0.027974504977464676
1783244242673558300,1.603558349609375,-0.005965727381408215,0.054615601897239685,-0.030618565157055855
1783244242683569200,1.613569091796875,-0.002360606100410223,0.05249306559562683,-0.030859313905239105
1783244242693581300,1.623581298828125,0.004448371008038521,0.04456205293536186,-0.03537341207265854
1783244242703592200,1.63359228515625,0.01304851658642292,0.012085868045687675,-0.036974236369132996
1783244242713603300,1.643603271484375,0.022276636213064194,-0.030864261090755463,-0.03145190700888634
1783244242723615500,1.653615478515625,0.02527429163455963,-0.05136793851852417,-0.021328432485461235
1783244242733626400,1.66362646484375,0.02001827582716942,-0.03443261608481407,-0.014292003586888313
1783244242743637200,1.67363720703125,0.010189082473516464,-0.008791966363787651,-0.0009184072259813547
1783244242753649200,1.683649169921875,0.00484798988327384,-0.00714772567152977,0.018905634060502052
1783244242763660300,1.693660400390625,0.004808574914932251,-0.011316105723381042,0.045270130038261414
1783244242773672400,1.70367236328125,0.002409770619124174,-0.019108956679701805,0.06273987889289856
1783244242783683300,1.713683349609375,-0.006844181567430496,-0.01859203726053238,0.06581928580999374
1783244242793694200,1.723694091796875,-0.015322184190154076,-0.007556621916592121,0.05412705987691879
1783244242803706400,1.733706298828125,-0.022479962557554245,0.019753295928239822,0.027723945677280426
1783244242813717200,1.74371728515625,-0.01998223178088665,0.04964931681752205,-0.0005079000256955624
1783244242823728400,1.753728271484375,-0.008899221196770668,0.07373840361833572,-0.03096168115735054
1783244242833740300,1.763740234375,-0.0009284778498113155,0.07410304993391037,-0.057217229157686234
1783244242843751200,1.773751220703125,0.0054647065699100494,0.05419139191508293,-0.07551128417253494
1783244242853763300,1.783763427734375,0.014238563366234303,0.02417507767677307,-0.08016110211610794
1783244242863774200,1.793774169921875,0.02731947973370552,-0.011368801817297935,-0.0660354346036911
1783244242873785300,1.803785400390625,0.0311109721660614,-0.02957746386528015,-0.04149194806814194
1783244242883797500,1.813797607421875,0.029133576899766922,-0.015680288895964622,-0.011869875714182854
1783244242893808400,1.823808349609375,0.018120653927326202,0.0076919738203287125,0.010645762085914612
1783244242903819300,1.8338193359375,0.01593712717294693,0.006800347939133644,0.02742793969810009
1783244242913831200,1.8438310546875,0.016118047758936882,0.010561678558588028,0.03141377121210098
1783244242923842300,1.85384228515625,0.013801630586385727,0.02784985490143299,0.013345287181437016
1783244242933854500,1.8638544921875,0.008794505149126053,0.0252903513610363,-0.006525521632283926
1783244242943865300,1.873865234375,0.0028812228702008724,-0.020007621496915817,-0.0111375842243433
1783244242953876200,1.883876220703125,0.001442435779608786,-0.04856421798467636,-0.005233902484178543
1783244242963888400,1.893888427734375,-0.008902346715331078,-0.047319721430540085,0.0034232349134981632
1783244242973899300,1.903899169921875,-0.01782720349729061,-0.02580893412232399,0.01784244365990162
1783244242983910400,1.913910400390625,-0.020304743200540543,-0.0076818629167973995,0.03904066979885101
1783244242993922300,1.92392236328125,-0.014192157424986362,0.008953474462032318,0.05058446526527405
1783244243003933200,1.93393310546875,-0.01937466859817505,0.027880560606718063,0.04872318357229233
1783244243013945300,1.9439453125,-0.02496766857802868,0.0291400458663702,0.0359470471739769
1783244243023956200,1.953956298828125,-0.02124776691198349,0.022179340943694115,0.015438309870660305
1783244243033967400,1.96396728515625,-0.014932563528418541,0.0010760148288682103,-0.0031093331053853035
1783244243043979500,1.9739794921875,-0.007519655395299196,-0.008561965078115463,-0.016944454982876778
1783244243053990400,1.983990478515625,-0.00427834689617157,0.003598771058022976,-0.029685035347938538
1783244243064001300,1.994001220703125,0.006611585151404142,0.0180344358086586,-0.03697223961353302
1783244243074013200,2.00401318359375,0.017121993005275726,0.0040956782177090645,-0.032727621495723724
1783244243084024000,2.014024169921875,0.02737303264439106,-0.017721202224493027,-0.019127655774354935
1783244243094035500,2.024035400390625,0.022031722590327263,-0.019801566377282143,-0.006317639257758856
1783244243104047400,2.03404736328125,0.009401148185133934,0.0028741853311657906,-0.0035298422444611788
1783244243114058200,2.044058349609375,0.0036067406181246042,0.01592441275715828,-0.001662722323089838
1783244243124070400,2.0540703125,0.006534353829920292,0.01923232525587082,-0.005551203619688749
1783244243134081300,2.064081298828125,0.0073275878094136715,0.025165069848299026,-0.010714445263147354
1783244243144092400,2.074092529296875,0.010350275784730911,0.018884271383285522,-0.016367802396416664
1783244243154104300,2.084104248046875,0.014411717653274536,-0.01411416009068489,-0.013638862408697605
1783244243164115200,2.094115234375,0.013154439628124237,-0.036153681576251984,-0.0013776689302176237
1783244243174126300,2.104126220703125,0.010474185459315777,-0.034707680344581604,0.013508128002285957
1783244243184138200,2.11413818359375,0.006131102330982685,-0.0208512544631958,0.027318483218550682
1783244243194149400,2.1241494140625,0.0022542905062437057,0.004329638555645943,0.0348595455288887
1783244243204161300,2.134161376953125,0.003222083207219839,0.02470468543469906,0.028581146150827408
1783244243214172400,2.14417236328125,0.005329708568751812,0.01696418598294258,0.0160767063498497
1783244243224183300,2.154183349609375,0.006246901582926512,-0.00046780030243098736,0.00012197578325867653
1783244243234195200,2.1641953125,0.005672070197761059,-0.014746831730008125,-0.012122781947255135
1783244243244206000,2.1742060546875,0.009989054873585701,-0.025653008371591568,-0.015396872535347939
1783244243254217500,2.184217529296875,0.011735603213310242,-0.019910093396902084,-0.012014543637633324
1783244243264229400,2.1942294921875,0.010448497720062733,-0.00715221930295229,-0.003288429696112871
1783244243274240300,2.204240234375,0.008062596432864666,0.0031585306860506535,0.008565584197640419
1783244243284252400,2.21425244140625,0.0036068616900593042,0.008553296327590942,0.015372357331216335
1783244243294263300,2.22426318359375,-0.0019230707548558712,0.01865331642329693,0.013734686188399792
1783244243304274400,2.2342744140625,-0.006902649533003569,0.019768914207816124,0.010518386028707027
1783244243314286300,2.244286376953125,-0.010879136621952057,0.021615322679281235,0.0006134822033345699
1783244243324297200,2.254297119140625,-0.009627983905375004,0.01989358849823475,-0.009274035692214966
1783244243334308400,2.264308349609375,-0.0064144921489059925,-0.0040629152208566666,-0.009041201323270798
1783244243344320300,2.2743203125,0.00669065723195672,-0.03020184114575386,-0.0012277525383979082
1783244243354331100,2.2843310546875,0.01593916118144989,-0.03938731178641319,0.010777436196804047
1783244243364343300,2.29434326171875,0.010502850636839867,-0.043491508811712265,0.026540685445070267
1783244243374354400,2.3043544921875,-0.0010784617625176907,-0.030813854187726974,0.04083757847547531
1783244243384365300,2.314365234375,-0.01222219318151474,-0.011974919587373734,0.04823371022939682
1783244243394377200,2.324377197265625,-0.01752583123743534,0.0061612846329808235,0.050052233040332794
1783244243404388000,2.33438818359375,-0.012546518817543983,0.010853773914277554,0.04394374042749405
1783244243414399500,2.3443994140625,-0.0009569493122398853,-0.00018788198940455914,0.03334474191069603
1783244243424411400,2.354411376953125,0.008200863376259804,-0.013484247028827667,0.017498664557933807
1783244243434422300,2.36442236328125,0.014074777252972126,-0.012655675411224365,0.0018725888803601265
1783244243444434400,2.374434326171875,0.01725459098815918,-0.010298245586454868,-0.0100826071575284
1783244243454445300,2.3844453125,0.01392089668661356,0.0012701221276074648,-0.019814467057585716
1783244243464456200,2.394456298828125,0.008313344791531563,0.023648664355278015,-0.026140272617340088
1783244243474468400,2.40446826171875,0.0019582188688218594,0.033454351127147675,-0.028551876544952393
1783244243484479200,2.414479248046875,0.00006071641109883785,0.028201796114444733,-0.020977314561605453
1783244243494490400,2.424490478515625,0.0036494224332273006,0.025132695212960243,-0.014304079115390778
1783244243504502300,2.434502197265625,0.009000245481729507,0.018282245844602585,-0.008973229676485062
1783244243514513200,2.44451318359375,0.012096412479877472,0.006355547346174717,-0.0008692294359207153
1783244243524525300,2.454525390625,0.015445071272552013,0.0036508406046777964,0.0009355945512652397
1783244243534536400,2.464536376953125,0.01606239378452301,0.0013945867540314794,0.0010566692799329758
1783244243544547300,2.47454736328125,0.01731993816792965,-0.0020661908201873302,0.0018215291202068329
1783244243554559200,2.484559326171875,0.0196662787348032,-0.003936623223125935,-0.0014093602076172829
1783244243564570000,2.494570068359375,0.025347866117954254,-0.007106051780283451,-0.0024783529806882143
1783244243574581500,2.50458154296875,0.026986945420503616,-0.017455819994211197,-0.00473313732072711
1783244243584593400,2.514593505859375,0.02640903927385807,-0.033388979732990265,0.003778325393795967
1783244243594604300,2.524604248046875,0.022294215857982635,-0.03362834081053734,0.013504473492503166
1783244243604616400,2.534616455078125,0.020666755735874176,-0.02659253403544426,0.023308634757995605
1783244243614627300,2.54462744140625,0.017790906131267548,-0.030067503452301025,0.03100186213850975
1783244243624638200,2.55463818359375,0.010989991948008537,-0.029743928462266922,0.03953356295824051
1783244243634650400,2.564650390625,0.008287197910249233,-0.02546839602291584,0.04450855776667595
1783244243644661500,2.57466162109375,0.0011653723195195198,-0.01698968932032585,0.043231572955846786
1783244243654672400,2.58467236328125,-0.006850766949355602,-0.005872895009815693,0.03145621716976166
1783244243664684500,2.5946845703125,-0.013178437016904354,0.007580062840133905,0.01679205149412155
1783244243674695400,2.6046953125,-0.015802692621946335,0.01883089169859886,-0.004960191436111927
1783244243684707300,2.614707275390625,-0.011860947124660015,0.022996075451374054,-0.01872074604034424
1783244243694718500,2.624718505859375,-0.0046499562449753284,0.009634086862206459,-0.023338433355093002
1783244243704729300,2.634729248046875,0.00516592338681221,-0.0020292268600314856,-0.01954289712011814
1783244243714741500,2.644741455078125,0.012307965196669102,-0.008090337738394737,-0.010907696560025215
1783244243724752400,2.65475244140625,0.019342705607414246,0.010033005848526955,-0.004457253962755203
1783244243734763300,2.66476318359375,0.008396968245506287,0.02686389908194542,-0.012817810289561749
1783244243744775400,2.674775390625,-0.007418746128678322,0.05260920897126198,-0.023343687877058983
1783244243754786600,2.68478662109375,-0.011990401893854141,0.044522084295749664,-0.02550623007118702
1783244243764798500,2.694798583984375,0.0025832143146544695,0.011855484917759895,-0.017490647733211517
1783244243774809300,2.704809326171875,0.02346067875623703,-0.01369855273514986,-0.01095896027982235
1783244243784820200,2.7148203125,0.03266589343547821,-0.022648107260465622,-0.0032376577146351337
1783244243794832400,2.724832275390625,0.029552346095442772,-0.024167023599147797,-0.004309619776904583
1783244243804843500,2.734843505859375,0.028356587514281273,-0.02478460967540741,-0.007047615945339203
1783244243814854400,2.7448544921875,0.02419033646583557,-0.025329243391752243,-0.0039009172469377518
1783244243824866600,2.754866455078125,0.019338589161634445,-0.017240159213542938,0.0019284756854176521
1783244243834877400,2.76487744140625,0.010201185941696167,-0.007018071599304676,0.004756866954267025
1783244243844888600,2.774888671875,0.0016298025147989392,-0.011064211837947369,0.010254962369799614
1783244243854900500,2.784900390625,-0.004286554642021656,-0.0187344029545784,0.013158510439097881
1783244243864911400,2.794911376953125,-0.007442666683346033,-0.01621665060520172,0.014873321168124676
1783244243874923500,2.804923583984375,-0.010062660090625286,-0.010045250877737999,0.016825435683131218
1783244243884934400,2.814934326171875,-0.006654612720012665,-0.012897495180368423,0.02152937650680542
1783244243894945300,2.8249453125,-0.0032692751847207546,-0.005971031729131937,0.020821547135710716
1783244243904957400,2.83495751953125,0.0005411759484559298,0.008821763098239899,0.009917235001921654
1783244243914968600,2.844968505859375,0.002258090768009424,0.012321633286774158,-0.005370659288018942
1783244243924979500,2.8549794921875,0.0011725863441824913,0.010227588936686516,-0.018570616841316223
1783244243934991400,2.864991455078125,-0.0025264713913202286,0.013777468353509903,-0.03193679451942444
1783244243945002200,2.875002197265625,-0.0051062754355371,0.01376361958682537,-0.040463972836732864
1783244243955014400,2.885014404296875,-0.00671656709164381,0.007840197533369064,-0.042337868362665176
1783244243965025500,2.895025634765625,-0.009587988257408142,0.007905976846814156,-0.036253608763217926
1783244243975036400,2.905036376953125,-0.008094369433820248,0.011647671461105347,-0.027655605226755142
1783244243985048600,2.915048583984375,-0.005017885938286781,0.01061676163226366,-0.01157117635011673
1783244243995059500,2.9250595703125,0.007650821935385466,0.0023224533069878817,0.004306089598685503
1783244244005070300,2.9350703125,0.017166828736662865,-0.0009010368958115578,0.01817157119512558
1783244244015082200,2.945082275390625,0.014736281707882881,-0.0001607104204595089,0.021036947146058083
1783244244025093400,2.95509326171875,0.00198719697073102,0.00040521123446524143,0.01698281615972519
1783244244035105500,2.96510546875,-0.008671618066728115,0.0019732152577489614,0.009426336735486984
1783244244045116400,2.975116455078125,-0.01631142944097519,0.0087986309081316,0.00007518008351325989
1783244244055127300,2.985127197265625,-0.012762258760631084,0.011622056365013123,-0.0092099504545331
1783244244065139500,2.995139404296875,-0.00043501798063516617,0.012966154143214226,-0.016546692699193954
1783244244075150600,3.005150634765625,0.012057604268193245,0.011010594666004181,-0.016859080642461777
1783244244085161500,3.015161376953125,0.021456699818372726,0.009877952747046947,-0.017455097287893295
1783244244095173400,3.02517333984375,0.02201700210571289,0.007133527658879757,-0.01485577505081892
1783244244105184300,3.035184326171875,0.01887953281402588,0.0007651102496311069,-0.012822718359529972
1783244244115196400,3.045196533203125,0.011076252907514572,-0.015291276387870312,-0.0029057904612272978
1783244244125207600,3.05520751953125,0.0035813190042972565,-0.028039295226335526,0.012789016589522362
1783244244135218400,3.065218505859375,-0.0021385704167187214,-0.02705862559378147,0.03263217210769653
1783244244145230600,3.075230712890625,-0.0015683877281844616,-0.019032923504710197,0.04872112721204758
1783244244155241500,3.085241455078125,0.002665554406121373,-0.002922300947830081,0.05672040581703186
1783244244165252400,3.09525244140625,0.006013147532939911,0.022366810590028763,0.04587575048208237
1783244244175264300,3.10526416015625,0.0055262744426727295,0.04423021897673607,0.021082403138279915
1783244244185275400,3.115275390625,0.002328883158043027,0.056358255445957184,-0.012534944340586662
1783244244195287600,3.12528759765625,0.0012016398832201958,0.05415115877985954,-0.044218435883522034
1783244244205298400,3.13529833984375,0.004617942962795496,0.02616453357040882,-0.060297004878520966
1783244244215309300,3.145309326171875,0.009106868878006935,0.0015652417205274105,-0.06347839534282684
1783244244225321500,3.155321533203125,0.013122916221618652,-0.0012156309094280005,-0.04996365308761597
1783244244235332600,3.16533251953125,0.020786888897418976,-0.0069079892709851265,-0.023836221545934677
1783244244245343500,3.175343505859375,0.024082019925117493,-0.008953031152486801,0.0008747181855142117
1783244244255355400,3.18535546875,0.020660389214754105,-0.006511462852358818,0.02320682816207409
1783244244265366300,3.1953662109375,0.008920375257730484,-0.007315737195312977,0.035346049815416336
1783244244275378400,3.20537841796875,0.00047745276242494583,-0.0028811171650886536,0.04049701988697052
1783244244285389300,3.215389404296875,-0.010012472048401833,0.002318971324712038,0.036747291684150696
1783244244295400400,3.225400390625,-0.018573444336652756,0.007021903060376644,0.027050208300352097
1783244244305412600,3.23541259765625,-0.02161530777812004,0.008061334490776062,0.011119442991912365
1783244244315423500,3.245423583984375,-0.02377079799771309,0.0021031799260526896,-0.003420749446377158
1783244244325434400,3.255434326171875,-0.02413112483918667,-0.008830960839986801,-0.008801400661468506
1783244244335446300,3.2654462890625,-0.02402406558394432,-0.011303971521556377,-0.007612032350152731
1783244244345457400,3.27545751953125,-0.019964875653386116,-0.011307167820632458,0.0016216798685491085
1783244244355469600,3.285469482421875,-0.015422152355313301,-0.01398623175919056,0.020087353885173798
1783244244365480400,3.29548046875,-0.010075589641928673,-0.00860664714127779,0.03387454152107239
1783244244375491300,3.3054912109375,-0.01426832564175129,0.006283905357122421,0.039915215224027634
1783244244385503500,3.31550341796875,-0.01998906023800373,0.021117979660630226,0.0357351191341877
1783244244395514400,3.325514404296875,-0.024752464145421982,0.028430882841348648,0.018392745405435562
1783244244405525500,3.335525390625,-0.026925601065158844,0.03565044701099396,-0.005495809949934483
1783244244415537400,3.345537353515625,-0.028201432898640633,0.04366007447242737,-0.028946831822395325
1783244244425548300,3.35554833984375,-0.01615329086780548,0.036241836845874786,-0.04267888888716698
1783244244435560400,3.365560546875,0.0005502304993569851,0.015470629557967186,-0.045078013092279434
1783244244445571300,3.3755712890625,0.013227409683167934,0.005361270159482956,-0.04199593514204025
1783244244455582500,3.38558251953125,0.017739312723279,0.00680943951010704,-0.03603154048323631
1783244244465594600,3.3955947265625,0.015793874859809875,0.012529643252491951,-0.026485703885555267
1783244244475605500,3.40560546875,0.008134694769978523,0.02909810096025467,-0.02539367601275444
1783244244485616400,3.415616455078125,-0.0030511142686009407,0.03865804895758629,-0.02291267365217209
1783244244495628300,3.425628173828125,-0.005940158851444721,0.027578406035900116,-0.018824664875864983
1783244244505639400,3.435639404296875,-0.007091443985700607,0.008057702332735062,-0.008149649947881699
1783244244515651600,3.445651611328125,-0.0037508229725062847,-0.017074890434741974,0.005003056023269892
1783244244525662500,3.455662353515625,-0.002839489374309778,-0.020169217139482498,0.015116943046450615
1783244244535673300,3.46567333984375,-0.005771217867732048,-0.01033121719956398,0.015838220715522766
1783244244545685500,3.475685546875,-0.012351090088486671,0.007381468079984188,0.011706593446433544
1783244244555696400,3.4856962890625,-0.016997145488858223,0.027210472151637077,0.00015013059601187706
1783244244565708300,3.495708251953125,-0.022116539999842644,0.04004397988319397,-0.012955284677445889
1783244244575719400,3.505719482421875,-0.024869931861758232,0.029052693396806717,-0.02573389559984207
1783244244585730300,3.515730224609375,-0.02226669155061245,0.007405455224215984,-0.03163306415081024
1783244244595742500,3.525742431640625,-0.020067624747753143,0.0013112674932926893,-0.03285183757543564
1783244244605753300,3.53575341796875,-0.019354160875082016,0.003922230564057827,-0.02853379026055336
1783244244615764500,3.545764404296875,-0.013437272980809212,0.0017488886369392276,-0.016943421214818954
1783244244625776600,3.555776611328125,-0.009412173181772232,0.0011155889369547367,-0.004668912850320339
1783244244635787500,3.56578759765625,-0.01002469751983881,0.015679040923714638,0.0028601810336112976
1783244244645799700,3.575799560546875,-0.0138114457949996,0.015977315604686737,0.007317247800529003
1783244244655810600,3.585810546875,-0.011243747547268867,0.01085209846496582,0.0022174841724336147
1783244244665821400,3.595821533203125,-0.0110796969383955,0.01328463014215231,-0.005828991066664457
1783244244675833300,3.605833251953125,-0.008565189316868782,0.0066340710036456585,-0.014550081454217434
1783244244685844700,3.6158447265625,0.0007585377898067236,-0.011964114382863045,-0.016858775168657303
1783244244695855600,3.625855712890625,0.004292722325772047,-0.017259201034903526,-0.01650126650929451
1783244244705867500,3.635867431640625,0.00330229289829731,-0.01298536080867052,-0.00744438823312521
1783244244715878400,3.64587841796875,-0.0054557304829359055,-0.010958865284919739,0.0029386873356997967
1783244244725890600,3.655890625,-0.015533664263784885,-0.005787806119769812,0.01410159282386303
1783244244735901700,3.665901611328125,-0.02425907552242279,0.009000023826956749,0.02045344188809395
1783244244745912600,3.67591259765625,-0.02317383885383606,0.02374914288520813,0.018089622259140015
1783244244755924500,3.685924560546875,-0.014773429371416569,0.020054539665579796,0.013592607341706753
1783244244765935600,3.695935546875,-0.010341130197048187,0.024761943146586418,-0.002654007636010647
1783244244775946500,3.705946533203125,-0.007971668615937233,0.02475081756711006,-0.021041516214609146
1783244244785958700,3.715958740234375,-0.009492067620158195,0.010836600326001644,-0.03255302831530571
1783244244795969500,3.725969482421875,-0.0037876726128160954,-0.006501568481326103,-0.02931930497288704
1783244244805981700,3.735981689453125,0.010738006792962551,-0.02964550256729126,-0.012153633870184422
1783244244815992600,3.74599267578125,0.01554629672318697,-0.04186762869358063,0.014384381473064423
1783244244826003500,3.75600341796875,0.012932670302689075,-0.033663492649793625,0.029996896162629128
1783244244836015400,3.766015380859375,0.003932782914489508,0.010750026442110538,0.040463827550411224
1783244244846026800,3.77602685546875,-0.015149565413594246,0.03569958359003067,0.04261459782719612
1783244244856037600,3.78603759765625,-0.028383923694491386,0.046796366572380066,0.032902464270591736
1783244244866049500,3.796049560546875,-0.029998334124684334,0.03142087161540985,0.022303348407149315
1783244244876060400,3.806060302734375,-0.02059096097946167,-0.015003328211605549,0.018629353493452072
1783244244886072600,3.816072509765625,-0.012644089758396149,-0.04916795343160629,0.020166795700788498
1783244244896083700,3.826083740234375,-0.010222353041172028,-0.059328433126211166,0.02677232399582863
1783244244906094600,3.836094482421875,-0.011246072128415108,-0.043858129531145096,0.03260011970996857
1783244244916106500,3.8461064453125,-0.0102318674325943,-0.010953579097986221,0.03566288575530052
1783244244926117600,3.85611767578125,-0.010550115257501602,0.028489701449871063,0.031244434416294098
1783244244936128500,3.86612841796875,-0.01159271877259016,0.05532721057534218,0.017496857792139053
1783244244946140400,3.876140380859375,-0.008594531565904617,0.05112474411725998,-0.003173533361405134
1783244244956151600,3.886151611328125,-0.0029937829822301865,0.02622044086456299,-0.024722330272197723
1783244244966163700,3.896163818359375,0.0008952310308814049,-0.0017893563490360975,-0.04064563661813736
1783244244976174600,3.906174560546875,0.005419068969786167,-0.025378413498401642,-0.04411071166396141
1783244244986185500,3.916185546875,0.005496034398674965,-0.025390397757291794,-0.03683681786060333
1783244244996197400,3.926197265625,0.004683480132371187,-0.0014007030986249447,-0.02418096549808979
1783244245006208800,3.936208740234375,0.005110118538141251,0.01482673641294241,-0.004548141732811928
1783244245016219600,3.9462197265625,0.004001590423285961,0.022774692624807358,0.009970974177122116
1783244245026231600,3.9562314453125,0.004855666309595108,0.025281792506575584,0.013366238214075565
1783244245036242400,3.966242431640625,0.004882878623902798,0.009078947827219963,0.009891021996736526
1783244245046254600,3.976254638671875,0.003224794752895832,-0.013597868382930756,0.002544958144426346
1783244245056265500,3.986265380859375,-0.00047472422011196613,-0.027200186625123024,-0.007021455559879541
1783244245066276600,3.996276611328125,-0.009988867677748203,-0.030094776302576065,-0.01102578453719616
1783244245076288500,4.00628857421875,-0.02088996022939682,-0.020555566996335983,-0.0043509164825081825
1783244245086299600,4.016299560546875,-0.03368484973907471,0.0008184320759028196,0.001101905945688486
1783244245096310500,4.026310546875,-0.04141506180167198,0.022288035601377487,0.009212030097842216
1783244245106322400,4.036322509765625,-0.043731216341257095,0.023226002231240273,0.01746623031795025
1783244245116333600,4.04633349609375,-0.034755852073431015,0.012077704071998596,0.02331008017063141
1783244245126345700,4.056345703125,-0.026684876531362534,-0.0008005432318896055,0.018951285630464554
1783244245136356600,4.066356689453125,-0.02707674726843834,-0.010611321777105331,0.007588301319628954
1783244245146367500,4.076367431640625,-0.03183901309967041,-0.008036311715841293,-0.0035447776317596436
1783244245156379400,4.08637939453125,-0.033252160996198654,-0.008529949933290482,-0.00983619224280119
1783244245166390800,4.096390869140625,-0.030134130269289017,0.002818578854203224,-0.011900674551725388
1783244245176401700,4.106401611328125,-0.02460392937064171,0.025258127599954605,-0.015366949141025543
1783244245186413600,4.11641357421875,-0.019672289490699768,0.033618055284023285,-0.017916660755872726
1783244245196424400,4.126424560546875,-0.013730776496231556,0.022860214114189148,-0.018873268738389015
1783244245206436600,4.1364365234375,-0.0076047079637646675,0.01081553753465414,-0.018644768744707108
1783244245216447500,4.146447509765625,-0.005339737981557846,0.006508045829832554,-0.019628483802080154
1783244245226458600,4.156458740234375,-0.004436126910150051,0.0011100847041234374,-0.01972009614109993
1783244245236470500,4.166470458984375,-0.002122130710631609,-0.0034937583841383457,-0.01682196743786335
1783244245246481700,4.176481689453125,0.0009120088070631027,0.0007111066952347755,-0.009256726130843163
1783244245256492500,4.186492431640625,0.0047744400799274445,0.010244232602417469,-0.004250934813171625
1783244245266504400,4.19650439453125,0.009486903436481953,0.017896559089422226,-0.005029110703617334
1783244245276515600,4.206515625,0.011495530605316162,0.014466581866145134,-0.011711454950273037
1783244245286527700,4.21652783203125,0.005208340939134359,0.011692633852362633,-0.021949443966150284
1783244245296538600,4.22653857421875,0.002418631687760353,0.014715204015374184,-0.029770391061902046
1783244245306549500,4.236549560546875,0.007172906771302223,0.01624918356537819,-0.030803164467215538
1783244245316561400,4.2465615234375,0.021436506882309914,0.003013202454894781,-0.023181041702628136
1783244245326572500,4.256572509765625,0.029285375028848648,-0.009349456988275051,-0.015654947608709335
1783244245336583700,4.266583740234375,0.02790215238928795,-0.016489870846271515,-0.007947210222482681
1783244245346595600,4.276595703125,0.022282883524894714,-0.020230812951922417,0.0022487016394734383
1783244245356606500,4.2866064453125,0.010769553482532501,-0.016880420967936516,0.009996769949793816
1783244245366618600,4.29661865234375,-0.000573381781578064,-0.008337799459695816,0.013596298173069954
1783244245376629500,4.30662939453125,-0.011862496845424175,0.011797845363616943,0.009682876989245415
1783244245386640600,4.316640625,-0.019243180751800537,0.02363053523004055,0.002812187187373638
1783244245396652500,4.326652587890625,-0.0184817835688591,0.027571767568588257,-0.007358329836279154
1783244245406663700,4.33666357421875,-0.01393976341933012,0.015031207352876663,-0.015144080854952335
1783244245416675600,4.346675537109375,-0.008000331930816174,-0.008834348991513252,-0.013203226029872894
1783244245426686500,4.3566865234375,-0.0040924097411334515,-0.025287624448537827,-0.00865987315773964
1783244245436697600,4.366697509765625,-0.0010969345457851887,-0.025929028168320656,-0.002048880560323596
1783244245446709800,4.376709716796875,-0.005487954244017601,-0.020759832113981247,0.004166404716670513
1783244245456720600,4.386720703125,-0.015249771066009998,-0.012559140101075172,0.0124161746352911
1783244245466731500,4.3967314453125,-0.01968207210302353,-0.0046849725767970085,0.019865568727254868
1783244245476743400,4.406743408203125,-0.018759746104478836,-0.005797242280095816,0.022085977718234062
1783244245486754600,4.416754638671875,-0.018448688089847565,-0.006654779892414808,0.0205709058791399
1783244245496766500,4.426766357421875,-0.01228383183479309,-0.0138612175360322,0.013918443582952023
1783244245506777600,4.436777587890625,-0.003987819422036409,-0.01858353428542614,0.002851943951100111
1783244245516788500,4.44678857421875,-0.0007553244940936565,-0.01453138142824173,-0.011328093707561493
1783244245526800600,4.456800537109375,-0.003592656459659338,0.006101991515606642,-0.027159254997968674
1783244245536811500,4.4668115234375,-0.013990095816552639,0.026360562071204185,-0.03624590486288071
1783244245546822700,4.47682275390625,-0.024028081446886063,0.017999567091464996,-0.03471671789884567
1783244245556834600,4.48683447265625,-0.02408698759973049,-0.0005145319737493992,-0.022563224658370018
1783244245566845700,4.496845703125,-0.016762230545282364,-0.013935797847807407,-0.005075311288237572
1783244245576857600,4.506857666015625,-0.008715100586414337,-0.02303987741470337,0.0062766545452177525
1783244245586868500,4.516868408203125,-0.004005832597613335,-0.02159777656197548,0.014358814805746078
1783244245596879400,4.52687939453125,-0.003837836440652609,-0.0014808641280978918,0.012962941080331802
1783244245606891500,4.5368916015625,-0.009191855788230896,0.012916983105242252,0.00555056519806385
1783244245616902700,4.546902587890625,-0.011649200692772865,0.003877299139276147,0.0007991795428097248
1783244245626913800,4.556913818359375,-0.014777615666389465,-0.018608834594488144,0.0006737443618476391
1783244245636925700,4.56692578125,-0.018446702510118484,-0.03628725931048393,0.008041171357035637
1783244245646936600,4.5769365234375,-0.017187293618917465,-0.04379710555076599,0.01755797676742077
1783244245656948500,4.586948486328125,-0.011754228733479977,-0.029693612828850746,0.023744922131299973
1783244245666960000,4.5969599609375,-0.004804709926247597,0.0022432825062423944,0.021334761753678322
1783244245676970800,4.606970703125,0.003703873138874769,0.04049060866236687,0.008615614846348763
1783244245686982700,4.616982666015625,0.007448011543601751,0.05851967632770538,-0.008830754086375237
1783244245696993500,4.62699365234375,0.009578805416822433,0.04568938910961151,-0.027209395542740822
1783244245707004700,4.637004638671875,0.01242093089967966,0.01806255429983139,-0.04374043643474579
1783244245717016600,4.6470166015625,0.011432778090238571,-0.011929148808121681,-0.04984404146671295
1783244245727027700,4.65702783203125,0.011683382093906403,-0.030548639595508575,-0.041705422103405
1783244245737039600,4.66703955078125,0.012371324934065342,-0.028200723230838776,-0.020052477717399597
1783244245747050800,4.67705078125,0.015590554103255272,-0.004955854266881943,0.004484822973608971
1783244245757061600,4.6870615234375,0.015422288328409195,0.013967643491923809,0.022309232503175735
1783244245767073500,4.697073486328125,0.010547371581196785,0.0265249814838171,0.03004598245024681
1783244245777084700,4.707084716796875,0.005851130932569504,0.03557323291897774,0.01921469159424305
1783244245787095800,4.717095703125,0.001432148041203618,0.02500448189675808,0.003416819963604212
1783244245797107700,4.727107666015625,-0.0025026961229741573,0.0023835718166083097,-0.013613123446702957
1783244245807118600,4.73711865234375,-0.0042499965056777,-0.009899459779262543,-0.024858055636286736
1783244245817130500,4.747130615234375,-0.006171176675707102,-0.0178950484842062,-0.022138074040412903
1783244245827142000,4.757141845703125,-0.007549096364527941,-0.022340131923556328,-0.009501108899712563
1783244245837152800,4.76715283203125,-0.011847971007227898,-0.011731412261724472,0.008280646055936813
1783244245847164700,4.77716455078125,-0.015544970519840717,0.000020851846784353256,0.024422064423561096
1783244245857175600,4.787175537109375,-0.01818159595131874,0.0029152517672628164,0.03301673382520676
1783244245867187700,4.797187744140625,-0.02726936712861061,0.005336863920092583,0.036939837038517
1783244245877198600,4.807198486328125,-0.03624753654003143,0.006264444440603256,0.03229155391454697
1783244245887209700,4.817209716796875,-0.03863479569554329,0.007814936339855194,0.02323361113667488
1783244245897221600,4.8272216796875,-0.038196343928575516,0.007817273959517479,0.012568697333335876
1783244245907232800,4.837232666015625,-0.035973936319351196,0.01799214631319046,-0.0021846836898475885
1783244245917243600,4.84724365234375,-0.03725883737206459,0.024894438683986664,-0.013638611882925034
1783244245927255600,4.857255615234375,-0.033379942178726196,0.02120729349553585,-0.017187539488077164
1783244245937266700,4.8672666015625,-0.023800771683454514,0.021062204614281654,-0.017773153260350227
1783244245947278800,4.87727880859375,-0.012514561414718628,0.014068209566175938,-0.011607136577367783
1783244245957289700,4.887289794921875,-0.004388504661619663,0.0013643214479088783,-0.004103262443095446
1783244245967300600,4.897300537109375,-0.005116080865263939,-0.0023268198128789663,-0.002646779641509056
1783244245977312500,4.9073125,-0.005092716310173273,-0.0058375513181090355,0.0005325395613908768
1783244245987323600,4.91732373046875,-0.006240538787096739,-0.008795790374279022,0.0038186139427125454
1783244245997334800,4.927334716796875,-0.010192984715104103,-0.0065812012180686,0.003048218786716461
1783244246007346700,4.9373466796875,-0.01330249197781086,-0.0009645940735936165,0.0006239432841539383
1783244246017357600,4.947357666015625,-0.016753125935792923,-0.002853002864867449,0.0033797072246670723
1783244246027369700,4.95736962890625,-0.02312367409467697,-0.012696312740445137,0.008158217184245586
1783244246037380600,4.967380615234375,-0.02787351980805397,-0.016238240525126457,0.015560319647192955
1783244246047391700,4.977391845703125,-0.031752411276102066,-0.01288771815598011,0.022496256977319717
1783244246057403600,4.987403564453125,-0.03124190866947174,0.0008685588836669922,0.02307913266122341
1783244246067414800,4.997414794921875,-0.030003007501363754,0.017993750050663948,0.015280596911907196
1783244246077425700,5.00742578125,-0.031745731830596924,0.03661251440644264,-0.0018921538721770048
1783244246087437600,5.0174375,-0.028918784111738205,0.041920460760593414,-0.01817924901843071
1783244246097448700,5.02744873046875,-0.021405499428510666,0.020824724808335304,-0.02828080579638481
1783244246107460900,5.0374609375,-0.019974317401647568,-0.014718888327479362,-0.025463715195655823
1783244246117471700,5.0474716796875,-0.02143004909157753,-0.04099026694893837,-0.01266450621187687
1783244246127482600,5.057482666015625,-0.025896169245243073,-0.04501057416200638,0.0008821948431432247
1783244246137494500,5.06749462890625,-0.0304463729262352,-0.03348881006240845,0.013373084366321564
1783244246147505700,5.077505615234375,-0.040109388530254364,-0.011050346307456493,0.01979822665452957
1783244246157516800,5.087516845703125,-0.05283745750784874,0.01574181579053402,0.02160526067018509
1783244246167528700,5.09752880859375,-0.06442167609930038,0.024550754576921463,0.016780942678451538
1783244246177539600,5.10753955078125,-0.0686018243432045,0.022870983928442,0.008634028024971485
1783244246187551700,5.1175517578125,-0.06841007620096207,0.020888259634375572,0.0017409678548574448
1783244246197562600,5.127562744140625,-0.05764744058251381,0.008726401254534721,-0.0037371544167399406
1783244246207573800,5.13757373046875,-0.046723686158657074,-0.01672276481986046,-0.0053358497098088264
1783244246217585700,5.147585693359375,-0.03856698051095009,-0.036516234278678894,0.002276777755469084
1783244246227596800,5.1575966796875,-0.03167152404785156,-0.04479120671749115,0.0115997064858675
1783244246237608700,5.167608642578125,-0.034465231001377106,-0.021423643454909325,0.02092891000211239
1783244246247619600,5.17761962890625,-0.03533661738038063,0.0040423013269901276,0.026310892775654793
1783244246257630500,5.18763037109375,-0.04038417711853981,0.012430062517523766,0.02819228731095791
1783244246267642600,5.197642578125,-0.04982348531484604,0.012327264994382858,0.020757272839546204
1783244246277653800,5.20765380859375,-0.05541837587952614,0.008073660545051098,0.008863059803843498
1783244246287664600,5.21766455078125,-0.05272059515118599,-0.0041297422721982,-0.002166688209399581
1783244246297676500,5.227676513671875,-0.04177471250295639,-0.00498107448220253,-0.009289460256695747
1783244246307687700,5.237687744140625,-0.02547217160463333,0.003973538521677256,-0.0053748805075883865
1783244246317699600,5.247699462890625,-0.011086863465607166,-0.002259382978081703,0.0023360145278275013
1783244246327710700,5.257710693359375,-0.00015804939903318882,-0.012983666732907295,0.009943334385752678
1783244246337721600,5.2677216796875,-0.0012236046604812145,-0.0194602832198143,0.01664586365222931
1783244246347733800,5.277733642578125,-0.008592039346694946,-0.018356669694185257,0.01826932653784752
1783244246357744600,5.28774462890625,-0.015399030409753323,-0.017392491921782494,0.024969877675175667
1783244246367755800,5.297755859375,-0.023624468594789505,-0.020842084661126137,0.03206906467676163
1783244246377767700,5.307767578125,-0.03605649247765541,-0.005202365107834339,0.04440555348992348
1783244246387778800,5.31777880859375,-0.03592200204730034,0.01871362142264843,0.05067170411348343
1783244246397790700,5.327790771484375,-0.025487009435892105,0.03622612729668617,0.047091294080019
1783244246407801600,5.337801513671875,-0.011373855173587799,0.04665905982255936,0.027507737278938293
1783244246417812500,5.3478125,-0.00033188099041581154,0.04333193600177765,-0.0005355398170650005
1783244246427824600,5.35782470703125,0.012765279039740562,0.02553296461701393,-0.02527657337486744
1783244246437835800,5.367835693359375,0.022522179409861565,0.006202716380357742,-0.04273925721645355
1783244246447846700,5.3778466796875,0.027169661596417427,-0.011965367943048477,-0.05189840495586395
1783244246457858600,5.387858642578125,0.024383388459682465,-0.020854122936725616,-0.05274970084428787
1783244246467869700,5.39786962890625,0.02044084668159485,-0.018237832933664322,-0.04583160579204559
1783244246477881600,5.407881591796875,0.010017331689596176,-0.010354120284318924,-0.03281107544898987
1783244246487892700,5.417892822265625,0.002388973720371723,0.006802762858569622,-0.01650293916463852
1783244246497903600,5.427903564453125,-0.003139676060527563,0.01343099121004343,-0.00382233620621264
1783244246507915800,5.437915771484375,-0.004632644355297089,0.007094798609614372,0.005696600303053856
1783244246517926700,5.4479267578125,-0.008538581430912018,-0.006899886764585972,0.00988076813519001
1783244246527937500,5.4579375,-0.008543107658624649,-0.020965106785297394,0.015976743772625923
1783244246537949400,5.467949462890625,-0.007636882830411196,-0.028108064085245132,0.013279017992317677
1783244246547960800,5.4779609375,-0.004620853345841169,-0.026072876527905464,0.012209226377308369
1783244246557972700,5.48797265625,-0.006330239586532116,-0.02262282744050026,0.006105414126068354
1783244246567983600,5.497983642578125,-0.009812588803470135,-0.018578816205263138,0.0032622232101857662
1783244246577994500,5.507994384765625,-0.01176933478564024,-0.019049910828471184,0.0003144652582705021
1783244246588006700,5.518006591796875,-0.013126748614013195,-0.015095649287104607,-0.002868544775992632
1783244246598017800,5.528017822265625,-0.016688194125890732,-0.0041540078818798065,-0.00804393645375967
1783244246608028700,5.538028564453125,-0.01630816049873829,0.008367909118533134,-0.016651272773742676
1783244246618040600,5.54804052734375,-0.014780959114432335,0.022155068814754486,-0.027019059285521507
1783244246628051200,5.55805126953125,-0.011512992903590202,0.027683526277542114,-0.03841259330511093
1783244246638063000,5.56806298828125,-0.006494290195405483,0.014030525460839272,-0.04393591359257698
1783244246648074200,5.57807421875,0.0033309096470475197,-0.004820128437131643,-0.04322538152337074
1783244246658085000,5.588085205078125,0.00859273411333561,-0.01595541089773178,-0.03819318860769272
1783244246668097300,5.59809716796875,0.008806319907307625,-0.02991463430225849,-0.02531600371003151
1783244246678108200,5.608108154296875,0.0028504510410130024,-0.02698352374136448,-0.011838356032967567
1783244246688120000,5.6181201171875,-0.009261871688067913,-0.010813610628247261,0.0003013969399034977
1783244246698131200,5.628131103515625,-0.021389689296483994,0.0013729201164096594,0.014876136556267738
1783244246708142300,5.638142333984375,-0.029757607728242874,0.011829821392893791,0.02753254398703575
1783244246718154200,5.648154296875,-0.031097445636987686,0.014659678563475609,0.029956990852952003
1783244246728165000,5.6581650390625,-0.024604924023151398,0.005921580363065004,0.031893372535705566
1783244246738176000,5.668176025390625,-0.014540500938892365,-0.0042853448539972305,0.02880869247019291
1783244246748188200,5.678188232421875,-0.0014883470721542835,-0.00994056649506092,0.019564326852560043
1783244246758199300,5.68819921875,0.008157623000442982,-0.016770264133810997,0.0066510955803096294
1783244246768211200,5.698211181640625,0.007468663156032562,-0.02900003269314766,-0.002889146562665701
1783244246778222000,5.70822216796875,0.004133876413106918,-0.03419822081923485,-0.0027017355896532536
1783244246788233200,5.718233154296875,0.002370065078139305,-0.015937987715005875,-0.0009341954719275236
1783244246798245000,5.7282451171875,0.006817302200943232,0.005914902314543724,0.003296254202723503
1783244246808256300,5.73825634765625,0.011799011379480362,0.012427129782736301,0.007811909541487694
1783244246818267100,5.74826708984375,0.01600905880331993,0.019312182441353798,0.0032471567392349243
1783244246828279300,5.758279296875,0.014470815658569336,0.02787557616829872,-0.010118449106812477
1783244246838290200,5.768290283203125,0.009550791233778,0.025827467441558838,-0.02445952221751213
1783244246848302000,5.778302001953125,0.006669251248240471,0.005787446163594723,-0.0310167595744133
1783244246858313000,5.78831298828125,0.008500831201672554,-0.008075708523392677,-0.027766931802034378
1783244246868324400,5.798324462890625,0.01737554930150509,-0.013587919995188713,-0.014376824721693993
1783244246878336300,5.808336181640625,0.020618140697479248,-0.015041626058518887,0.0032032718881964684
1783244246888347100,5.81834716796875,0.023302074521780014,-0.01190708577632904,0.02063685655593872
1783244246898359000,5.828359130859375,0.02184951677918434,-0.011388188228011131,0.032308731228113174
1783244246908370200,5.8383701171875,0.012118324637413025,-0.013884101994335651,0.03907342627644539
1783244246918381300,5.84838134765625,0.0005300138145685196,-0.005729177035391331,0.035192158073186874
1783244246928393200,5.858393310546875,-0.0034921583719551563,0.0036973480600863695,0.025263892486691475
1783244246938404000,5.868404052734375,-0.003429209813475609,0.002369169844314456,0.013967008329927921
1783244246948415200,5.878415283203125,-0.0022888444364070892,0.0027750355657190084,0.0017377720214426517
1783244246958427100,5.88842724609375,0.0019722364377230406,0.004329869523644447,-0.009435135871171951
1783244246968438300,5.898438232421875,0.004324073903262615,0.0035237304400652647,-0.017412900924682617
1783244246978450200,5.9084501953125,0.009065590798854828,-0.0014616718981415033,-0.018149344250559807
1783244246988461300,5.91846142578125,0.010834462940692902,-0.010703640058636665,-0.011019263416528702
1783244246998472200,5.92847216796875,0.010335749015212059,-0.014764770865440369,-0.0014660859014838934
1783244247008484000,5.938484130859375,0.009229738265275955,-0.014535471796989441,0.006912218406796455
1783244247018495000,5.948494873046875,0.0012808324536308646,-0.007220378145575523,0.010339858941733837
1783244247028506400,5.95850634765625,-0.012999569065868855,0.005974253639578819,0.010012290440499783
1783244247038518300,5.968518310546875,-0.022674689069390297,0.009593795984983444,0.010301701724529266
1783244247048529200,5.978529052734375,-0.024608144536614418,0.0018226923421025276,0.013820003718137741
1783244247058541000,5.988541015625,-0.022170044481754303,-0.006360994651913643,0.012883882969617844
1783244247068552200,5.99855224609375,-0.01811564713716507,-0.01597047783434391,0.01743655651807785
1783244247078563300,6.008563232421875,-0.013603867962956429,-0.025781288743019104,0.023248646408319473
1783244247088575200,6.0185751953125,-0.007723608519881964,-0.020793721079826355,0.029989372938871384
1783244247098586000,6.028586181640625,-0.006459088064730167,-0.0070749325677752495,0.024802077561616898
1783244247108597200,6.03859716796875,-0.007391461171209812,0.016584858298301697,0.012615188024938107
1783244247118609200,6.048609130859375,-0.013730243779718876,0.039631206542253494,-0.005783032160252333
1783244247128620000,6.0586201171875,-0.017532173544168472,0.04618524760007858,-0.025486962869763374
1783244247138632000,6.0686318359375,-0.010424197651445866,0.03752493858337402,-0.036070533096790314
1783244247148643300,6.078643310546875,0.004809882957488298,0.01992383785545826,-0.042524971067905426
1783244247158654200,6.088654296875,0.018620602786540985,0.006272641010582447,-0.04288763925433159
1783244247168666000,6.098666015625,0.023967962712049484,-0.0016436052974313498,-0.03752110153436661
1783244247178677000,6.108677001953125,0.024921517819166183,-0.004794592037796974,-0.030219487845897675
1783244247188689200,6.118689208984375,0.02218698337674141,-0.00828493107110262,-0.015014968812465668
1783244247198700300,6.1287001953125,0.01761172153055668,-0.011284356005489826,-0.000406523235142231
1783244247208711200,6.138711181640625,0.011144768446683884,-0.01722480170428753,0.015567915514111519
1783244247218723000,6.14872314453125,0.003566696308553219,-0.019648132845759392,0.028601117432117462
1783244247228734200,6.158734130859375,-0.004251545760780573,-0.016364188864827156,0.03429202735424042
1783244247238745000,6.1687451171875,-0.015091266483068466,-0.006960790604352951,0.034876782447099686
1783244247248757200,6.17875732421875,-0.026047244668006897,0.006894570775330067,0.028616223484277725
1783244247258768100,6.18876806640625,-0.02882339246571064,0.021570809185504913,0.01580449566245079
1783244247268780300,6.1987802734375,-0.025900840759277344,0.022588403895497322,0.0023382198996841908
1783244247278791200,6.208791259765625,-0.018507011234760284,0.0029866620898246765,-0.013689862564206123
1783244247288802000,6.218802001953125,-0.016170885413885117,-0.024171454831957817,-0.02245752140879631
1783244247298814000,6.22881396484375,-0.006930976174771786,-0.03847247734665871,-0.02086179330945015
1783244247308825300,6.238825439453125,0.0020508007146418095,-0.040096741169691086,-0.010969216004014015
1783244247318836200,6.248836181640625,0.005706885829567909,-0.024561798200011253,0.004331329837441444
1783244247328848100,6.25884814453125,-0.0018959064036607742,-0.0032101713586598635,0.006832304410636425
1783244247338859000,6.26885888671875,-0.01026384998112917,0.013614578172564507,0.0026751868426799774
1783244247348871200,6.27887109375,-0.014649542979896069,0.018725184723734856,-0.008868550881743431
1783244247358882300,6.28888232421875,-0.012539595365524292,0.012736670672893524,-0.025577086955308914
1783244247368893200,6.29889306640625,-0.007759486325085163,0.010791763663291931,-0.04348072037100792
1783244247378905000,6.308905029296875,0.0019124611280858517,0.0004707002080976963,-0.05353619158267975
1783244247388916200,6.318916259765625,0.011191979050636292,-0.012062668800354004,-0.05882735922932625
1783244247398927000,6.328927001953125,0.014719313010573387,-0.03036503493785858,-0.05792563408613205
1783244247408939000,6.33893896484375,0.013001041486859322,-0.03186652436852455,-0.052670419216156006
1783244247418950100,6.3489501953125,0.012457199394702911,-0.04018736258149147,-0.0454479455947876
1783244247428962300,6.35896240234375,0.010444382205605507,-0.05879540368914604,-0.030669264495372772
1783244247438973200,6.36897314453125,0.00799410231411457,-0.06768666207790375,-0.008642974309623241
1783244247448984000,6.378984130859375,-0.002067320514470339,-0.05332529917359352,0.014911887235939503
1783244247458996000,6.388995849609375,-0.012449190951883793,-0.025940725579857826,0.0291416235268116
1783244247469007400,6.39900732421875,-0.020859453827142715,-0.004582440480589867,0.03587809205055237
1783244247479018200,6.409018310546875,-0.023643765598535538,0.006680126301944256,0.02473544515669346
1783244247489030100,6.419030029296875,-0.021481545642018318,0.006536049768328667,-0.0035617067478597164
1783244247499041000,6.429041015625,-0.020390979945659637,-0.01840818114578724,-0.03821396082639694
1783244247509053200,6.43905322265625,-0.021631214767694473,-0.04434550926089287,-0.06493212282657623
1783244247519064000,6.44906396484375,-0.015694059431552887,-0.04852821305394173,-0.07998509705066681
1783244247529075200,6.4590751953125,-0.007171144708991051,-0.038884907960891724,-0.08115901798009872
1783244247539087000,6.469087158203125,0.004842180758714676,-0.0404224619269371,-0.07300019264221191
1783244247549098200,6.47909814453125,0.008928535506129265,-0.04478951543569565,-0.0715668797492981
1783244247559110100,6.489110107421875,-0.003949109930545092,-0.054062727838754654,-0.07094816118478775
1783244247569121000,6.49912109375,-0.028143128380179405,-0.05652002617716789,-0.06183775141835213
1783244247579132200,6.509132080078125,-0.048962049186229706,-0.04765772074460983,-0.04579297453165054
1783244247589144300,6.519144287109375,-0.05620798096060753,-0.0321328230202198,-0.03044171631336212
1783244247599155200,6.5291552734375,-0.055105406790971756,-0.012104994617402554,-0.021079886704683304
1783244247609166000,6.539166015625,-0.05855553224682808,0.005853499285876751,-0.016400180757045746
1783244247619178000,6.549177978515625,-0.07289636135101318,0.002108065877109766,-0.008277615532279015
1783244247629189400,6.559189453125,-0.07629269361495972,-0.008561355993151665,-0.004240263253450394
1783244247639201300,6.569201171875,-0.06426464021205902,-0.018696261569857597,-0.005661763250827789
1783244247649212400,6.57921240234375,-0.05053551867604256,-0.019656065851449966,-0.0048934416845440865
1783244247659223300,6.589223388671875,-0.03736313804984093,-0.01883077248930931,-0.00867282785475254
1783244247669235500,6.5992353515625,-0.02239483967423439,-0.02887435257434845,-0.013338953256607056
1783244247679246300,6.609246337890625,-0.012419387698173523,-0.03868986666202545,-0.015425330959260464
1783244247689257500,6.619257568359375,-0.018984612077474594,-0.03722752630710602,-0.02463800460100174
1783244247699269600,6.62926953125,-0.03165239840745926,-0.04160239174962044,-0.03075442463159561
1783244247709280500,6.639280517578125,-0.03919899836182594,-0.05840906873345375,-0.030574660748243332
1783244247719292400,6.64929248046875,-0.04356760159134865,-0.07033862918615341,-0.01849471777677536
1783244247729303300,6.65930322265625,-0.04416920617222786,-0.06833247095346451,0.00022890139371156693
1783244247739314400,6.669314453125,-0.04163487255573273,-0.062089066952466965,0.01805313676595688
1783244247749326600,6.67932666015625,-0.029410164803266525,-0.04080934450030327,0.03460734337568283
1783244247759337500,6.68933740234375,-0.013258282095193863,-0.017392301931977272,0.03697182983160019
1783244247769349400,6.699349365234375,-0.0005731144919991493,-0.0011683257762342691,0.026619326323270798
1783244247779360500,6.709360595703125,0.00409571873024106,0.008922002278268337,0.011819747276604176
1783244247789371400,6.719371337890625,0.005125296767801046,0.016748499125242233,0.0035900473594665527
1783244247799383300,6.72938330078125,0.013190512545406818,0.025393549352884293,0.0003495626151561737
1783244247809394400,6.73939453125,0.019341882318258286,0.03025807999074459,-0.00893448293209076
1783244247819405300,6.7494052734375,0.019639622420072556,0.020423006266355515,-0.019209321588277817
1783244247829417500,6.75941748046875,0.0168337170034647,0.012236980721354485,-0.024380382150411606
1783244247839428400,6.769428466796875,0.017568113282322884,0.002193025080487132,-0.01837719790637493
1783244247849440300,6.779440185546875,0.018588904291391373,-0.00906575471162796,-0.002606756519526243
1783244247859451600,6.78945166015625,0.013183781877160072,-0.018041715025901794,0.01071213185787201
1783244247869462500,6.799462646484375,0.011717978864908218,-0.02474489063024521,0.02208010107278824
1783244247879474400,6.809474365234375,0.006171848624944687,-0.025562671944499016,0.028074458241462708
1783244247889485300,6.8194853515625,0.000856445636600256,-0.021300015971064568,0.031235098838806152
1783244247899496200,6.82949609375,-0.005686215590685606,-0.011774040758609772,0.03231584653258324
1783244247909508400,6.83950830078125,-0.00836935080587864,0.004765788093209267,0.036890093237161636
1783244247919519500,6.84951953125,-0.00894301850348711,0.016138246282935143,0.04288254305720329
1783244247929531400,6.859531494140625,-0.006497704423964024,0.011986643075942993,0.043809592723846436
1783244247939542500,6.86954248046875,-0.010085539892315865,0.004580378532409668,0.03868664428591728
1783244247949553400,6.879553466796875,-0.009853312745690346,-0.003520957427099347,0.026191890239715576
1783244247959565300,6.8895654296875,-0.0081863421946764,-0.015432312153279781,0.013207435607910156
1783244247969576400,6.899576416015625,-0.009013519622385502,-0.019496560096740723,0.0074012125842273235
1783244247979588600,6.909588623046875,-0.006775715388357639,-0.012881342321634293,0.004769366700202227
1783244247989599500,6.919599609375,-0.0015750941820442677,-0.011825397610664368,0.01127227395772934
1783244247999610400,6.9296103515625,-0.0007995562627911568,-0.005349354352802038,0.0160837285220623
1783244248009622300,6.939622314453125,-0.008661740459501743,0.007480158004909754,0.01768402010202408
1783244248019633400,6.94963330078125,-0.016033686697483063,0.021913064643740654,0.015180706977844238
1783244248029644500,6.95964453125,-0.012781699188053608,0.022217463701963425,0.009524686262011528
1783244248039656400,6.969656494140625,-0.0009837020188570023,0.0015178911853581667,-0.00035560503602027893
1783244248049667300,6.979667236328125,0.007505656685680151,-0.02229502983391285,-0.008172515779733658
1783244248059679500,6.989679443359375,0.007611626759171486,-0.03700185939669609,-0.014813659712672234
1783244248069690400,6.9996904296875,0.0099264457821846,-0.0316435806453228,-0.018872583284974098
1783244248079701500,7.009701416015625,0.014056766405701637,-0.024733154103159904,-0.011233020573854446
1783244248089713400,7.01971337890625,0.019095465540885925,-0.01904996857047081,0.007848795503377914
1783244248099724500,7.029724609375,0.018867041915655136,-0.010895214974880219,0.019143756479024887
1783244248109735400,7.0397353515625,0.011237883009016514,-0.02918846905231476,0.019571727141737938
1783244248119747300,7.049747314453125,0.007526669185608625,-0.05162949115037918,0.011505494825541973
1783244248129758500,7.059758544921875,-0.004944381769746542,-0.07431189715862274,0.009320903569459915
1783244248139770600,7.0697705078125,-0.02816646546125412,-0.0952877402305603,0.014933609403669834
1783244248149781500,7.079781494140625,-0.021161023527383804,-0.08592912554740906,0.027834761887788773
1783244248159792400,7.08979248046875,-0.005049210973083973,-0.050828538835048676,0.07081244885921478
1783244248169804300,7.09980419921875,0.01925719529390335,0.07013196498155594,0.09989390522241592
1783244248179815400,7.1098154296875,0.02105732262134552,0.14422689378261566,0.10349943488836288
1783244248189827300,7.119827392578125,0.01828816533088684,0.13694128394126892,0.079188771545887
1783244248199838500,7.12983837890625,0.016407271847128868,0.07467041909694672,0.03249644860625267
1783244248209849300,7.139849365234375,0.011162708513438702,0.006759814918041229,-0.014855884946882725
1783244248219861500,7.149861572265625,0.00290894228965044,-0.03598597273230553,-0.052449218928813934
1783244248229872400,7.159872314453125,-0.002919652033597231,-0.0623621866106987,-0.07723312079906464
1783244248239883500,7.169883544921875,0.0020215054973959923,-0.08616837859153748,-0.10275675356388092
1783244248249895400,7.1798955078125,0.01570136472582817,-0.11034215986728668,-0.11645738780498505
1783244248259906600,7.189906494140625,0.03306522220373154,-0.11281880736351013,-0.09918791055679321
1783244248269918500,7.19991845703125,0.04239427670836449,-0.09006901830434799,-0.050274692475795746
