time,seconds_elapsed,z,y,x
1783244095245966000,0.083966064453125,-0.045273344963788986,-0.19183985888957977,-0.25259488821029663
1783244095255978000,0.09397802734375,-0.02163405902683735,-0.12833066284656525,-0.1692398190498352
1783244095265989000,0.103989013671875,0.0043318141251802444,-0.032723717391490936,-0.08702622354030609
1783244095276001000,0.1140009765625,0.016475562006235123,0.05825039744377136,-0.01432884857058525
1783244095286012200,0.12401220703125,0.02020058035850525,0.12157151103019714,0.04184648394584656
1783244095296024000,0.134024169921875,0.0206218920648098,0.13964106142520905,0.0800577849149704
1783244095306035000,0.144034912109375,0.023126274347305298,0.12672139704227448,0.10985301434993744
1783244095316046000,0.154046142578125,0.0318627767264843,0.10232631117105484,0.12955081462860107
1783244095326058200,0.164058349609375,0.038395244628190994,0.08203981071710587,0.13753044605255127
1783244095336069000,0.174069091796875,0.03222310170531273,0.06468266248703003,0.13075296580791473
1783244095346081000,0.1840810546875,0.020963681861758232,0.04235657677054405,0.11988233029842377
1783244095356092000,0.194091796875,0.011557663790881634,0.016506604850292206,0.10487888008356094
1783244095366103300,0.204103271484375,0.0034378981217741966,-0.0069464524276554585,0.0869169682264328
1783244095376115200,0.214115234375,-0.005684760399162769,-0.010095905512571335,0.06656882166862488
1783244095386126000,0.2241259765625,-0.02201712876558304,-0.003631741274148226,0.04992752894759178
1783244095396138200,0.23413818359375,-0.036314308643341064,0.012731519527733326,0.03523353859782219
1783244095406149000,0.244149169921875,-0.04417329654097557,0.02427925169467926,0.021561669185757637
1783244095416160000,0.254159912109375,-0.04527174308896065,0.02425740845501423,0.01287938840687275
1783244095426172000,0.264171875,-0.035347528755664825,0.004168248735368252,0.010168876498937607
1783244095436183300,0.274183349609375,-0.021061265841126442,-0.011176352389156818,0.011635213159024715
1783244095446195200,0.2841953125,-0.01598394848406315,-0.012289021164178848,0.019136272370815277
1783244095456206000,0.2942060546875,-0.010108750313520432,0.0015158095629885793,0.027950800955295563
1783244095466218000,0.304218017578125,-0.005214552395045757,0.024043889716267586,0.03235530108213425
1783244095476232700,0.314232666015625,-0.012454355135560036,0.04060608893632889,0.04259169101715088
1783244095486243800,0.324243896484375,-0.02644101344048977,0.045567430555820465,0.053893618285655975
1783244095496255700,0.334255859375,-0.03689471632242203,0.04462014511227608,0.06475372612476349
1783244095506267000,0.344266845703125,-0.03753989562392235,0.032374728471040726,0.07183948904275894
1783244095516278800,0.35427880859375,-0.03110756352543831,0.01598430424928665,0.07016515731811523
1783244095526289700,0.36428955078125,-0.0256812646985054,-0.001422191970050335,0.06084025278687477
1783244095536301600,0.374301513671875,-0.023670576512813568,-0.0093618743121624,0.04458751529455185
1783244095546312700,0.384312744140625,-0.02201973646879196,0.001345830736681819,0.025730259716510773
1783244095556323800,0.39432373046875,-0.023311104625463486,0.019924575462937355,0.0017612772062420845
1783244095566335700,0.404335693359375,-0.018358638510107994,0.03433560952544212,-0.01612776145339012
1783244095576346600,0.4143466796875,-0.012779582291841507,0.03647013381123543,-0.034260958433151245
1783244095586358800,0.42435888671875,-0.006243490613996983,0.02755892276763916,-0.044473275542259216
1783244095596369700,0.43436962890625,-0.0030982973985373974,0.013157879002392292,-0.047961216419935226
1783244095606380800,0.444380859375,0.004023952875286341,0.011765455827116966,-0.05017685890197754
1783244095616392700,0.454392822265625,0.018730461597442627,0.016273388639092445,-0.04616747051477432
1783244095626403800,0.46440380859375,0.036595266312360764,0.009400229901075363,-0.031399764120578766
1783244095636415700,0.474415771484375,0.059765566140413284,-0.002292378805577755,-0.014700946398079395
1783244095646426600,0.484426513671875,0.06993325054645538,-0.005263864528387785,-0.0033167311921715736
1783244095656438800,0.494438720703125,0.06514275819063187,-0.0016872389242053032,0.009817979298532009
1783244095666449700,0.50444970703125,0.04738197475671768,0.0002717087045311928,0.019367968663573265
1783244095676460800,0.514460693359375,0.02757391519844532,0.004819855093955994,0.020671052858233452
1783244095686472700,0.52447265625,0.0049996813759207726,0.01685209758579731,0.017717557027935982
1783244095696483600,0.534483642578125,-0.0075011965818703175,0.021939532831311226,0.016218462958931923
1783244095706495700,0.544495849609375,-0.012258561328053474,0.008502423763275146,0.015506495721638203
1783244095716506600,0.554506591796875,-0.012645784765481949,-0.007910638116300106,0.005006183870136738
1783244095726517800,0.564517822265625,-0.011686780489981174,-0.016587216407060623,-0.004873876925557852
1783244095736530000,0.574530029296875,-0.014587761834263802,-0.010858757421374321,-0.00041867513209581375
1783244095746540800,0.584540771484375,-0.01222234033048153,-0.00235403492115438,0.0108768530189991
1783244095756552700,0.594552734375,-0.009240132756531239,0.01571045257151127,0.014977321960031986
1783244095766563600,0.6045634765625,-0.012344207614660263,0.03446230664849281,0.011862115003168583
1783244095776575700,0.61457568359375,-0.015858780592679977,0.041578274220228195,0.013360408134758472
1783244095786587000,0.6245869140625,-0.006554814055562019,0.0289361122995615,0.01784336008131504
1783244095796597800,0.63459765625,0.011875858530402184,0.0020264673512429,0.016710985451936722
1783244095806609700,0.644609619140625,0.019836312159895897,-0.024177439510822296,0.005111320875585079
1783244095816620800,0.654620849609375,0.010289679281413555,-0.03148036077618599,-0.0013236755039542913
1783244095826632700,0.6646328125,-0.0024719226639717817,-0.01314149796962738,0.0023118057288229465
1783244095836643600,0.6746435546875,-0.004730815999209881,0.01550665870308876,0.011004363186657429
1783244095846654700,0.68465478515625,0.002895306097343564,0.02925928682088852,0.015586438588798046
1783244095856667000,0.6946669921875,0.0009733026381582022,0.028514932841062546,0.01780698448419571
1783244095866677800,0.704677734375,-0.007984132505953312,0.01932436227798462,0.023910311982035637
1783244095876689700,0.714689697265625,-0.015299304388463497,0.007850131951272488,0.029234502464532852
1783244095886700500,0.724700439453125,-0.009402320720255375,-0.001163253327831626,0.026301618665456772
1783244095896712700,0.734712646484375,-0.001266363775357604,-0.00847496185451746,0.015801575034856796
1783244095906723800,0.744723876953125,0.007686758413910866,-0.013516136445105076,0.015288005582988262
1783244095916734700,0.754734619140625,0.018142862245440483,-0.01916736364364624,0.021655622869729996
1783244095926746600,0.76474658203125,0.02955562248826027,-0.03380727767944336,0.027550483122467995
1783244095936757800,0.7747578125,0.036632973700761795,-0.034317273646593094,0.028105488047003746
1783244095946769700,0.784769775390625,0.028840404003858566,-0.01062079332768917,0.024845410138368607
1783244095956780800,0.79478076171875,0.016543257981538773,0.024251170456409454,0.019552912563085556
1783244095966791700,0.804791748046875,0.010662414133548737,0.04730373993515968,0.009843599051237106
1783244095976803800,0.814803955078125,0.01251544151455164,0.040454622358083725,0.004733792971819639
1783244095986814700,0.824814697265625,0.018279962241649628,0.007275025360286236,0.005747550167143345
1783244095996826600,0.83482666015625,0.01990661956369877,-0.027232350781559944,0.010301821865141392
1783244096006837500,0.84483740234375,0.01907997392117977,-0.040671586990356445,0.015432668849825859
1783244096016849700,0.854849609375,0.014103591442108154,-0.03516656532883644,0.013702945783734322
1783244096026860800,0.86486083984375,0.009848871268332005,-0.01602395810186863,0.005521772429347038
1783244096036871700,0.87487158203125,0.003205349901691079,0.005242447834461927,-0.003794231452047825
1783244096046883800,0.8848837890625,-0.006933411117643118,0.014894939959049225,-0.011272548697888851
1783244096056894700,0.894894775390625,-0.0147218257188797,0.013641390018165112,-0.01271172147244215
1783244096066906600,0.90490673828125,-0.020437074825167656,0.013869080692529678,-0.0031125210225582123
1783244096076917800,0.914917724609375,-0.0230560265481472,0.011487150564789772,0.015212956815958023
1783244096086928600,0.9249287109375,-0.017941106110811234,0.012588168494403362,0.028380371630191803
1783244096096940800,0.93494091796875,-0.01720021478831768,0.01844339445233345,0.03231785446405411
1783244096106951700,0.94495166015625,-0.024294238537549973,0.020187772810459137,0.03504296392202377
1783244096116963600,0.954963623046875,-0.030403530225157738,0.012138369493186474,0.03485148400068283
1783244096126974700,0.964974609375,-0.036818817257881165,-0.004919177386909723,0.03532179817557335
1783244096136986600,0.974986572265625,-0.0379493273794651,-0.014372332952916622,0.035473067313432693
1783244096146997800,0.984997802734375,-0.034355875104665756,-0.005659662652760744,0.03714441508054733
1783244096157008600,0.995008544921875,-0.026715263724327087,0.0023918719962239265,0.03244606778025627
1783244096167020800,1.005020751953125,-0.01566154696047306,0.0026833340525627136,0.027685128152370453
1783244096177031700,1.01503173828125,-0.0018719651270657778,0.003967244178056717,0.01676110550761223
1783244096187043600,1.025043701171875,0.005733383819460869,0.015545537695288658,0.008043620735406876
1783244096197054700,1.0350546875,0.006667886860668659,0.032544225454330444,0.004136231262236834
1783244096207067000,1.04506689453125,0.00995209626853466,0.035840630531311035,0.0046587442047894
1783244096217077800,1.055077880859375,0.010100699961185455,0.028010936453938484,0.0019468478858470917
1783244096227088600,1.065088623046875,0.010565582662820816,0.01281406544148922,0.0020947596058249474
1783244096237100500,1.0751005859375,0.015725988894701004,0.0004356928402557969,0.0012364224530756474
1783244096247111700,1.085111572265625,0.0238335020840168,-0.006880996748805046,0.003307245671749115
1783244096257123600,1.09512353515625,0.029956908896565437,-0.007654112763702869,0.0026744785718619823
1783244096267134700,1.105134765625,0.031282469630241394,-0.006952179595828056,0.0034770448692142963
1783244096277145600,1.1151455078125,0.02734632045030594,-0.009448360651731491,0.009869163855910301
1783244096287157800,1.12515771484375,0.023698320612311363,-0.019282525405287743,0.01813988946378231
1783244096297168600,1.135168701171875,0.019479073584079742,-0.025151066482067108,0.019654961302876472
1783244096307180500,1.1451806640625,0.015836937353014946,-0.017221594229340553,0.019261334091424942
1783244096317192000,1.15519189453125,0.010254951193928719,-0.0018855154048651457,0.01864960603415966
1783244096327202800,1.165202880859375,0.007525477558374405,0.01489246916025877,0.011387166567146778
1783244096337214700,1.175214599609375,0.002836982486769557,0.033857375383377075,-0.0003917282447218895
1783244096347225600,1.1852255859375,-0.0016653593629598618,0.042196206748485565,-0.01039215736091137
1783244096357237800,1.19523779296875,-0.011853281408548355,0.026372771710157394,-0.006550014019012451
1783244096367249000,1.205248779296875,-0.01490185409784317,-0.0003993986174464226,0.0005944943986833096
1783244096377260800,1.2152607421875,-0.013420604169368744,-0.020922783762216568,0.007462520617991686
1783244096387271700,1.225271728515625,-0.01338071096688509,-0.027154093608260155,0.012588376179337502
1783244096397282800,1.23528271484375,-0.013718933798372746,-0.022602751851081848,0.013428602367639542
1783244096407294700,1.245294677734375,-0.017081599682569504,-0.0024144023191183805,0.0053995889611542225
1783244096417305600,1.2553056640625,-0.01590741239488125,0.02617063745856285,-0.00753405224531889
1783244096427317500,1.2653173828125,-0.010729852132499218,0.040225181728601456,-0.020987922325730324
1783244096437329000,1.275328857421875,-0.0038778046146035194,0.02238946035504341,-0.035077109932899475
1783244096447339800,1.28533984375,-0.0026109949685633183,-0.00766495056450367,-0.042019639164209366
1783244096457351700,1.2953515625,-0.007364737335592508,-0.020938411355018616,-0.03384746238589287
1783244096467362600,1.305362548828125,-0.010630729608237743,-0.020272308960556984,-0.01505711767822504
1783244096477371100,1.31537109375,-0.011773225851356983,-0.018908504396677017,0.005055873654782772
1783244096487382300,1.32538232421875,-0.012020846828818321,-0.01738024689257145,0.01361522264778614
1783244096497394400,1.33539453125,-0.01940738968551159,-0.0024425757583230734,0.009373605251312256
1783244096507405300,1.3454052734375,-0.023339705541729927,0.01667119190096855,0.00047427741810679436
1783244096517416200,1.355416259765625,-0.01740272156894207,0.021618546918034554,-0.00645766407251358
1783244096527428000,1.365427978515625,-0.005412532482296228,-0.0023232626263052225,-0.004403937142342329
1783244096537439200,1.375439208984375,0.00769741041585803,-0.0356798879802227,0.0036595817655324936
1783244096547451100,1.385451171875,0.011159200221300125,-0.05481602996587753,0.017093686386942863
1783244096557462300,1.395462158203125,0.008436117321252823,-0.0472278818488121,0.02381417341530323
1783244096567473200,1.40547314453125,0.005752396769821644,-0.019609104841947556,0.020592868328094482
1783244096577485300,1.4154853515625,0.005162240471690893,0.007701344788074493,0.014256141148507595
1783244096587496200,1.42549609375,0.008478089235723019,0.020102020353078842,0.006988693960011005
1783244096597508000,1.435508056640625,0.02000691369175911,0.018270030617713928,-0.0020476775243878365
1783244096607519200,1.445519287109375,0.030962785705924034,0.006496594287455082,-0.012612066231667995
1783244096617530400,1.4555302734375,0.03773227334022522,-0.010039239190518856,-0.02223353460431099
1783244096627542300,1.465542236328125,0.037223394960165024,-0.021831117570400238,-0.019100643694400787
1783244096637553200,1.47555322265625,0.034953851252794266,-0.032332759350538254,-0.010959893465042114
1783244096647565300,1.4855654296875,0.03446127474308014,-0.044996097683906555,0.0020141182467341423
1783244096657576400,1.495576416015625,0.03556861728429794,-0.054921697825193405,0.01737682893872261
1783244096667588400,1.50558837890625,0.034901656210422516,-0.0413779690861702,0.02628256380558014
1783244096677599200,1.51559912109375,0.025801630690693855,-0.005224492400884628,0.017008904367685318
1783244096687610000,1.525610107421875,0.012724978849291801,0.03452018275856972,-0.0028633433394134045
1783244096697622300,1.535622314453125,-0.001886987593024969,0.05482305958867073,-0.023804310709238052
1783244096707633200,1.545633056640625,-0.010338688269257545,0.04250966012477875,-0.03323494270443916
1783244096717645000,1.55564501953125,-0.003125250106677413,0.00042399053927510977,-0.0334666408598423
1783244096727656400,1.565656494140625,0.0039582266472280025,-0.045596178621053696,-0.02474585920572281
1783244096737667300,1.575667236328125,0.004583004396408796,-0.062313370406627655,-0.01013202778995037
1783244096747679200,1.58567919921875,-0.0043442328460514545,-0.04251734912395477,0.00409011309966445
1783244096757690000,1.595690185546875,-0.014514312148094177,-0.015689993277192116,0.010108057409524918
1783244096767702300,1.605702392578125,-0.02654295787215233,0.004544025287032127,0.013026289641857147
1783244096777713400,1.61571337890625,-0.03514843061566353,0.006618361454457045,0.014781313017010689
1783244096787725300,1.625725341796875,-0.035367824137210846,-0.006355018354952335,0.02157445438206196
1783244096797736200,1.635736083984375,-0.02485073357820511,-0.03245985507965088,0.028597211465239525
1783244096807747300,1.645747314453125,-0.015222391113638878,-0.05350609868764877,0.02508028969168663
1783244096817759200,1.65575927734375,-0.02088187448680401,-0.046118490397930145,0.013359716162085533
1783244096827770000,1.66577001953125,-0.04012065753340721,-0.010176997631788254,-0.000013506505638360977
1783244096837782300,1.6757822265625,-0.059029098600149155,0.041913632303476334,-0.007224547676742077
1783244096847793400,1.68579345703125,-0.06455409526824951,0.06559585779905319,-0.008933230303227901
1783244096857804300,1.69580419921875,-0.05449746549129486,0.05640103295445442,-0.0063070873729884624
1783244096867816200,1.705816162109375,-0.03579222410917282,0.030530963093042374,-0.004882290028035641
1783244096877827000,1.7158271484375,-0.011822708882391453,0.008310345932841301,-0.010765479877591133
1783244096887839200,1.725839111328125,0.015507768839597702,-0.0118390629068017,-0.01983572542667389
1783244096897850400,1.735850341796875,0.036581095308065414,-0.03630472719669342,-0.02307865582406521
1783244096907861200,1.745861328125,0.05035320669412613,-0.04923684522509575,-0.013073541224002838
1783244096917873200,1.755873046875,0.05973019823431969,-0.0405389629304409,-0.0023593774531036615
1783244096927884300,1.76588427734375,0.05920150876045227,-0.0190427228808403,0.007657092064619064
1783244096937896200,1.775896240234375,0.04383479803800583,0.0005733224097639322,0.009921311400830746
1783244096947907300,1.7859072265625,0.02050556242465973,0.016437377780675888,0.003219949547201395
1783244096957919200,1.795919189453125,0.000899638282135129,0.02824876457452774,-0.0059682223945856094
1783244096967930400,1.805930419921875,-0.01454046368598938,0.03460393100976944,-0.020409321412444115
1783244096977941200,1.815941162109375,-0.021508092060685158,0.008959020487964153,-0.029077645391225815
1783244096987953200,1.825953125,-0.0240017157047987,-0.037309810519218445,-0.023636700585484505
1783244096997964000,1.835964111328125,-0.024778559803962708,-0.07125472277402878,-0.0026312845293432474
1783244097007976200,1.84597607421875,-0.023280316963791847,-0.08276352286338806,0.026200678199529648
1783244097017987300,1.8559873046875,-0.019010204821825027,-0.0725894495844841,0.05648401752114296
1783244097027998200,1.865998291015625,-0.018707245588302612,-0.04697629064321518,0.0680403783917427
1783244097038010400,1.87601025390625,-0.019549336284399033,-0.00494788121432066,0.06075982749462128
1783244097048021200,1.886021240234375,-0.02473834529519081,0.024908024817705154,0.03759576380252838
1783244097058033200,1.896033203125,-0.02154894359409809,0.03511352092027664,0.003201304469257593
1783244097068044300,1.906044189453125,-0.010743009857833385,0.029915574938058853,-0.03309773653745651
1783244097078055200,1.91605517578125,-0.002054713200777769,0.016740916296839714,-0.06692440807819366
1783244097088067300,1.9260673828125,0.0026192415971308947,0.00023436977062374353,-0.0809580460190773
1783244097098078200,1.936078125,0.004604628309607506,-0.022024862468242645,-0.07144683599472046
1783244097108090000,1.946090087890625,0.009913001209497452,-0.045270804315805435,-0.04248538613319397
1783244097118101200,1.956101318359375,0.01278841681778431,-0.05431729555130005,-0.0052884831093251705
1783244097128113200,1.966113037109375,0.01158360205590725,-0.043179284781217575,0.02521270141005516
1783244097138124300,1.976124267578125,0.006902030669152737,-0.009795229882001877,0.037392936646938324
1783244097148135200,1.98613525390625,0.004678930155932903,0.01754757948219776,0.039292994886636734
1783244097158147300,1.996147216796875,0.00032546091824769974,0.028867078945040703,0.0363166444003582
1783244097168158200,2.006158203125,-0.0030771521851420403,0.02613034099340439,0.02720187045633793
1783244097178170000,2.016170166015625,0.0005186479538679123,0.021358754485845566,0.011283889412879944
1783244097188181200,2.02618115234375,0.011272544972598553,0.007066434249281883,-0.008042458444833755
1783244097198192400,2.0361923828125,0.01801913231611252,-0.011164767667651176,-0.018165133893489838
1783244097208204300,2.046204345703125,0.02161993831396103,-0.0244810339063406,-0.0226687490940094
1783244097218215200,2.056215087890625,0.022022873163223267,-0.023419231176376343,-0.02068762481212616
1783244097228227300,2.066227294921875,0.022084446623921394,-0.007408308796584606,-0.012369295582175255
1783244097238238200,2.07623828125,0.025158533826470375,0.0057378532364964485,0.0014759465120732784
1783244097248250400,2.08625048828125,0.026689797639846802,0.014679811894893646,0.01114220917224884
1783244097258261200,2.09626123046875,0.029057350009679794,0.018113160505890846,0.01691807247698307
1783244097268272000,2.106272216796875,0.028602905571460724,0.015583891421556473,0.02272706665098667
1783244097278284300,2.1162841796875,0.027628721669316292,0.012359602376818657,0.026841117069125175
1783244097288295200,2.126295166015625,0.022891223430633545,0.013891397044062614,0.024399802088737488
1783244097298307000,2.13630712890625,0.02075456827878952,0.005694986321032047,0.024363849312067032
1783244097308318500,2.146318359375,0.01861109770834446,-0.0052977511659264565,0.02005448006093502
1783244097318329300,2.156329345703125,0.01638203114271164,-0.0077928658574819565,0.01090012863278389
1783244097328341200,2.16634130859375,0.01501455344259739,-0.0019496274180710316,0.0027470733039081097
1783244097338352000,2.17635205078125,0.012572434730827808,0.012345422059297562,-0.0055068619549274445
1783244097348364300,2.1863642578125,0.01101033017039299,0.0330207422375679,-0.011417853645980358
1783244097358375400,2.19637548828125,0.008541046641767025,0.04512694105505943,-0.014575563371181488
1783244097368386300,2.20638623046875,0.009590758942067623,0.029633795842528343,-0.008475221693515778
1783244097378398200,2.216398193359375,0.012623034417629242,0.010162625461816788,0.00021813483908772469
1783244097388409300,2.226409423828125,0.01537514291703701,-0.0006045899353921413,0.01149982213973999
1783244097398421200,2.236421142578125,0.014570869505405426,0.002105975290760398,0.01781817339360714
1783244097408432000,2.24643212890625,0.0019316142424941063,0.0019924480002373457,0.01759808324277401
1783244097418444000,2.256444091796875,-0.015400771051645279,-0.000722644617781043,0.01657569594681263
1783244097428455400,2.266455322265625,-0.030852483585476875,-0.0027987149078398943,0.013982098549604416
1783244097438466300,2.27646630859375,-0.035420604050159454,-0.005328717641532421,0.007164138834923506
1783244097448478200,2.286478271484375,-0.026410171762108803,-0.0137489540502429,0.002996401861310005
1783244097458489000,2.296489013671875,-0.01683637499809265,-0.024323569610714912,0.0038776416331529617
1783244097468501200,2.306501220703125,0.0005321227945387363,-0.02499062940478325,0.003646849188953638
1783244097478512000,2.31651220703125,0.011965073645114899,-0.0035947938449680805,-0.004140499513596296
1783244097488523000,2.32652294921875,0.018343716859817505,0.022150512784719467,-0.01509418897330761
1783244097498535000,2.336534912109375,0.018577009439468384,0.03460824489593506,-0.026853909716010094
1783244097508545800,2.3465458984375,0.01729283481836319,0.042952463030815125,-0.044852085411548615
1783244097518558000,2.356557861328125,0.01717592030763626,0.051736366003751755,-0.0644654631614685
1783244097528569000,2.366569091796875,0.020831694826483727,0.047858014702796936,-0.07754988968372345
1783244097538581000,2.3765810546875,0.029774323105812073,0.021640796214342117,-0.07293596863746643
1783244097548591900,2.386591796875,0.04297950118780136,-0.014380991458892822,-0.059880513697862625
1783244097558603000,2.39660302734375,0.05259670689702034,-0.03559493273496628,-0.048627592623233795
1783244097568615000,2.406614990234375,0.051683299243450165,-0.03800470381975174,-0.03826449066400528
1783244097578625800,2.416625732421875,0.046201713383197784,-0.03643716871738434,-0.026682667434215546
1783244097588638000,2.426637939453125,0.034202467650175095,-0.038554515689611435,-0.014213108457624912
1783244097598649000,2.436649169921875,0.02672644332051277,-0.03282898664474487,-0.006402590312063694
1783244097608660000,2.446659912109375,0.016029855236411095,-0.010054290294647217,-0.0033697807230055332
1783244097618671900,2.456671875,0.002967050764709711,0.020328648388385773,-0.007092081010341644
1783244097628682800,2.466682861328125,-0.011477721855044365,0.029178602620959282,-0.013872700743377209
1783244097638695000,2.47669482421875,-0.025030815973877907,0.012760746292769909,-0.015590972267091274
1783244097648706000,2.4867060546875,-0.03200265392661095,-0.00965295173227787,-0.01157444715499878
1783244097658717000,2.496717041015625,-0.030979199334979057,-0.026168279349803925,-0.006426823325455189
1783244097668729000,2.50672900390625,-0.019801218062639236,-0.03930465504527092,-0.0006753536872565746
1783244097678740000,2.516739990234375,-0.012648767791688442,-0.04621715471148491,-0.0021387608721852303
1783244097688751900,2.526751953125,-0.009202050976455212,-0.02871551923453808,-0.007729052100330591
1783244097698763000,2.536762939453125,-0.008849981240928173,0.01183457113802433,-0.01740378327667713
1783244097708774000,2.54677392578125,-0.0018565210048109293,0.04601311683654785,-0.02959493175148964
1783244097718786000,2.5567861328125,0.0036753974854946136,0.051564477384090424,-0.03656788915395737
1783244097728797000,2.566796875,0.010107625275850296,0.04106621444225311,-0.03359463810920715
1783244097738808800,2.576808837890625,0.012671183794736862,0.0256411861628294,-0.03086809255182743
1783244097748820000,2.586820068359375,0.016471033915877342,0.007899150252342224,-0.02442089281976223
1783244097758831900,2.596831787109375,0.02337980642914772,-0.009646021761000156,-0.020227747038006783
1783244097768843000,2.606843017578125,0.022150758653879166,-0.01588568277657032,-0.019405100494623184
1783244097778854000,2.61685400390625,0.020871110260486603,-0.005079640541225672,-0.02293219044804573
1783244097788866000,2.626865966796875,0.01807074248790741,0.00719632999971509,-0.02465813234448433
1783244097798877000,2.636876953125,0.017486711964011192,0.010324211791157722,-0.025668269023299217
1783244097808888800,2.646888916015625,0.023107632994651794,0.00950968824326992,-0.026145294308662415
1783244097818900000,2.65689990234375,0.02290629781782627,0.01296407449990511,-0.01835981011390686
1783244097828911000,2.6669111328125,0.022369936108589172,0.01487769652158022,-0.0070419032126665115
1783244097838923000,2.676923095703125,0.025073310360312462,0.020542774349451065,-0.0002316678874194622
1783244097848934000,2.686933837890625,0.02716628834605217,0.023495152592658997,-0.0022849650122225285
1783244097858946000,2.696946044921875,0.025348149240016937,0.024465344846248627,-0.01434535626322031
1783244097868957000,2.70695703125,0.01618991047143936,0.017484799027442932,-0.029934009537100792
1783244097878968800,2.71696875,0.007774588651955128,0.002445130841806531,-0.034337013959884644
1783244097888980000,2.72697998046875,0.0014705663779750466,-0.014459013938903809,-0.026861729100346565
1783244097898990800,2.736990966796875,-0.002685562940314412,-0.02866298332810402,-0.0071572670713067055
1783244097909003000,2.7470029296875,-0.00815095566213131,-0.03245406225323677,0.01824827678501606
1783244097919014000,2.757013916015625,-0.011479906737804413,-0.021208062767982483,0.039509888738393784
1783244097929025800,2.76702587890625,-0.010852359235286713,0.008050214499235153,0.04167146235704422
1783244097939037200,2.777037109375,-0.011567683890461922,0.04006327688694,0.027370823547244072
1783244097949048000,2.787048095703125,-0.010085954330861568,0.05838635936379433,-0.000715617323294282
1783244097959060000,2.79706005859375,-0.011137103661894798,0.04811801016330719,-0.02654055505990982
1783244097969070800,2.80707080078125,-0.014975890517234802,0.02083737589418888,-0.041611284017562866
1783244097979083000,2.8170830078125,-0.02218000777065754,-0.004626970738172531,-0.04510615020990372
1783244097989094100,2.82709423828125,-0.02609437331557274,-0.015114497393369675,-0.03763992339372635
1783244097999105000,2.83710498046875,-0.02520914003252983,-0.016277499496936798,-0.03121611289680004
1783244098009117000,2.847116943359375,-0.022135427221655846,-0.011026802472770214,-0.02329229936003685
1783244098019128000,2.857128173828125,-0.020067481324076653,-0.0023488926235586405,-0.00909418798983097
1783244098029140000,2.867139892578125,-0.016612296923995018,0.012653154321014881,0.009292272850871086
1783244098039150800,2.87715087890625,-0.011728592216968536,0.03284231200814247,0.023438185453414917
1783244098049162800,2.887162841796875,-0.009865017607808113,0.043735165148973465,0.030895406380295753
1783244098059174100,2.897174072265625,-0.014039256609976292,0.03731108829379082,0.030469035729765892
1783244098069185000,2.90718505859375,-0.018455151468515396,0.014571107923984528,0.022830408066511154
1783244098079197000,2.917197021484375,-0.018737180158495903,-0.0003612365107983351,0.01068106573075056
1783244098089207800,2.927207763671875,-0.012058025225996971,-0.0005806253757327795,-0.0046813334338366985
1783244098099220000,2.937219970703125,-0.0034155347384512424,0.0018351281760260463,-0.010166113264858723
1783244098109231000,2.947231201171875,0.0037801656872034073,0.008547104895114899,-0.013812878169119358
1783244098119242000,2.957241943359375,0.011376299895346165,0.02034464292228222,-0.012745482847094536
1783244098129254000,2.96725390625,0.018716827034950256,0.02831200137734413,-0.009389165788888931
1783244098139265000,2.97726513671875,0.026906844228506088,0.024291427806019783,-0.0038487252313643694
1783244098149277000,2.98727685546875,0.03158159926533699,0.012579511851072311,-0.0040642814710736275
1783244098159287800,2.997287841796875,0.03446473553776741,0.013932131230831146,-0.009774099104106426
1783244098169300000,3.007300048828125,0.030382057651877403,0.02965543605387211,-0.020542535930871964
1783244098179311000,3.01731103515625,0.02499954216182232,0.04658515006303787,-0.026343699544668198
1783244098189322000,3.027322021484375,0.01898207515478134,0.05470793694257736,-0.029133833944797516
1783244098199334000,3.037333984375,0.013012067414820194,0.05457478016614914,-0.024898342788219452
1783244098209344800,3.0473447265625,0.012577759101986885,0.04486781731247902,-0.02116464637219906
1783244098219357000,3.05735693359375,0.014735985547304153,0.02834397181868553,-0.013631895184516907
1783244098229368000,3.0673681640625,0.023706523701548576,0.004429108463227749,-0.010097033344209194
1783244098239379000,3.07737890625,0.03353065997362137,-0.015157109126448631,-0.007666366174817085
1783244098249391000,3.08739111328125,0.04335058480501175,-0.021825794130563736,-0.009674441069364548
1783244098259402000,3.097402099609375,0.04369413107633591,-0.018404431641101837,-0.012728022411465645
1783244098269414000,3.107413818359375,0.03477153182029724,-0.016776833683252335,-0.006998014636337757
1783244098279425000,3.117425048828125,0.02303151972591877,-0.017618926241993904,0.0035361191257834435
1783244098289436000,3.127435791015625,0.013773464597761631,-0.010463196784257889,0.009963245131075382
1783244098299448000,3.137447998046875,0.003522424725815654,-0.0060876235365867615,0.007925393991172314
1783244098309459000,3.147458984375,-0.009948481805622578,-0.006561217829585075,0.004181614611297846
1783244098319470800,3.157470947265625,-0.0225090142339468,-0.015416495501995087,0.004248192999511957
1783244098329482000,3.16748193359375,-0.031374141573905945,-0.028931448236107826,0.009191016666591167
1783244098339493000,3.1774931640625,-0.03267056867480278,-0.03780430182814598,0.017989834770560265
1783244098349505000,3.187505126953125,-0.027725135907530785,-0.03799225017428398,0.02459346316754818
1783244098359516000,3.197515869140625,-0.024722155183553696,-0.03335754945874214,0.019284451380372047
1783244098369528000,3.207528076171875,-0.019021179527044296,-0.02059720829129219,0.0022181738168001175
1783244098379539000,3.2175390625,-0.018845677375793457,-0.005382833536714315,-0.016382675617933273
1783244098389550800,3.22755078125,-0.01500310841947794,0.0006449559004977345,-0.026727888733148575
1783244098399562000,3.23756201171875,-0.006490313448011875,-0.007648393511772156,-0.02795374020934105
1783244098409573000,3.247572998046875,-1.8975697457790375e-7,-0.015699395909905434,-0.021495576947927475
1783244098419585000,3.2575849609375,0.003981502261012793,-0.009050814434885979,-0.018110431730747223
1783244098429596000,3.267595947265625,0.004161424934864044,0.005797450430691242,-0.025426290929317474
1783244098439607800,3.27760791015625,-0.003417665371671319,0.014195462688803673,-0.03214278072118759
1783244098449619000,3.287618896484375,-0.011308608576655388,0.009435045532882214,-0.03259950876235962
1783244098459630000,3.297630126953125,-0.01060393638908863,-0.004337226040661335,-0.018802735954523087
1783244098469642000,3.30764208984375,-0.0032229346688836813,-0.015056701377034187,-0.0024331454187631607
1783244098479654100,3.317654052734375,0.010704864747822285,-0.02386590652167797,0.009822722524404526
1783244098489666000,3.327666015625,0.015483641996979713,-0.019435878843069077,0.0082786176353693
1783244098499677000,3.337677001953125,0.011259602382779121,-0.007078811060637236,-0.0012001048307865858
1783244098509687800,3.347687744140625,0.00268747191876173,0.014132409356534481,-0.015815582126379013
1783244098519700000,3.357699951171875,0.001957499422132969,0.02739761397242546,-0.026701252907514572
1783244098529711000,3.367711181640625,0.003404394257813692,0.029122082516551018,-0.034172482788562775
1783244098539723000,3.377722900390625,0.0029258241411298513,0.01693119667470455,-0.029716480523347855
1783244098549734100,3.387734130859375,-0.0009631887078285217,-0.004553731065243483,-0.012354274280369282
1783244098559746000,3.39774609375,-0.0018201940692961216,-0.02879968285560608,0.009768604300916195
1783244098569757000,3.4077568359375,-0.0023723740596324205,-0.04042797535657883,0.02430344559252262
1783244098579768000,3.41776806640625,-0.008924282155930996,-0.033495236188173294,0.03417764604091644
1783244098589780000,3.427780029296875,-0.02166154235601425,-0.011066433042287827,0.03210107237100601
1783244098599791000,3.437791015625,-0.03965545445680618,0.012393086217343807,0.021715013310313225
1783244098609803000,3.447802978515625,-0.05228022485971451,0.03444858640432358,0.008164901286363602
1783244098619814000,3.45781396484375,-0.056288015097379684,0.04202847555279732,-0.002355650532990694
1783244098629825000,3.467824951171875,-0.057848311960697174,0.035476796329021454,-0.00794219970703125
1783244098639837000,3.4778369140625,-0.049961626529693604,0.019003015011548996,-0.008323830552399158
1783244098649848000,3.48784814453125,-0.043787881731987,0.0047960951924324036,-0.010008828714489937
1783244098659860000,3.49785986328125,-0.04209677502512932,-0.001231437548995018,-0.007080949377268553
1783244098669871000,3.50787109375,-0.04647858440876007,0.0036348924040794373,-0.005717302672564983
1783244098679883000,3.517883056640625,-0.048132941126823425,0.013545580208301544,-0.0033217896707355976
1783244098689894000,3.527893798828125,-0.04618377238512039,0.02742026001214981,-0.0026855533942580223
1783244098699905000,3.537905029296875,-0.04529054835438728,0.041769903153181076,0.005001394543796778
1783244098709917200,3.547917236328125,-0.04827211797237396,0.055099088698625565,0.012290090322494507
1783244098719928000,3.557927978515625,-0.048344820737838745,0.06462948024272919,0.013526862487196922
1783244098729940000,3.56793994140625,-0.05777773633599281,0.06303642690181732,0.017804425209760666
1783244098739950800,3.577950927734375,-0.06566362082958221,0.04791047051548958,0.022740326821804047
1783244098749962000,3.5879619140625,-0.06684169918298721,0.03348946198821068,0.023637445643544197
1783244098759974000,3.597973876953125,-0.0640251412987709,0.020116135478019714,0.018581701442599297
1783244098769985000,3.607985107421875,-0.05865780636668205,0.016428792849183083,0.018936702981591225
1783244098779997200,3.6179970703125,-0.059037305414676666,0.02605026215314865,0.012846320867538452
1783244098790008000,3.628008056640625,-0.06465710699558258,0.045225344598293304,0.0048352573066949844
1783244098800019000,3.63801904296875,-0.07556728273630142,0.054797276854515076,0.00393883790820837
1783244098810030800,3.64803076171875,-0.07684394717216492,0.045990943908691406,0.01091387402266264
1783244098820042000,3.6580419921875,-0.06657479703426361,0.02867400459945202,0.02033107727766037
1783244098830054100,3.66805419921875,-0.05123589187860489,0.007818194106221199,0.03077477402985096
1783244098840065000,3.67806494140625,-0.03800184652209282,-0.010115266777575016,0.03654398024082184
1783244098850077000,3.688076904296875,-0.030122511088848114,-0.008771904744207859,0.028802063316106796
1783244098860088000,3.698088134765625,-0.03142186999320984,0.018740680068731308,0.00980520062148571
1783244098870099000,3.708098876953125,-0.034811485558748245,0.05320996791124344,-0.015356667339801788
1783244098880111000,3.718111083984375,-0.03536941856145859,0.06917642056941986,-0.03986813500523567
1783244098890122000,3.7281220703125,-0.033817701041698456,0.06182263791561127,-0.051637064665555954
1783244098900134100,3.738134033203125,-0.026042871177196503,0.04210805520415306,-0.054227523505687714
1783244098910145000,3.74814501953125,-0.013235034421086311,0.02143464982509613,-0.05257439240813255
1783244098920156000,3.758156005859375,0.00021446216851472855,-0.0031527187675237656,-0.05061084404587746
1783244098930167800,3.768167724609375,0.006568656302988529,-0.024251261726021767,-0.04002227634191513
1783244098940179200,3.77817919921875,0.009901335462927818,-0.03873379901051521,-0.02131277322769165
1783244098950191000,3.788191162109375,0.012486627325415611,-0.049721743911504745,0.0023055742494761944
1783244098960202000,3.798201904296875,0.01277717761695385,-0.04984664544463158,0.020874997600913048
1783244098970212900,3.808212890625,0.004895712248980999,-0.03526883199810982,0.03216477483510971
1783244098980225000,3.81822509765625,-0.01098045613616705,-0.014699643477797508,0.027373483404517174
1783244098990236200,3.828236083984375,-0.03330903872847557,-0.002526664175093174,0.015685243532061577
1783244099000248000,3.838248046875,-0.055234044790267944,-0.012330292724072933,0.0065050614066421986
1783244099010259000,3.848259033203125,-0.06578250229358673,-0.03545811027288437,0.004713236354291439
1783244099020271000,3.85827099609375,-0.0683218315243721,-0.059799667447805405,0.011315745301544666
1783244099030282000,3.868281982421875,-0.062492065131664276,-0.0791335478425026,0.0227214265614748
1783244099040292900,3.87829296875,-0.055029354989528656,-0.07855084538459778,0.03101477585732937
1783244099050305000,3.888304931640625,-0.04850434139370918,-0.05860365182161331,0.03488274663686752
1783244099060316200,3.898316162109375,-0.04300358146429062,-0.028039881959557533,0.03210986405611038
1783244099070328000,3.908328125,-0.03623729199171066,-0.004993082024157047,0.025814153254032135
1783244099080339000,3.9183388671875,-0.022234123200178146,0.001003824407234788,0.022863902151584625
1783244099090349800,3.928349853515625,-0.0074891597032547,-0.0025150699075311422,0.017087671905755997
1783244099100362000,3.938362060546875,0.007988866418600082,-0.008873100392520428,0.010499009862542152
1783244099110373000,3.948373046875,0.017098793759942055,-0.013527244329452515,-0.0019217629451304674
1783244099120385000,3.958385009765625,0.02092788740992546,-0.012484084814786911,-0.019510343670845032
1783244099130396200,3.968396240234375,0.01986193284392357,-0.00495627336204052,-0.038530219346284866
1783244099140407000,3.978406982421875,0.01811143569648266,-0.007946737110614777,-0.04524138569831848
1783244099150419000,3.9884189453125,0.02181088551878929,-0.02280004695057869,-0.03965013101696968
1783244099160430000,3.99843017578125,0.024476977065205574,-0.03988954797387123,-0.02513350546360016
1783244099170442000,4.00844189453125,0.025999557226896286,-0.04976559802889824,-0.002858868334442377
1783244099180453000,4.018453125,0.02241281233727932,-0.03845781832933426,0.013516642153263092
1783244099190465000,4.028465087890625,0.015614563599228859,-0.017170658335089684,0.019156940281391144
1783244099200476000,4.038475830078125,0.008087404072284698,-0.0038260906003415585,0.012231654487550259
1783244099210487000,4.048487060546875,0.0012067006900906563,-0.0028716037049889565,-0.0015540330205112696
1783244099220499000,4.0584990234375,-0.003283388912677765,-0.007961170747876167,-0.00952007994055748
1783244099230510000,4.068510009765625,-0.0029995476361364126,-0.017982391640543938,-0.013759518973529339
1783244099240522000,4.07852197265625,0.0010157001670449972,-0.027652062475681305,-0.014898020774126053
1783244099250533000,4.088533203125,0.0024972697719931602,-0.036998093128204346,-0.010335545986890793
1783244099260544000,4.0985439453125,0.0018605078803375363,-0.0325239822268486,-0.0051474422216415405
1783244099270556000,4.108555908203125,-0.004173043183982372,-0.01730269007384777,-0.005177641753107309
1783244099280567000,4.118567138671875,-0.010380072519183159,-0.0004949481226503849,-0.008242407813668251
1783244099290579200,4.1285791015625,-0.013920905999839306,0.006260965019464493,-0.009909386746585369
1783244099300590000,4.138590087890625,-0.015975002199411392,-0.0026196115650236607,-0.0041732038371264935
1783244099310601000,4.14860107421875,-0.01435281615704298,-0.019644472748041153,0.0017323018983006477
1783244099320612900,4.15861279296875,-0.010380445048213005,-0.034466829150915146,0.008674363605678082
1783244099330624000,4.1686240234375,-0.009993914514780045,-0.04040840268135071,0.009133386425673962
1783244099340636000,4.178635986328125,-0.010958777740597725,-0.03255607187747955,0.004269655793905258
1783244099350647000,4.18864697265625,-0.010428117588162422,-0.018772877752780914,-0.006121356971561909
1783244099360659200,4.1986591796875,-0.006964676082134247,-0.007527146488428116,-0.017991865053772926
1783244099370670000,4.208670166015625,-0.0003138044849038124,-0.0048872195184230804,-0.02738339453935623
1783244099380681000,4.218680908203125,0.010770272463560104,-0.005991365760564804,-0.02737380750477314
1783244099390692900,4.22869287109375,0.0224208552390337,-0.01177582610398531,-0.025154385715723038
1783244099400704000,4.2387041015625,0.030023381114006042,-0.01590239442884922,-0.027623668313026428
1783244099410716200,4.248716064453125,0.028142765164375305,-0.013254614546895027,-0.03169308602809906
1783244099420727000,4.25872705078125,0.01999242790043354,-0.008588755503296852,-0.03218097612261772
1783244099430738000,4.268738037109375,0.012219191528856754,-0.006075852084904909,-0.02619285322725773
1783244099440750000,4.27875,0.010321422480046749,-0.012313773855566978,-0.016298942267894745
1783244099450761000,4.288760986328125,0.01360430009663105,-0.01660059206187725,-0.011247187852859497
1783244099460772900,4.29877294921875,0.01543895248323679,-0.022574594244360924,-0.007012229412794113
1783244099470784000,4.308783935546875,0.0135414507240057,-0.021318454295396805,-0.007472162134945393
1783244099480794400,4.31879443359375,0.002092521172016859,-0.013868793845176697,-0.0075440676882863045
1783244099490806300,4.32880615234375,-0.0065953489392995834,0.0006092750700190663,-0.010034553706645966
1783244099500817400,4.3388173828125,-0.014887366443872452,0.009890657849609852,-0.003947366029024124
1783244099510829600,4.34882958984375,-0.011623239144682884,-0.006132748909294605,0.0037932475097477436
1783244099520840400,4.35884033203125,-0.003026023507118225,-0.030823715031147003,0.01098005473613739
1783244099530851300,4.368851318359375,0.010087012313306332,-0.053243838250637054,0.011517556384205818
1783244099540863200,4.37886328125,0.019523657858371735,-0.058971233665943146,0.008726829662919044
1783244099550874400,4.388874267578125,0.024592716246843338,-0.051092058420181274,0.003153108060359955
1783244099560886300,4.39888623046875,0.023990308865904808,-0.028993681073188782,-0.010647658258676529
1783244099570897400,4.4088974609375,0.01783265732228756,0.0015175347216427326,-0.028418781235814095
1783244099580909600,4.41890966796875,0.010422412306070328,0.027506791055202484,-0.04447018355131149
1783244099590920400,4.42892041015625,0.008062154985964298,0.03645731136202812,-0.05673066899180412
1783244099600931300,4.438931396484375,0.020048510283231735,0.021923640742897987,-0.05798821523785591
1783244099610943200,4.448943115234375,0.03674589470028877,-0.0051560127176344395,-0.0525725893676281
1783244099620954400,4.458954345703125,0.05293871462345123,-0.032496292144060135,-0.043162573128938675
1783244099630966500,4.468966552734375,0.060152094811201096,-0.04528211057186127,-0.03710941970348358
1783244099640977400,4.478977294921875,0.06160564720630646,-0.0391608364880085,-0.03782154619693756
1783244099650988300,4.48898828125,0.048026032745838165,-0.020486686378717422,-0.04152238368988037
1783244099661000400,4.49900048828125,0.028951140120625496,-0.007863301783800125,-0.042206015437841415
1783244099671011300,4.50901123046875,0.014826266095042229,-0.012158447876572609,-0.03616010770201683
1783244099681023200,4.519023193359375,0.00977637991309166,-0.025209803134202957,-0.024088531732559204
1783244099691034400,4.529034423828125,0.012157246470451355,-0.04235690087080002,-0.012265963479876518
1783244099701045200,4.539045166015625,0.01528113428503275,-0.048241954296827316,-0.007141775451600552
1783244099711057400,4.549057373046875,0.009252697229385376,-0.04801298677921295,-0.005461212247610092
1783244099721068300,4.559068359375,-0.00003561028279364109,-0.04134736210107803,-0.00246062851510942
1783244099731080200,4.569080078125,-0.00924103893339634,-0.03523773327469826,0.0003207237459719181
1783244099741091600,4.579091552734375,-0.01008579507470131,-0.035102181136608124,0.0034078601747751236
1783244099751103500,4.589103515625,-0.003636682406067848,-0.039244674146175385,0.007463850546628237
1783244099761114400,4.5991142578125,0.0039227004162967205,-0.04479363560676575,0.008394891396164894
1783244099771125200,4.609125244140625,0.011156857945024967,-0.04062512516975403,0.0031029782257974148
1783244099781137400,4.619137451171875,0.01472442876547575,-0.019120898097753525,-0.013841649517416954
1783244099791148500,4.6291484375,0.010966920293867588,0.018846670165657997,-0.03479534760117531
1783244099801160400,4.639160400390625,0.004554560873657465,0.045357637107372284,-0.05849641561508179
1783244099811171300,4.64917138671875,0.002837672596797347,0.04641786217689514,-0.07136404514312744
1783244099821182500,4.659182373046875,0.00873391143977642,0.03293533995747566,-0.07468447834253311
1783244099831194400,4.6691943359375,0.01859794184565544,0.012337638065218925,-0.07394221425056458
1783244099841205200,4.679205322265625,0.030277501791715622,-0.0016783124301582575,-0.06893999874591827
1783244099851217200,4.689217041015625,0.03442617505788803,-0.008058322593569756,-0.06120378524065018
1783244099861228500,4.699228515625,0.035821136087179184,-0.000475769629701972,-0.05375386029481888
1783244099871239400,4.709239501953125,0.03812013566493988,0.01757287047803402,-0.05408771336078644
1783244099881251300,4.719251220703125,0.038520410656929016,0.02829023078083992,-0.049309469759464264
1783244099891262200,4.72926220703125,0.039343755692243576,0.022297855466604233,-0.04093877971172333
1783244099901274400,4.7392744140625,0.04416460916399956,0.001532391062937677,-0.023556062951683998
1783244099911285500,4.749285400390625,0.04975239932537079,-0.025064734742045403,-0.004027583170682192
1783244099921297400,4.75929736328125,0.05314420163631439,-0.04189165309071541,0.013351406902074814
1783244099931308300,4.769308349609375,0.05524921789765358,-0.029444338753819466,0.014920778572559357
1783244099941319400,4.7793193359375,0.04782645404338837,-0.005184007342904806,0.004906226880848408
1783244099951331300,4.789331298828125,0.03867551311850548,0.01994355581700802,-0.007705140858888626
1783244099961342200,4.79934228515625,0.02930092066526413,0.028721867129206657,-0.012407217174768448
1783244099971354400,4.809354248046875,0.02484790049493313,0.028941325843334198,-0.012463187798857689
1783244099981365500,4.819365478515625,0.025143511593341827,0.01962931826710701,-0.00798375066369772
1783244099991376400,4.82937646484375,0.029147256165742874,0.00557180680334568,-0.0024134397972375154
1783244100001388300,4.83938818359375,0.031622130423784256,-0.00971686840057373,-0.00012898026034235954
1783244100011399200,4.849399169921875,0.03466266393661499,-0.014067460782825947,0.00019433628767728806
1783244100021411300,4.859411376953125,0.036792658269405365,-0.005012713372707367,-0.003997212741523981
1783244100031422500,4.86942236328125,0.037497542798519135,0.00948779284954071,-0.007428647484630346
1783244100041433300,4.879433349609375,0.036544132977724075,0.017639728263020515,-0.002735625021159649
1783244100051445500,4.889445556640625,0.03369428217411041,0.012602892704308033,0.002559537999331951
1783244100061456400,4.899456298828125,0.032268960028886795,0.0015238760970532894,0.010262198746204376
1783244100071468300,4.90946826171875,0.030132144689559937,-0.01030807476490736,0.0225541852414608
1783244100081479400,4.9194794921875,0.030410179868340492,-0.015319079160690308,0.02983047068119049
1783244100091491600,4.92949169921875,0.030759640038013458,-0.009555346332490444,0.0282418355345726
1783244100101502500,4.93950244140625,0.025255152955651283,0.0021702854428440332,0.017564956098794937
1783244100111513300,4.949513427734375,0.018461640924215317,0.019226042553782463,0.005566407926380634
1783244100121525200,4.959525146484375,0.00603985833004117,0.039873264729976654,-0.012917261570692062
1783244100131536400,4.969536376953125,-0.009699530899524689,0.05345672369003296,-0.027019117027521133
1783244100141548300,4.97954833984375,-0.017559850588440895,0.04330555349588394,-0.032870348542928696
1783244100151559400,4.989559326171875,-0.013480632565915585,0.024004414677619934,-0.03529761731624603
1783244100161570300,4.9995703125,-0.003340380033478141,0.004320457577705383,-0.032434720546007156
1783244100171582500,5.00958251953125,0.0074375388212502,-0.0010129199363291264,-0.031723760068416595
1783244100181593300,5.01959326171875,0.010965961031615734,0.005490252748131752,-0.029255544766783714
1783244100191605200,5.029605224609375,0.00904033612459898,0.013045172207057476,-0.020577209070324898
1783244100201616400,5.039616455078125,0.007090369239449501,0.015482762828469276,-0.004059218801558018
1783244100211627500,5.04962744140625,0.009201617911458015,0.008188692852854729,0.019465653225779533
1783244100221639400,5.059639404296875,0.014567354694008827,-0.0003209055867046118,0.0363016240298748
1783244100231650300,5.069650390625,0.019905978813767433,-0.0019892891868948936,0.04370224103331566
1783244100241662500,5.079662353515625,0.0181427001953125,0.009181339293718338,0.03578013554215431
1783244100251673300,5.08967333984375,0.014769274741411209,0.033067815005779266,0.010269172489643097
1783244100261685200,5.099685302734375,0.009934838861227036,0.05257094278931618,-0.019764892756938934
1783244100271696400,5.1096962890625,0.008879374712705612,0.053717099130153656,-0.04600176960229874
1783244100281707300,5.119707275390625,0.011981691233813763,0.04058318957686424,-0.05349963158369064
1783244100291719400,5.129719482421875,0.019616281613707542,0.030357317999005318,-0.05222968012094498
1783244100301730300,5.139730224609375,0.0304391011595726,0.02814263291656971,-0.04002627730369568
1783244100311742200,5.1497421875,0.04054867476224899,0.02298649027943611,-0.024078676477074623
1783244100321753600,5.159753662109375,0.047234807163476944,0.012995907105505466,-0.007184648886322975
1783244100331764500,5.169764404296875,0.04660523310303688,0.004034565761685371,0.006581494119018316
1783244100341776400,5.1797763671875,0.044289082288742065,-0.0019391709938645363,0.016459157690405846
1783244100351787300,5.189787353515625,0.035324934870004654,-0.007666834630072117,0.025665385648608208
1783244100361799400,5.19979931640625,0.022653084248304367,-0.009170721285045147,0.031126463785767555
1783244100371810600,5.209810546875,0.005520541220903397,-0.001258387230336666,0.028046153485774994
1783244100381821400,5.219821533203125,-0.010146834887564182,0.015642832964658737,0.012044551782310009
1783244100391833300,5.229833251953125,-0.027325129136443138,0.024433718994259834,-0.0013656949158757925
1783244100401844500,5.239844482421875,-0.04214535281062126,0.01996679976582527,-0.013864442706108093
1783244100411856400,5.2498564453125,-0.04941653087735176,0.01303398422896862,-0.0198837760835886
1783244100421867300,5.2598671875,-0.04976300895214081,-0.0017761210910975933,-0.015598483383655548
1783244100431878400,5.26987841796875,-0.04493485391139984,-0.02376009337604046,-0.003271600231528282
1783244100441890600,5.279890625,-0.04175237566232681,-0.039199236780405045,0.010909466072916985
1783244100451901400,5.2899013671875,-0.038011275231838226,-0.0319904088973999,0.022109216079115868
1783244100461913300,5.299913330078125,-0.03329375013709068,-0.00827283225953579,0.02200029231607914
1783244100471924200,5.30992431640625,-0.027091410011053085,0.022515984252095222,0.008499300107359886
1783244100481936100,5.31993603515625,-0.024442099034786224,0.046589095145463943,-0.014982590451836586
1783244100491947300,5.329947265625,-0.023480907082557678,0.05440792441368103,-0.038006480783224106
1783244100501958400,5.33995849609375,-0.016435248777270317,0.045519620180130005,-0.054735925048589706
1783244100511970300,5.34997021484375,-0.0048731351271271706,0.02437438815832138,-0.062315814197063446
1783244100521981200,5.359981201171875,0.009693557396531105,0.0027295465115457773,-0.057131703943014145
1783244100531993000,5.3699931640625,0.015414239838719368,-0.011167890392243862,-0.044486962258815765
1783244100542004200,5.380004150390625,0.017069660127162933,-0.010138312354683876,-0.02682114951312542
1783244100552015400,5.390015380859375,0.014546634629368782,0.0017801997018978,-0.013607131317257881
1783244100562027300,5.40002734375,0.011883207596838474,0.010833615437150002,-0.0038836640305817127
1783244100572038100,5.4100380859375,0.008958417922258377,0.013296905905008316,0.003012697212398052
1783244100582050300,5.42005029296875,0.007028691470623016,0.009081121534109116,0.00628066249191761
1783244100592061200,5.430061279296875,0.01013308484107256,0.0023629639763385057,0.006837849039584398
1783244100602072300,5.440072265625,0.012748842127621174,-0.006435321178287268,0.00046783406287431717
1783244100612084200,5.450084228515625,0.017334802076220512,-0.0032136021181941032,-0.0118950717151165
1783244100622095400,5.460095458984375,0.013837273232638836,0.002367052249610424,-0.01881982386112213
1783244100632107300,5.470107177734375,0.012542447075247765,0.007285550702363253,-0.020582590252161026
1783244100642118100,5.4801181640625,0.013041789643466473,0.00505675096064806,-0.02017991989850998
1783244100652129300,5.49012939453125,0.009690359234809875,-0.0028257882222533226,-0.010491754859685898
1783244100662141400,5.500141357421875,0.011170278303325176,-0.00487003056332469,0.0016938052140176296
1783244100672152300,5.51015234375,0.011819505132734776,0.005561554804444313,0.011881504207849503
1783244100682164200,5.520164306640625,0.016524244099855423,-0.008915655314922333,0.025027666240930557
1783244100692175000,5.530175048828125,0.02087419666349888,-0.04065392166376114,0.03681754693388939
1783244100702187300,5.540187255859375,0.015510058961808681,-0.044793806970119476,0.03322680667042732
1783244100712198100,5.5501982421875,-0.007604421116411686,-0.00904807448387146,0.01780027523636818
1783244100722209300,5.560209228515625,-0.030625317245721817,0.03149428963661194,-0.0017396027687937021
1783244100732221400,5.570221435546875,-0.05270170047879219,0.05451984703540802,-0.0056189242750406265
1783244100742232300,5.580232421875,-0.05263405665755272,0.05367935448884964,0.009450572542846203
1783244100752244200,5.590244140625,-0.030178653076291084,0.01927797682583332,0.02653219923377037
1783244100762255000,5.600255126953125,-0.006670930422842503,-0.006662009283900261,0.03662398084998131
1783244100772266200,5.610266357421875,0.004396740347146988,-0.002302472712472081,0.03927585855126381
1783244100782278400,5.6202783203125,0.014935933984816074,-0.0004891261924058199,0.03472265228629112
1783244100792289300,5.630289306640625,0.010373461060225964,-0.008580757305026054,0.03359367325901985
1783244100802301200,5.64030126953125,-0.007239621598273516,-0.012815449386835098,0.03563738241791725
1783244100812312300,5.650312255859375,-0.023147055879235268,-0.0026970994658768177,0.026371555402874947
1783244100822323200,5.6603232421875,-0.04200969263911247,0.00009735557250678539,0.009759821929037571
1783244100832335400,5.67033544921875,-0.05677356570959091,-0.019592469558119774,-0.01268599834293127
1783244100842346200,5.68034619140625,-0.061007726937532425,-0.053848445415496826,-0.03967127948999405
1783244100852358400,5.6903583984375,-0.05155770853161812,-0.07417236268520355,-0.07097572833299637
1783244100862369300,5.700369384765625,-0.03441441059112549,-0.08308809250593185,-0.09270339459180832
1783244100872380200,5.710380126953125,-0.02442025952041149,-0.055977415293455124,-0.08892045170068741
1783244100882392000,5.72039208984375,-0.01772294193506241,-0.028177745640277863,-0.05916256457567215
1783244100892403500,5.730403564453125,-0.01724191941320896,-0.011736477725207806,-0.018285507336258888
1783244100902415400,5.740415283203125,-0.02607429400086403,0.00012843706645071507,0.02413172274827957
1783244100912426200,5.75042626953125,-0.03616352006793022,0.0023268829099833965,0.0604376420378685
1783244100922438100,5.760438232421875,-0.039193134754896164,0.009541652165353298,0.07488742470741272
1783244100932449300,5.77044921875,-0.029895450919866562,0.02136342041194439,0.07154003530740738
1783244100942460400,5.78046044921875,-0.006511831656098366,0.03275376185774803,0.05023688077926636
1783244100952472300,5.790472412109375,0.00869913212954998,0.038772642612457275,0.02534053660929203
1783244100962483200,5.800483154296875,0.022397365421056747,0.06571797281503677,-0.006681045051664114
1783244100972495400,5.810495361328125,0.018654560670256615,0.06583622097969055,-0.022363068535923958
1783244100982506200,5.82050634765625,0.003004760481417179,0.05103596672415733,-0.012436934746801853
1783244100992517000,5.83051708984375,0.010176173411309719,0.031109802424907684,0.004004573915153742
1783244101002529000,5.840529052734375,0.033046334981918335,0.011934777721762657,0.011219343170523643
1783244101012540400,5.85054052734375,0.04920320212841034,-0.007931533269584179,0.012940282933413982
1783244101022552300,5.86055224609375,0.05607042834162712,-0.026588307693600655,0.011105365119874477
1783244101032563200,5.870563232421875,0.05110746994614601,-0.032806407660245895,0.01704329438507557
1783244101042574000,5.880573974609375,0.03841777518391609,-0.03165405988693237,0.028650950640439987
1783244101052586200,5.890586181640625,0.02095174975693226,-0.027578024193644524,0.044623736292123795
1783244101062597400,5.900597412109375,0.007320360280573368,-0.021587776020169258,0.045471686869859695
1783244101072609300,5.910609375,-0.005379881709814072,0.005281188525259495,0.03707197308540344
1783244101082620200,5.9206201171875,-0.016243981197476387,0.020766405388712883,0.02080564945936203
1783244101092631300,5.93063134765625,-0.026330916211009026,0.01285581849515438,0.016617776826024055
1783244101102643200,5.940643310546875,-0.025166582316160202,0.0009733263868838549,0.020386947318911552
1783244101112654300,5.950654296875,-0.020956072956323624,-0.0004312817472964525,0.02344367653131485
1783244101122666200,5.960666259765625,-0.012828104197978973,0.006646068766713142,0.026501784101128578
1783244101132677400,5.970677490234375,-0.008930995129048824,0.013994398526847363,0.02461989037692547
1783244101142689300,5.980689208984375,-0.011886305175721645,0.016027187928557396,0.016948387026786804
1783244101152700200,5.9907001953125,-0.015119967982172966,0.017426736652851105,0.005191376898437738
1783244101162711000,6.0007109375,-0.01658257469534874,0.012663939036428928,-0.007230405230075121
1783244101172723200,6.01072314453125,-0.01685219444334507,0.005775271914899349,-0.011608002707362175
1783244101182734300,6.020734375,-0.01860002614557743,0.005625070072710514,-0.0056973835453391075
1783244101192746200,6.030746337890625,-0.020101197063922882,0.01132124848663807,0.003015898633748293
1783244101202757400,6.04075732421875,-0.018142975866794586,0.02238748036324978,0.01375376433134079
1783244101212768300,6.050768310546875,-0.01418077852576971,0.029780300334095955,0.023998746648430824
1783244101222780200,6.0607802734375,0.0020892706234008074,0.029434356838464737,0.030099516734480858
1783244101232791300,6.070791259765625,0.022595345973968506,0.03372935578227043,0.027650196105241776
1783244101242803500,6.080803466796875,0.04234641417860985,0.032609496265649796,0.015623892657458782
1783244101252814300,6.090814453125,0.057848621159791946,0.01767856255173683,0.0021614106371998787
1783244101262825200,6.1008251953125,0.06298905611038208,0.009695470333099365,-0.012974398210644722
1783244101272837000,6.110837158203125,0.05979432538151741,0.01274031214416027,-0.019335374236106873
1783244101282848300,6.12084814453125,0.04566945508122444,0.015322779305279255,-0.02208402380347252
1783244101292860200,6.130860107421875,0.026148803532123566,0.02470489591360092,-0.019178567454218864
1783244101302871300,6.140871337890625,0.003515128744766116,0.03558950126171112,-0.007710462436079979
1783244101312882200,6.150882080078125,-0.0024210053961724043,0.03925182670354843,0.004294492769986391
1783244101322894300,6.160894287109375,-0.00011364254169166088,0.03748668357729912,0.014031542465090752
1783244101332905200,6.1709052734375,-0.0018002751749008894,0.027000611647963524,0.02599264308810234
1783244101342917000,6.180917236328125,0.000938786193728447,0.008698571473360062,0.03556990250945091
1783244101352928300,6.19092822265625,0.0065392544493079185,0.0030466080643236637,0.034903474152088165
1783244101362939400,6.200939453125,0.004806868266314268,0.011210261844098568,0.025767764076590538
1783244101372951300,6.210951416015625,0.0058890171349048615,0.018481021746993065,0.010850224643945694
1783244101382962200,6.220962158203125,0.008745790459215641,0.022334882989525795,-0.004072798416018486
1783244101392974300,6.230974365234375,0.006845091003924608,0.009506313130259514,-0.01027768850326538
1783244101402985200,6.240985107421875,0.0037217356730252504,-0.008047114126384258,-0.00010894006118178368
1783244101412997000,6.2509970703125,0.0023120723199099302,-0.01963767036795616,0.01367136463522911
1783244101423008300,6.26100830078125,0.0015104608610272408,-0.018793180584907532,0.03052331507205963
1783244101433019100,6.27101904296875,-0.0006993217393755913,-0.008677378296852112,0.03956863284111023
1783244101443031300,6.28103125,-0.0025153313763439655,0.001001348253339529,0.039425354450941086
1783244101453042200,6.291042236328125,-0.0003002763260155916,0.00153400469571352,0.034668851643800735
1783244101463054000,6.30105419921875,0.008415451273322105,0.0011417210334911942,0.023784246295690536
1783244101473065500,6.3110654296875,0.01445038802921772,-0.0006509926170110703,0.01237451285123825
1783244101483076900,6.321076904296875,0.011470576748251915,-0.003961568232625723,0.011699400842189789
1783244101493089000,6.331089111328125,0.002649282570928335,-0.002333055716007948,0.023586520925164223
1783244101503100000,6.341099853515625,-0.004428068175911903,0.007236214820295572,0.04036416858434677
1783244101513111800,6.35111181640625,-0.007741414941847324,0.019272327423095703,0.052611637860536575
1783244101523122700,6.361122802734375,-0.0037248353473842144,0.0247214213013649,0.059897515922784805
1783244101533134000,6.371134033203125,0.0072616636753082275,0.016972869634628296,0.05568501725792885
1783244101543146000,6.38114599609375,0.02189600095152855,0.010125882923603058,0.04191620647907257
1783244101553156900,6.391156982421875,0.025037996470928192,0.005176879465579987,0.025199025869369507
1783244101563169000,6.4011689453125,0.021020352840423584,-0.0071849818341434,0.012111719697713852
1783244101573180000,6.411179931640625,0.012514215894043446,-0.027388203889131546,0.010040301829576492
1783244101583191000,6.42119091796875,0.009346919134259224,-0.0346546396613121,0.01225392147898674
1783244101593203000,6.431202880859375,0.0052939048036932945,-0.02922242321074009,0.01821165345609188
1783244101603213800,6.4412138671875,0.00794614665210247,-0.012987527996301651,0.025164633989334106
1783244101613226000,6.45122607421875,0.011557077057659626,0.012607807293534279,0.023292187601327896
1783244101623236900,6.46123681640625,0.012482792139053345,0.041469551622867584,0.009783037938177586
1783244101633247700,6.471247802734375,0.006407800130546093,0.06076870113611221,-0.013686800375580788
1783244101643260000,6.481260009765625,-0.0007566357962787151,0.07083384692668915,-0.03574230149388313
1783244101653271000,6.49127099609375,-0.002827881835401058,0.058039020746946335,-0.04222965985536575
1783244101663283000,6.501282958984375,0.005186635069549084,0.02775035798549652,-0.03363005071878433
1783244101673293800,6.5112939453125,0.02016819454729557,-0.010996646247804165,-0.01785210147500038
1783244101683306000,6.521305908203125,0.02997874654829502,-0.0368756465613842,-0.004934172611683607
1783244101693316900,6.53131689453125,0.03581101447343826,-0.04247201234102249,0.009867198765277863
1783244101703328000,6.541327880859375,0.032822951674461365,-0.03464870899915695,0.023487936705350876
1783244101713340000,6.55133984375,0.027863023802638054,-0.028467169031500816,0.037003275007009506
1783244101723351000,6.56135107421875,0.02120938152074814,-0.024475622922182083,0.04527105763554573
1783244101733363000,6.571363037109375,0.011050224304199219,-0.025482317432761192,0.04841729998588562
1783244101743373800,6.581373779296875,-0.002967323875054717,-0.023465504869818687,0.034796565771102905
1783244101753384700,6.591384765625,-0.0124904690310359,-0.01821015030145645,0.013660604134202003
1783244101763396900,6.60139697265625,-0.026262739673256874,-0.014623671770095825,-0.0011548278853297234
1783244101773408000,6.611407958984375,-0.03401642665266991,-0.025893110781908035,0.0027780188247561455
1783244101783420000,6.621419921875,-0.03223983198404312,-0.04259325936436653,0.023145075887441635
1783244101793430800,6.6314306640625,-0.02531161904335022,-0.052917130291461945,0.05054687708616257
1783244101803442000,6.64144189453125,-0.018954120576381683,-0.04627387225627899,0.07140795141458511
1783244101813453800,6.651453857421875,-0.016163822263479233,-0.02498546987771988,0.07082543522119522
1783244101823465000,6.66146484375,-0.011801032349467278,0.0013888783287256956,0.04766472056508064
1783244101833476900,6.671476806640625,-0.012233050540089607,0.01377151906490326,0.015923094004392624
1783244101843488000,6.681488037109375,-0.006979432888329029,0.00322247133590281,-0.004676455166190863
1783244101853499000,6.691498779296875,0.0029884076211601496,-0.014659607782959938,-0.023256706073880196
1783244101863510800,6.7015107421875,0.011066840030252934,-0.024685610085725784,-0.03623189404606819
1783244101873522000,6.71152197265625,0.012578984722495079,-0.023304250091314316,-0.05018021538853645
1783244101883534000,6.7215341796875,-0.0019243238493800163,-0.012188214808702469,-0.06451361626386642
1783244101893545000,6.731544921875,-0.02459980919957161,0.005897260271012783,-0.04552846401929855
1783244101903555800,6.741555908203125,-0.02376863732933998,0.015398886054754257,0.0483090803027153
1783244101913567700,6.751567626953125,0.048234984278678894,0.06357946246862411,0.1832202970981598
1783244101923579000,6.761578857421875,0.11782364547252655,0.19196540117263794,0.19584687054157257
1783244101933590800,6.7715908203125,0.09383612871170044,0.24165894091129303,0.15241995453834534
1783244101943602000,6.781601806640625,0.014414539560675621,0.20215733349323273,0.09041303396224976
1783244101953612800,6.79161279296875,-0.023128200322389603,0.12103397399187088,0.02407144382596016
1783244101963625000,6.801625,-0.018338238820433617,0.016589589416980743,-0.0344025157392025
1783244101973635800,6.8116357421875,-0.013048510998487473,-0.09296086430549622,-0.0860634595155716
1783244101983647700,6.821647705078125,-0.030397940427064896,-0.1783098429441452,-0.12394000589847565
1783244101993659000,6.831658935546875,-0.05816703662276268,-0.22626207768917084,-0.11459708213806152
1783244102003671000,6.841671142578125,-0.06709874421358109,-0.233739972114563,-0.02953384630382061
