time,seconds_elapsed,z,y,x
1783244203380252000,0.065251953125,0.34647125845849513,-0.12723638685941696,-0.07530855815820396
1783244203390262800,0.0752626953125,0.22910393918454647,-0.19696298016682265,0.05997669512219727
1783244203400274700,0.085274658203125,0.22146716069579123,-0.16319894999191165,0.24397454138435423
1783244203410285800,0.095285888671875,0.17821020277142524,-0.09235387404859065,0.4262017977774143
1783244203420297000,0.105296875,0.07890870154201984,-0.09575549918562173,0.4824746699456125
1783244203430308900,0.115308837890625,-0.04217091625332832,-0.09292743615284561,0.474527948724851
1783244203440319700,0.12531982421875,-0.10484510683119297,-0.04015519251674413,0.410598716584593
1783244203450330600,0.13533056640625,-0.17511165223419664,0.010840250705182552,0.2515373047888279
1783244203460342800,0.1453427734375,-0.19177403322160244,0.10331482852399348,0.1706820722889155
1783244203470354000,0.15535400390625,-0.15009937605261803,0.1062447444960475,0.05939136951491236
1783244203480364800,0.16536474609375,-0.0024397943675518036,0.08279197271615266,-0.10175028262101113
1783244203490375700,0.175375732421875,0.17216098573505878,0.10855945117920636,-0.2313023990768939
1783244203500387800,0.185387939453125,0.242883458212018,0.09289207257851957,-0.3718045102227479
1783244203510399000,0.19539892578125,0.3008674451470375,0.07164134088754653,-0.4541596989568323
1783244203520409900,0.205409912109375,0.37894437204003334,0.08683233414813876,-0.3689553313367069
1783244203530420700,0.215420654296875,0.4034183035612106,0.09349486077725887,-0.24878077262230217
1783244203540432600,0.2254326171875,0.2855903810381889,0.07250248776152729,-0.15615107730701563
1783244203550443800,0.23544384765625,0.17158698523938654,0.027802345291525123,-0.1565308704048395
1783244203560455000,0.245454833984375,0.08149462638199328,0.0257728852905333,-0.17668927681446076
1783244203570466800,0.255466796875,0.03461480178534984,0.019568916083872318,-0.146124188811332
1783244203580477400,0.2654775390625,0.03836977040469646,0.014880027615278959,-0.05595818019583821
1783244203590488300,0.27548828125,0.11007891583144665,0.028259587539732456,-0.019162892566248774
1783244203600500500,0.28550048828125,0.18828209945261476,0.06999415820240974,-0.019884192578122017
1783244203610511600,0.29551171875,0.2927063505232334,0.0692499157063663,-0.0665712710816413
1783244203620522500,0.3055224609375,0.28206279143393037,-0.021446984915435313,-0.12851751271113754
1783244203630533400,0.315533447265625,0.27887013287246226,-0.13620835947468876,-0.21349837377369402
1783244203640545300,0.325545166015625,0.07814940760731696,-0.045750528305768964,-0.10263546795770526
1783244203650556700,0.335556640625,-0.08171382209062576,-0.002106324629485607,-0.053663493387401104
1783244203660567600,0.345567626953125,-0.0828887110888958,-0.04038417896702885,-0.07025865435749291
1783244203670579500,0.355579345703125,-0.06005260990262031,-0.04754091885387897,-0.0023170447707176207
1783244203680590300,0.36559033203125,-0.1628577353388071,-0.10795929332897067,0.05074190685227513
1783244203690601500,0.3756015625,-0.2261731464296579,-0.1395779820382595,0.018875526992231606
1783244203700612600,0.385612548828125,-0.2624450677722692,-0.10393120685666798,-0.02228928095847368
1783244203710624500,0.39562451171875,-0.30694355019032954,-0.10747677050903438,-0.023520137927681206
1783244203720635400,0.405635498046875,-0.3331289618045091,-0.15231632144972682,-0.03557677868530154
1783244203730646300,0.415646240234375,-0.2876829694032669,-0.1478834535688162,-0.08589271521046757
1783244203740658400,0.425658447265625,-0.20423545538783072,-0.11623436972126364,-0.10534735726490616
1783244203750669600,0.435669677734375,-0.09261924698650836,-0.01287745562121272,-0.07826835781186818
1783244203760680400,0.445680419921875,0.03098375180661678,0.06872647635415197,0.02054857477098703
1783244203770691300,0.45569140625,0.12728840930759905,0.011594283942878246,0.08364362110942601
1783244203780703500,0.465703369140625,0.17747838136553765,-0.03754252580031752,0.07940013832077383
1783244203790714600,0.475714599609375,0.14933832855224607,-0.05410203093513846,0.013752192629128693
1783244203800725500,0.4857255859375,0.10533201356530189,-0.06863003024235367,-0.06113631348609924
1783244203810737400,0.4957373046875,0.08540273973643779,-0.0524577708594501,-0.11871873388290405
1783244203820748500,0.50574853515625,0.08943477173149585,-0.033980887795984745,-0.10031900770887732
1783244203830759400,0.515759521484375,0.0916290669053793,-0.02053337720185518,-0.04081599451303482
1783244203840770600,0.5257705078125,0.06336158832013607,0.003049450698494911,-0.034368279678374525
1783244203850782500,0.535782470703125,0.031413959917426106,-0.020177111110091208,-0.05312500259652733
1783244203860793600,0.545793701171875,0.041756490233540534,-0.05289133997112512,-0.03112827484384179
1783244203870804500,0.555804443359375,0.13550561803281305,-0.06314429230764508,0.011561550717055797
1783244203880816400,0.56581640625,0.19933131673336027,-0.09027589873075485,0.017963818974792958
1783244203890827500,0.57582763671875,0.14052432297766207,-0.07377353061065077,0.04978606743216514
1783244203900838400,0.58583837890625,0.12436813794672488,-0.03851283213719725,0.11884309091493486
1783244203910849500,0.595849609375,0.09579495441317558,-0.021621464699506758,0.1411313489601016
1783244203920861400,0.605861328125,0.04415069189369678,-0.03719078975319862,0.11231018201485275
1783244203930872300,0.615872314453125,0.025500351959466934,-0.015171704038232564,0.048891602810472244
1783244203940883500,0.625883544921875,-0.011638999867439269,0.00406315778568387,-0.05039645441547036
1783244203950895600,0.6358955078125,-0.07281739892959595,0.019247136783599853,-0.07826397389769554
1783244203960906500,0.645906494140625,-0.22791619070470331,0.029732582701742647,-0.08277312188521027
1783244203970917400,0.65591748046875,-0.3629191199123859,-0.018872750513255595,-0.1074734095081687
1783244203980928500,0.665928466796875,-0.3741793495953083,-0.03428323174342513,-0.12458265748023986
1783244203990940700,0.675940673828125,-0.2907277439266443,0.015485300032049417,-0.07526625338643789
1783244204000951600,0.68595166015625,-0.2268839250475168,0.06031973640620708,-0.030639468413591383
1783244204010962400,0.69596240234375,-0.23318507101833819,0.01430222772732377,-0.023567776461690663
1783244204020974300,0.705974365234375,-0.28540158046782016,-0.006101531745493411,0.01090747072249651
1783244204030985500,0.7159853515625,-0.20742109968662262,-0.028540888699144125,0.027106471981853245
1783244204040996600,0.72599658203125,-0.06538578762412071,-0.03241626882776618,0.0172734986230731
1783244204051007500,0.736007568359375,-0.02242225968837738,0.02647124281823635,0.05894435639977455
1783244204061019400,0.746019287109375,-0.046239773127436636,0.0712144937776029,0.09583192542269825
1783244204071030300,0.7560302734375,-0.03948386912643909,0.026029490400105715,0.06379354999661445
1783244204081041700,0.766041748046875,-0.010289338824152946,-0.02713511355444789,0.03483808914721012
1783244204091053600,0.776053466796875,-0.07663432686924934,-0.09103490040451288,0.04679492279216647
1783244204101064400,0.786064453125,-0.13030278869271278,-0.10529372738152742,0.10079963083267211
1783244204111075300,0.796075439453125,-0.0773895291507244,-0.03341156347543001,0.1335223352611065
1783244204121086500,0.80608642578125,-0.09555646948218345,0.04958104637935758,0.11450608462393283
1783244204131098600,0.8160986328125,-0.13445932385027407,0.07122618421539664,0.06602174744009971
1783244204141109500,0.826109619140625,-0.11235387502610683,0.027475889816135166,-0.02960793340876698
1783244204151120400,0.836120361328125,-0.07453355519771576,-0.04066080395132303,-0.05925634495839476
1783244204161132500,0.846132568359375,-0.04962707747817039,-0.05067658653110266,-0.011753420027345418
1783244204171143400,0.856143310546875,0.06107084703445434,-0.018367577470093963,-0.003592325403541326
1783244204181154600,0.866154541015625,0.048269817650318146,-0.003079991967231035,-0.0474972258426249
1783244204191165400,0.87616552734375,-0.007274374917149543,-0.031098025836050508,-0.04770210076496005
1783244204201177300,0.88617724609375,0.011978022563457489,-0.04215162703096866,-0.02702434665635228
1783244204211188500,0.8961884765625,0.06850245833992957,-0.005916238306462765,-0.019183423897624015
1783244204221199600,0.90619970703125,0.09710311440229415,0.03607026129066944,-0.0030690321817994116
1783244204231211500,0.91621142578125,0.10415712456703186,0.05105681802034378,-0.03657908759564161
1783244204241222400,0.926222412109375,0.05269932453036308,0.020007307501137255,-0.04300020668432116
1783244204251233500,0.936233642578125,0.00341243879199028,-0.03840951789319515,-0.0366634048782289
1783244204261245400,0.946245361328125,-0.020422610303759574,-0.06763678142130375,-0.015587152971327303
1783244204271256300,0.95625634765625,-0.09738602299690247,-0.010901479373127222,-0.0045760757438838475
1783244204281267500,0.966267333984375,-0.1769920591533184,0.021959172221273183,-0.04001695308983326
1783244204291278300,0.9762783203125,-0.16547931601405141,0.010891542501002549,-0.048438013824075456
1783244204301290500,0.98629052734375,-0.13609949227273463,0.027909166666865347,-0.051917672633379694
1783244204311301400,0.99630126953125,-0.1315226858764887,-0.013622428769618273,-0.018216478561609982
1783244204321312500,1.0063125,-0.16462766762077807,-0.05869798042327165,-0.0450952792674303
1783244204331324700,1.01632470703125,-0.16135434503853321,-0.06824307675138115,-0.05511383832618594
1783244204341335600,1.02633544921875,-0.1123643964201212,0.006067775606364011,-0.02221811541840434
1783244204351346400,1.036346435546875,-0.03398702527582645,0.06030147009715438,0.023613515299558636
1783244204361357600,1.046357666015625,0.004881342300772667,0.06079772918149828,0.03599997253343463
1783244204371369500,1.056369384765625,-0.014063596665859221,0.02803717696070671,0.015520663606375456
1783244204381380600,1.066380615234375,-0.04128828819990158,0.004360241036117076,-0.02706979323327541
1783244204391391500,1.0763916015625,-0.0087140523314476,0.015605565410852432,-0.06997516124099493
1783244204401403400,1.0864033203125,0.029531799432635307,0.021695698979496955,-0.08721095820218325
1783244204411414300,1.096414306640625,0.04052607165575027,0.06511544625014067,-0.06867489229738712
1783244204421425700,1.10642578125,0.10021160181164741,0.05148761065304279,-0.051384880930930375
1783244204431436500,1.1164365234375,0.10543781202733517,0.056191988951712846,-0.06170476102381944
1783244204441448400,1.126448486328125,0.10392390033304691,0.08551409115642308,-0.024771745423972605
1783244204451459300,1.136459228515625,0.04825286651551723,0.09828823253363371,-0.0019178163200616835
1783244204461470500,1.146470458984375,-0.03194762840270996,0.09028583560287952,0.005847703114897012
1783244204471482600,1.156482666015625,-0.09154080410003662,0.03899637787044048,0.002081482449173927
1783244204481493500,1.166493408203125,-0.05629121154248714,0.02707929171398282,-0.000384030881524086
1783244204491504400,1.17650439453125,-0.052639118775725365,0.032966596186906096,-0.012129413732886314
1783244204501515300,1.186515380859375,0.01157704054713249,0.051653761000186205,0.0010417641378939152
1783244204511527400,1.19652734375,0.06153203480541706,0.05349646625742316,-0.002837707643955946
1783244204521538600,1.20653857421875,0.05412497341930866,0.05327537085264921,0.017069792744517327
1783244204531549400,1.216549560546875,0.03445522730946541,-0.00023775427863001821,0.006529547899216413
1783244204541561300,1.226561279296875,0.01635901412665844,0.003621697628498077,-0.02565554252117872
1783244204551572500,1.236572509765625,-0.029130232894420623,0.07666282231137156,-0.008852584019303321
1783244204561583600,1.24658349609375,-0.049176411101222034,0.12194807119295001,0.021057254945486784
1783244204571594500,1.256594482421875,-0.05176467402875423,0.09691504448428749,-0.0031673779897391794
1783244204581606700,1.266606689453125,-0.11199965476095676,0.07845993486121297,-0.06978489936590195
1783244204591617500,1.276617431640625,-0.14736615169644354,0.07593158542737365,-0.11974573884308337
1783244204601628400,1.28662841796875,-0.14179799617528915,0.08811331386938691,-0.13287483113780618
1783244204611640600,1.296640625,-0.18263094182312486,0.10419804109930991,-0.11339271655455231
1783244204621651700,1.306651611328125,-0.19786825844347475,0.11187105994522571,-0.04585851872488856
1783244204631662600,1.31666259765625,-0.1910129857212305,0.0971953227303922,-0.02586845461949706
1783244204641673500,1.326673583984375,-0.16797113282978535,0.04194017623737454,-0.03180558958351612
1783244204651685400,1.336685302734375,-0.09741232648193836,0.0008776596173644065,-0.04793254851996898
1783244204661696800,1.34669677734375,-0.03799450735151767,0.04290332218110561,-0.02520721423178911
1783244204671707600,1.356707763671875,-0.05669043999314308,0.08724895212501287,0.02966711625009775
1783244204681719600,1.366719482421875,-0.03549918340444565,0.08171031495928764,0.07644523403793572
1783244204691730400,1.37673046875,-0.04215513416230678,0.05858955161273479,0.06113996674790978
1783244204701741600,1.386741455078125,-0.06052957976460457,0.03390811482071876,0.04565101345404982
1783244204711752700,1.396752685546875,-0.13798574441075323,-0.020608342134207487,-0.006468319231271743
1783244204721764600,1.4067646484375,-0.11176116982996463,-0.011264905858039855,0.017911942657083273
1783244204731775500,1.416775390625,-0.031282442492246626,0.04854045128524303,0.06707417910248041
1783244204741786400,1.426786376953125,-0.040244916626811025,0.12358458635360002,0.11651245601028204
1783244204751798500,1.436798583984375,-0.08799977049231529,0.10603826213851571,0.10311638334244488
1783244204761809700,1.4468095703125,-0.11175298652350901,0.06044716217815876,0.07472396320328116
1783244204771820500,1.456820556640625,-0.07302548872232437,0.04651815167739987,0.055543169654160736
1783244204781832400,1.46683251953125,-0.06766834560334682,0.05589622087553143,0.01602466760575771
1783244204791843600,1.476843505859375,-0.10835340721309185,0.06174012459814548,0.012411737805604934
1783244204801854700,1.486854736328125,-0.05478139150142669,0.06976181075125933,0.009869067585468292
1783244204811865600,1.496865478515625,-0.05197393286526203,0.09972995577454566,0.029748072531819342
1783244204821877500,1.50687744140625,-0.05270400070548057,0.14589914788380265,0.003037906391173601
1783244204831888400,1.516888427734375,-0.07313245622813701,0.15854688640236853,-0.02941869444698095
1783244204841899500,1.5268994140625,-0.049368718802928924,0.1360425013884902,-0.07038403430283069
1783244204851911400,1.536911376953125,-0.004315525111556053,0.09346227368190885,-0.08082388751357793
1783244204861922600,1.546922607421875,0.035572248640656466,0.07627674560323357,-0.08745470383018254
1783244204871933400,1.556933349609375,0.12255378200113773,0.09608107787817716,-0.09600655133724212
1783244204881944600,1.566944580078125,0.17978548926413057,0.15588672728240488,-0.06708572340980172
1783244204891956500,1.57695654296875,0.14168985962569713,0.1753717644751072,-0.038457156427204604
1783244204901967600,1.586967529296875,0.08638882816433906,0.1307053781442344,-0.0283382057338953
1783244204911978500,1.596978515625,0.01948386814892292,0.038491350957751275,-0.047418607648462056
1783244204921990700,1.60699072265625,-0.008366261807084083,-0.0124175830245018,-0.024427462030947207
1783244204932001500,1.61700146484375,-0.044885435909032816,0.0241620890930295,0.030275895798206328
1783244204942012700,1.6270126953125,-0.09149404234886169,0.06601546382978558,0.07146335397213698
1783244204952023600,1.6370234375,-0.1637035385131836,0.08899535740092396,0.05773658804520964
1783244204962035700,1.64703564453125,-0.21306173592209815,0.08145312532782555,0.004244797962903976
1783244204972046600,1.657046630859375,-0.2059270617365837,0.11608064046427607,-0.026683862655609843
1783244204982057500,1.667057373046875,-0.27509704407453534,0.07457607916519045,-0.07324936060607433
1783244204992069400,1.6770693359375,-0.25379180571734905,0.05423617870882153,-0.0776898272715509
1783244205002080500,1.68708056640625,-0.1218231296390295,0.1083477081246674,-0.007437164263427257
1783244205012091600,1.697091552734375,-0.015454758763313292,0.13247764851376415,0.015483108074963092
1783244205022102500,1.7071025390625,0.015576923838257789,0.08313888645768165,-0.038211803364008666
1783244205032114400,1.717114501953125,0.09575345335900783,0.009010697190463542,-0.06827113380208612
1783244205042125600,1.72712548828125,0.22373627467155455,-0.03581175648495555,-0.06814458481296896
1783244205052136700,1.73713671875,0.3076777096837759,0.0038796179123222825,-0.02096913827061653
1783244205062148600,1.747148681640625,0.25066636717319485,0.04801832710728049,0.049923868467658755
1783244205072159500,1.757159423828125,0.2472013214111328,0.06612228520512581,0.06777180597782134
1783244205082170400,1.76717041015625,0.25469664560258387,0.06692468762919307,0.05682531841918826
1783244205092181500,1.777181396484375,0.21270459304749964,0.03957461614981293,0.011700959187746046
1783244205102193700,1.787193603515625,0.10023673625290393,-0.017761866661906243,-0.01939341338649392
1783244205112204500,1.79720458984375,0.07296002227067946,-0.005799626189470291,0.009868336933106183
1783244205122215400,1.80721533203125,0.08778232834935187,0.19330738026872277,0.128631348349154
1783244205132227600,1.8172275390625,-0.4487532368034124,0.24191885096356272,0.1019930784009397
1783244205142238700,1.82723876953125,-0.6407499728649855,0.05780220062732696,-0.12967282022610305
1783244205152249600,1.83724951171875,-0.57097150323987,-0.11923866610378027,-0.2932670531459153
1783244205162260500,1.847260498046875,-0.3769827165782451,-0.061518006280064576,-0.27930077937468883
1783244205172272400,1.8572724609375,-0.18349018900096414,0.056471828806400295,-0.15407120229303836
1783244205182283500,1.867283447265625,-0.008216624203324318,0.09817030524238944,-0.11335092323943972
1783244205192294700,1.877294677734375,0.05310732080936432,0.055277942846715444,-0.1509638839274645
1783244205202306600,1.887306640625,0.03384907810986042,-0.015050415746122597,-0.17841902321651576
1783244205212317400,1.8973173828125,0.026249124500155447,-0.05853811368644237,-0.1393321905836463
1783244205222328600,1.90732861328125,0.1160457152813673,0.22443433993831274,0.027677403737604616
1783244205232340500,1.917340576171875,0.1652443382143974,0.3983678883038461,0.16521233564093707
1783244205242351600,1.9273515625,0.22194062342643736,0.15339870985895393,0.07785656214058399
1783244205252362500,1.937362548828125,0.015057868400216102,-0.05669146290645003,-0.11024930396229028
1783244205262373400,1.947373291015625,-0.14534429048001765,-0.17149799178168176,-0.31190146485865117
1783244205272385500,1.957385498046875,-0.09326748176217078,-0.2067506530791521,-0.267544436737895
1783244205282396700,1.967396728515625,0.0654033232808113,-0.10791793840527533,-0.014907500144094228
1783244205292407600,1.977407470703125,0.09345978946387767,-0.02323211476653814,0.12503800003230572
1783244205302419700,1.987419677734375,-0.03922492592930794,-0.015327332991361617,0.18115151692032813
1783244205312430600,1.9974306640625,-0.08682838862538338,-0.06159048699438571,0.16418416163697838
1783244205322441500,2.00744140625,-0.09318506417572497,-0.10331848178580402,0.12389482134655118
1783244205332452600,2.01745263671875,-0.18864216493666172,-0.11758490754738449,0.1254921735405922
1783244205342464500,2.027464599609375,-0.24730302821993827,-0.1834041181527078,0.08184840825572609
1783244205352475600,2.0374755859375,-0.32430560387969015,-0.252544143743813,0.03073503774255514
1783244205362486500,2.047486572265625,-0.29143618445694447,-0.2645300573527813,0.021922201211750505
1783244205372498400,2.05749853515625,-0.19857611445188522,-0.22290932232812047,0.07503770532757044
1783244205382509600,2.067509521484375,-0.0898246478319168,-0.14312237664684652,0.14744067823737858
1783244205392520700,2.077520751953125,0.013754969108104705,-0.10171367693766951,0.15274784473478792
1783244205402531600,2.087531494140625,0.08070435278713703,-0.13898425392881034,0.08510653326883912
1783244205412543500,2.09754345703125,0.11264379788339138,-0.1786480096668005,0.007999912712723016
1783244205422554400,2.107554443359375,0.16449088949859142,-0.17474647218361497,-0.03393675639331341
1783244205432565500,2.1175654296875,0.19351240132153033,-0.12205562322065233,-0.04021759022846818
1783244205442577700,2.12757763671875,0.14001929606497288,-0.05267009843587875,-0.035761633732914924
1783244205452588500,2.137588623046875,0.007353869894146919,-0.03246799901500344,-0.0591074380069971
1783244205462599400,2.147599365234375,-0.06802490395605564,-0.011607581815868616,-0.050937283293902874
1783244205472610600,2.157610595703125,-0.0514046085447073,0.012592647330462932,-0.0638296442233026
1783244205482622700,2.167622802734375,-0.036459552869200704,0.061600716127455234,-0.08308934822753071
1783244205492633600,2.177633544921875,-0.08897124587297439,0.06155336985439062,-0.17590704039558766
1783244205502644500,2.18764453125,-0.11747428677976131,0.0987162486873567,-0.20450112058669329
1783244205512656400,2.197656494140625,-0.059413142955303186,0.16519669968038797,-0.19242752869427204
1783244205522667500,2.20766748046875,-0.046773441612720484,0.17036401931568979,-0.20390403147637842
1783244205532678700,2.2176787109375,-0.14403379240334033,0.07611278721317648,-0.25809227939024565
1783244205542689500,2.227689453125,-0.2382517067581415,0.03823328454345464,-0.2768517787873745
1783244205552701400,2.237701416015625,-0.25982582518458364,0.10755977261736989,-0.23561858177557587
1783244205562712600,2.247712646484375,-0.2553051328897476,0.15894684550538657,-0.1679891068778932
1783244205572723700,2.2577236328125,-0.25626141070127484,0.12498963084593415,-0.20059286110177635
1783244205582735400,2.2677353515625,-0.19823416914641856,0.10827727323696017,-0.2605763512909412
1783244205592746200,2.277746337890625,-0.15501169801354409,0.09037760553956031,-0.252975959289819
1783244205602757000,2.287757080078125,-0.08928513412773609,0.10234043053388595,-0.22314430012777448
1783244205612769000,2.29776904296875,-0.043103228667378424,0.13084551726728677,-0.16274083096086978
1783244205622780200,2.3077802734375,0.028965982243418693,0.1473373639933765,-0.10203457945510744
1783244205632791300,2.317791259765625,0.10797814415991305,0.11977204232811928,-0.07237111646682023
1783244205642802200,2.32780224609375,0.15464578731060027,0.09681392219737171,-0.07315656775608659
1783244205652814000,2.33781396484375,0.17744798622727392,0.09593816227614879,-0.060273266915976995
1783244205662825200,2.3478251953125,0.200702605086565,0.09217983265593648,-0.04407002787292003
1783244205672836000,2.357836181640625,0.14559271228313445,0.05796440545171499,-0.033764030174911024
1783244205682848300,2.36784814453125,0.12903496071398257,0.0361624696187675,-0.04427987123131752
1783244205692859100,2.377859130859375,0.1325461837053299,0.024679537095874546,-0.0539348576746881
1783244205702870000,2.3878701171875,0.06789046392142772,0.00993818729892373,-0.06521613014563918
1783244205712881200,2.397881103515625,0.05461655632853508,-0.004923135615885257,-0.05017784322872758
1783244205722893300,2.407893310546875,0.05449614481925964,-0.018249357917904854,-0.016089403405040503
1783244205732904200,2.417904296875,0.031498715591430665,-0.0449339512258768,0.014111235199868679
1783244205742915000,2.4279150390625,-0.0380108739644289,-0.07063610936775803,0.04795125322043895
1783244205752927000,2.437927001953125,-0.0002034136176109314,-0.05845993388369679,0.08821560520008206
1783244205762938400,2.4479384765625,-0.050913610157370566,-0.05921031385958194,0.10661796172261237
1783244205772949200,2.45794921875,-0.14670973361432552,-0.06630757864415646,0.11739303823709488
1783244205782960000,2.467960205078125,-0.16355390090942382,-0.06779474846199154,0.10428645003512502
1783244205792972000,2.477971923828125,-0.19924130036234855,-0.029676322469860312,0.05916296758651733
1783244205802983200,2.487983154296875,-0.2175122855901718,-0.04209668197333812,-0.000026449615508317946
1783244205812994300,2.497994384765625,-0.1652706416994333,-0.03891629837155342,-0.013214140229672192
1783244205823006200,2.508006103515625,-0.10268179131746291,-0.06611775516048074,0.01018938558101654
1783244205833017000,2.51801708984375,-0.054717678615450856,-0.0808371853865683,0.02118409619554877
1783244205843028000,2.528028076171875,-0.03944119902849197,-0.06355827993601561,0.050422904030978676
1783244205853040000,2.5380400390625,-0.025955694511532783,-0.05100114231035113,0.03799479961246252
1783244205863051300,2.54805126953125,-0.013244681498408318,-0.042452948065102095,0.024606325729191303
1783244205873062100,2.558062255859375,-0.021431495085358618,-0.05086114931777119,0.029524639039486645
1783244205883073000,2.568072998046875,0.012812135300040245,-0.03352569137439131,0.020673224063962697
1783244205893085200,2.578085205078125,-0.004280453798174858,-0.06669292469993233,-0.007442132699489593
1783244205903096300,2.588096435546875,-0.06282441270351409,-0.07624065137654543,-0.006676555154472589
1783244205913107200,2.598107177734375,-0.07924129449725151,-0.07561229034513235,0.0022552315808832646
1783244205923119000,2.608119140625,-0.06559153932929039,-0.05379428016021848,0.0323522636808455
1783244205933130200,2.618130126953125,-0.03999298769235611,-0.021929361604899167,0.08351853342503308
1783244205943141000,2.62814111328125,0.008008534410595894,-0.03091360917985439,0.09258987476155162
1783244205953152300,2.63815234375,0.08978256225585937,-0.035979075875878334,0.0767069537140429
1783244205963164200,2.6481640625,0.06751812347769737,-0.061023939152806995,0.047686610934883356
1783244205973175300,2.65817529296875,0.05983049158453941,-0.05500847825556993,0.004531505949795246
1783244205983186200,2.668186279296875,0.06179974583089351,-0.032876433685421945,-0.021680501410365104
1783244205993198000,2.678197998046875,0.07229834349155426,0.006708265466988086,-0.036435002949833865
1783244206003209200,2.688209228515625,0.05572890148460865,0.011270166555047034,-0.05553600926101208
1783244206013220000,2.69822021484375,0.03688742289245128,0.03128857997208834,-0.05594692814946174
1783244206023231200,2.708231201171875,-0.01694412053823471,0.03148264123946428,-0.0661189242042601
1783244206033243100,2.7182431640625,-0.0673556263923645,0.025551205363869664,-0.07540142407342791
1783244206043254000,2.72825390625,-0.0742354490339756,0.0024409634113311766,-0.06305047654435038
1783244206053265200,2.73826513671875,-0.07424480138421058,0.02790507501363754,-0.05206278019249439
1783244206063277300,2.74827734375,-0.0364858563542366,0.04040770597308874,-0.04002367509156465
1783244206073288200,2.7582880859375,-0.014859130957722663,0.05324731380194425,-0.0889152779020369
1783244206083299000,2.768299072265625,-0.013457447466254234,0.019597849917411803,-0.10747399403005838
1783244206093310200,2.778310302734375,-0.02442775429189205,-0.025768647506833074,-0.11959770867452024
1783244206103322400,2.788322265625,-0.031036358776688575,-0.009514847320318221,-0.13578341206088662
1783244206113333200,2.798333251953125,-0.04637596672773361,0.015533669218420981,-0.1453857915341854
1783244206123344100,2.80834423828125,-0.05959726735055446,0.03602963701933622,-0.15127499570325015
1783244206133356000,2.81835595703125,-0.0150666362285614,0.04606178621202707,-0.11644099820926784
1783244206143367200,2.8283671875,0.03679565295577049,0.0317865926221013,-0.09080518330186604
1783244206153378300,2.83837841796875,0.06405190867185592,0.002836100208759308,-0.09201236713454126
1783244206163390200,2.84839013671875,0.07994155172109603,-0.003751753748953342,-0.09795447053462267
1783244206173401000,2.858401123046875,0.09528232871592045,-0.004669160854816437,-0.12497677136436104
1783244206183412000,2.868411865234375,0.0031388825476169582,-0.03041618105173111,-0.15300138110443948
1783244206193423400,2.87842333984375,-0.09804244107902049,-0.04138356526792049,-0.12584303280487655
1783244206203435300,2.888435302734375,-0.1429547649949789,-0.05101268661767244,-0.04904883919879794
1783244206213446100,2.898446044921875,-0.19493805021047592,-0.07319412328749894,-0.006652882017940283
1783244206223457000,2.90845703125,-0.23697803356051445,-0.06174012459814548,0.006554828470945358
1783244206233469200,2.91846923828125,-0.19192951604425906,-0.009973404742777347,0.03520370758920908
1783244206243480300,2.928480224609375,-0.1457394272774458,-0.010731237372756004,0.014152151732146739
1783244206253491200,2.9384912109375,-0.11458382603526114,-0.03150894472450018,-0.058914399652928114
1783244206263502000,2.948502197265625,-0.0811497584670782,-0.06549889260977507,-0.10974135444015264
1783244206273514200,2.95851416015625,-0.015920038187503812,-0.0483674328058958,-0.08563581783995032
1783244206283525000,2.968525146484375,0.051503392744064326,-0.004261749097704887,-0.03226794639825821
1783244206293536300,2.978536376953125,0.11416413931846618,0.016173136165738105,-0.01892024291679263
1783244206303548200,2.988548095703125,0.1515425605982542,0.013023732224106788,0.012359423096477985
1783244206313559300,2.998559326171875,0.1112269168227911,0.020615210266411305,-0.021354776587337254
1783244206323570200,3.008570068359375,0.07942775698006152,0.012481880432367323,-0.04192833966910839
1783244206333581300,3.018581298828125,0.029171149426698684,0.004712415474653244,-0.06058598612695932
1783244206343593200,3.02859326171875,-0.015390461355447768,-0.008154080361127853,-0.030507366466522214
1783244206353604000,3.03860400390625,-0.013999299257993697,-0.016801789458096027,0.019087416177242994
1783244206363615200,3.048615234375,-0.020893150424957273,0.0024237200155854226,0.06408434963673353
1783244206373627100,3.058627197265625,-0.022160393881797788,0.012440087117254733,0.06695522889792918
1783244206383638000,3.068637939453125,-0.01147299565076828,-0.01699555846452713,0.032493279586732385
1783244206393649200,3.078649169921875,0.0068920976012945175,0.01875321578681469,0.027593963237851855
1783244206403661300,3.088661376953125,-0.019212065470218656,0.03853577462136745,0.008385697159916161
1783244206413672200,3.098672119140625,-0.06408639546334743,-0.0034150691404938698,-0.010855594404786825
1783244206423683000,3.10868310546875,-0.1414507901728153,-0.04844400517344474,-0.08672638955563307
1783244206433694200,3.118694091796875,-0.19179390696585177,-0.05224485876113176,-0.0963419207714498
1783244206443706400,3.128706298828125,-0.19529811569452285,0.019153321020305154,-0.11852905652970075
1783244206453717200,3.13871728515625,-0.19142974982857702,0.05953443124741316,-0.09420549326464533
1783244206463728000,3.14872802734375,-0.14501871178746223,0.08014847247004508,-0.0912922361664474
1783244206473740000,3.158739990234375,-0.1390466516405344,0.06939794587492942,-0.11383870675638318
1783244206483751400,3.16875146484375,-0.132628016769886,0.048989071835577484,-0.13005553593337535
1783244206493762300,3.17876220703125,-0.09275076441168785,0.05472352383434772,-0.09153320531547068
1783244206503773200,3.188773193359375,-0.06558452506661415,0.06865501855313777,-0.028270255064219235
1783244206513785000,3.19878515625,-0.01743336535990238,0.05394435615539551,0.017402677960693835
1783244206523796000,3.2087958984375,0.016883330261707304,0.0515700282394886,0.008453501699119806
1783244206533807400,3.218807373046875,0.06491758559048176,0.01780249093323946,-0.030490707592666148
1783244206543819300,3.2288193359375,0.1629576885819435,-0.0014244798451662063,-0.06885638634413481
1783244206553830100,3.238830078125,0.19807634823620318,-0.009410217902064323,-0.044713732603937385
1783244206563841000,3.248841064453125,0.16420973446965217,-0.013241758888959884,-0.021593407648801802
1783244206573852200,3.25885205078125,0.07013444345593452,-0.012696984487771987,0.03191284935027361
1783244206583865000,3.268864990234375,0.00281856455206871,0.03488631220310926,0.07874415863007307
1783244206593876200,3.278876220703125,-0.07685118449032306,0.05978226852864027,0.10507950010895728
1783244206603887000,3.28888720703125,-0.1612719274520874,0.0655342561841011,0.06711816437467932
1783244206613899000,3.29889892578125,-0.12916998527050016,0.05446458063721656,0.04250570116564631
1783244206623910000,3.308909912109375,-0.07442074247300624,0.03199497467577457,0.01437500070258975
1783244206633921000,3.318921142578125,-0.027680034086108207,0.009179916277527808,-0.023574352332949636
1783244206643933200,3.32893310546875,0.0031248540222644804,-0.017508476422727105,-0.024178601836413145
1783244206653944000,3.338944091796875,0.0561883356899023,-0.039051030667126174,-0.02228650447949767
1783244206663955000,3.348954833984375,0.06886077025830745,-0.026612112593650816,0.025543314318358896
1783244206673966000,3.358966064453125,0.028071663752198217,0.008781272348761558,0.0357169178083539
1783244206683978000,3.36897802734375,-0.032177930027246476,0.045999242369830606,0.029203590391576287
1783244206693989000,3.378989013671875,-0.07798281886875628,0.0376928940564394,-0.0003577273964881897
1783244206704000000,3.389,-0.09073416389226913,0.0521188942939043,-0.037411446766555306
1783244206714012200,3.39901220703125,-0.09970131420195102,0.08324439265877008,-0.110505324549973
1783244206724023000,3.40902294921875,-0.08435176937878132,0.11086772812157869,-0.10880568102523684
1783244206734034200,3.4190341796875,-0.04336334090828895,0.09229775994718074,-0.10769567395672201
1783244206744045000,3.429045166015625,0.046672903847694396,0.063085693988204,-0.10971461256369948
1783244206754057200,3.43905712890625,0.10550035586953163,0.027047873662412163,-0.08708484760448336
1783244206764068000,3.449068115234375,0.08676584478318691,-0.019494974064826965,-0.08189940779060124
1783244206774079000,3.459078857421875,0.09042319824695587,-0.02126315278112888,-0.056672758205980056
1783244206784091000,3.4690908203125,0.06869418151974678,0.014953531242907046,-0.008053688726574183
1783244206794102000,3.47910205078125,0.01657587174773216,0.06377133816480636,-0.012878040143102407
1783244206804113200,3.489113037109375,-0.054552258920669554,0.038297289690375325,-0.05319178422242403
1783244206814125000,3.499125,-0.10915127959251403,-0.0037041152149438856,-0.08436229077279567
1783244206824136000,3.509135986328125,-0.17143559406995773,-0.01807604717761278,-0.12181918411627411
1783244206834147000,3.51914697265625,-0.19315701201260088,-0.03172521782368421,-0.11949965512752532
1783244206844158200,3.529158203125,-0.17316460981965065,-0.021926585125923156,-0.1059782025143504
1783244206854170000,3.539170166015625,-0.13629121545255182,0.00034019173979759216,-0.09804258720949291
1783244206864181000,3.549180908203125,-0.09490648114085197,-0.013548048359155655,-0.1266439739242196
1783244206874192000,3.55919189453125,-0.141686352494359,-0.03199088302254677,-0.10086115176156163
1783244206884204000,3.5692041015625,-0.14943185205459594,-0.10936492234319448,-0.10420432470962404
1783244206894215200,3.579215087890625,-0.17377251258492468,-0.11862404133677482,-0.07088043951764703
1783244206904226000,3.58922607421875,-0.17388474078774452,-0.03412994087785482,0.00595043283700943
1783244206914237000,3.59923681640625,-0.1354424896687269,0.02763619494438171,0.009085515992343425
1783244206924249000,3.6092490234375,-0.1309814186066389,-0.023632804521918297,-0.024662585961073635
1783244206934260200,3.61926025390625,-0.08800269310176372,-0.08852145627886056,-0.10127455486804246
1783244206944271000,3.62927099609375,-0.03865618613064289,-0.09815203893333672,-0.1341441204212606
1783244206954283000,3.639282958984375,-0.03249181828200817,-0.029909108312427997,-0.07826616585478186
1783244206964294000,3.6492939453125,-0.03860124107301235,0.05858136830627918,0.029229893876612185
1783244206974305300,3.65930517578125,0.07625614120662212,0.08563713301420212,0.08994652064591646
1783244206984316200,3.669316162109375,0.16378712514340876,0.08561112179011106,0.09344327672049403
1783244206994328000,3.679328125,0.17544015353620052,0.030559388914704323,-0.026268121461570263
1783244207004339000,3.6893388671875,0.16861644499599932,-0.008994622838497161,-0.13037000871002674
1783244207014349800,3.699349853515625,0.1749310349702835,-0.061280398131906985,-0.08085589008703828
1783244207024362000,3.709362060546875,0.13263386198878288,-0.07011398518979549,-0.013193389702588319
1783244207034373000,3.719373046875,0.08325286822617053,-0.039840135218203065,0.0781010384209454
1783244207044384000,3.729384033203125,0.01224982524216175,-0.030856326034665107,0.09839461551755666
1783244207054395000,3.739394775390625,-0.09112813164591789,-0.024891280150413513,0.08430676119327545
1783244207064407000,3.749406982421875,-0.10916238550841807,0.015443068325519562,0.019876228467375037
1783244207074418200,3.759418212890625,-0.14948445902466773,0.05430296033471822,-0.054381140137463806
1783244207084429000,3.769428955078125,-0.15332710592746734,0.0789887810409069,-0.13094649342373013
1783244207094441200,3.779441162109375,-0.1235445466041565,0.09542992049306631,-0.16931787126362322
1783244207104452000,3.7894521484375,-0.22673311839997767,0.0680307491749525,-0.22312471864446998
1783244207114463000,3.799462890625,-0.28226094435453414,0.05788607951849699,-0.22531579894796014
1783244207124475000,3.809474853515625,-0.2967424741715193,0.09426496836692094,-0.1450833014562726
1783244207134486000,3.819486083984375,-0.2990250321507454,0.1341720313414931,-0.06659925506711006
1783244207144497200,3.8294970703125,-0.2441384267091751,0.09042144468128681,-0.03072086308673024
1783244207154508000,3.839508056640625,-0.10226561173200607,0.036625557085871695,-0.06491670880764723
1783244207164520000,3.84952001953125,0.02540332132577896,0.04584522085189819,-0.09403028282821178
1783244207174531000,3.859531005859375,0.07644201916754245,0.07170271568596363,-0.07448474761992692
1783244207184542000,3.8695419921875,0.10581716673374175,0.10062047487348318,-0.08076477773748338
1783244207194554000,3.87955419921875,0.13524842840135096,0.07319207746088505,-0.1017737365618348
1783244207204565000,3.88956494140625,0.16325696378946303,0.02876695253998041,-0.08727942032851278
1783244207214576000,3.899576171875,0.2079004076361656,-0.03153524820953607,-0.0895904006846249
1783244207224587000,3.9095869140625,0.13571253878176212,-0.0543845011383295,-0.045104047095775604
1783244207234599200,3.91959912109375,0.036731355547904965,-0.022726211071014402,0.038238837501406664
1783244207244610000,3.929610107421875,0.021739538121223447,0.00020808979272842406,0.14892960162088273
1783244207254621000,3.939620849609375,0.015279402196407317,-0.0058306058496236796,0.1724810114696622
1783244207264632800,3.9496328125,-0.04206862492263317,-0.04960398886352777,0.13696063914671538
1783244207274644200,3.959644287109375,-0.07553717928230762,-0.07280687753558159,0.07911927555277944
1783244207284655000,3.969655029296875,-0.03502045997679233,-0.03876607624590397,0.05822174121364951
1783244207294666000,3.979666015625,-0.02069499750435352,0.025053192713856694,0.05538929426670074
1783244207304678000,3.989677978515625,-0.049509004056453705,-0.0018248773396015165,0.04280906802639365
1783244207314689300,3.999689208984375,-0.005085340440273285,-0.06396949108541011,0.05099325126484036
1783244207324700200,4.0097001953125,0.021873978155851362,-0.07444587691426277,0.02526040572375059
1783244207334712000,4.019712158203125,-0.002405307576060295,-0.0548901125729084,0.032424744395166634
1783244207344723000,4.029722900390625,-0.01125555350780487,0.002335164949297905,0.05932108075767755
1783244207354733800,4.03973388671875,-0.03431728014349937,0.0027148119166493416,0.0695315091267228
1783244207364746000,4.04974609375,-0.04655366138219833,0.017071546310186383,0.019798487056046723
1783244207374757000,4.059757080078125,-0.09189268627762794,0.002675356689095497,-0.01009615433961153
1783244207384768000,4.06976806640625,-0.08819792341291904,0.010197861148416995,-0.0176907011218369
1783244207394779000,4.07977880859375,-0.09228957664072512,0.030975276239216327,-0.005990764847397804
1783244207404791000,4.089791015625,-0.05807692591547966,0.07749971152693033,-0.02486804540529847
1783244207414802200,4.09980224609375,-0.041378889092802996,0.11395195787250995,-0.04139700927138328
1783244207424813000,4.10981298828125,-0.06099076753556728,0.09726824183613061,-0.11435045567080378
1783244207434825000,4.119824951171875,-0.01666881072819233,0.08337649460583925,-0.13446663037389517
1783244207444836000,4.129836181640625,-0.010461188259720802,0.03855243349522352,-0.11471132487244903
1783244207454847000,4.139846923828125,0.009784896433353424,0.04104775744229555,-0.06900025179423391
1783244207464858000,4.149858154296875,-0.04596037166416645,0.07087474042922258,-0.03751373809725046
1783244207474870000,4.1598701171875,-0.011882745495438576,0.11032967572212218,-0.01772811052277684
1783244207484881200,4.169881103515625,0.017833178332448005,0.09258563697785138,-0.031835546330362556
1783244207494892000,4.17989208984375,-0.012232874107360838,0.0673164634257555,-0.05458469988554716
1783244207504904000,4.189904052734375,-0.01953530607521534,0.04079173685461283,-0.05754033482074737
1783244207514915000,4.1999150390625,0.0055932899624109265,0.022474282136559484,-0.058660278761386866
1783244207524926000,4.209926025390625,0.006007715982198715,0.05607815331369638,-0.07217574002519249
1783244207534938000,4.219938232421875,-0.01004559319615364,0.04023351844996214,-0.09287687500938772
1783244207544949000,4.229948974609375,0.03359656465351581,0.03272533477693796,-0.08247888817898928
1783244207554960100,4.239960205078125,0.039353520745038985,0.04916501292437315,-0.04674333873540163
1783244207564971000,4.249970947265625,-0.035708442240953445,0.022592647819221018,0.00410845823213458
1783244207574983200,4.259983154296875,-0.07697861026227473,-0.02647650351524353,-0.008553454942256213
1783244207584993300,4.2699931640625,-0.027035306441783903,-0.034810324357450004,0.02454933484494686
1783244207595004400,4.28000439453125,-0.018815175107121468,-0.030755203747749326,0.07671119149774312
1783244207605016300,4.290016357421875,-0.12126023505926131,-0.07977174811214208,0.06765460933893919
1783244207615027500,4.30002734375,-0.15369710828363894,-0.09178191937953233,0.04071136509478092
1783244207625038300,4.310038330078125,-0.10908815122842788,-0.04734714984744787,0.07331131992638111
1783244207635049200,4.32004931640625,-0.088861940279603,0.010626023432612418,0.09771079797185957
1783244207645061400,4.330061279296875,-0.10352525640428066,0.007758066780865192,0.03712590782344341
1783244207655072500,4.340072509765625,-0.06980711119771003,-0.03178630036115646,-0.051685690508410334
1783244207665083400,4.35008349609375,0.012211831319332123,-0.06656593731939792,-0.07768836596682667
1783244207675095300,4.36009521484375,0.04662672661840916,-0.02401741992533207,-0.039915319346264
1783244207685106200,4.370106201171875,0.07605155854523181,-0.018875380861759185,0.021145298555120824
1783244207695117300,4.380117431640625,0.10830196928679943,-0.07426292156279087,0.010545067150890826
1783244207705129500,4.39012939453125,0.0825052647292614,-0.09869242942035197,0.003391030677780509
1783244207715140400,4.400140380859375,0.03652443479895592,-0.09161825325042008,-0.0001929652888327837
1783244207725151200,4.410151123046875,0.012533318358659744,-0.07062164245098829,0.02699504749663174
1783244207735162400,4.420162353515625,0.033655601364374156,-0.050507951965928076,0.06637399494387208
1783244207745174500,4.430174560546875,0.049749827075004575,-0.0748889445066452,0.07362710787728428
1783244207755185400,4.440185302734375,0.01737023699581623,-0.05194792164117098,0.03777494631670415
1783244207765196300,4.4501962890625,-0.044269934359192846,-0.05224953493624925,-0.013420257261022925
1783244207775208200,4.460208251953125,-0.11347264992296695,-0.06949760685712099,-0.05347264699041843
1783244207785219300,4.47021923828125,-0.11114449923634528,-0.027210078486800193,-0.04948058167956769
1783244207795230500,4.48023046875,-0.15700082600414753,0.01047083287090063,-0.03519187102094293
1783244207805241300,4.490241455078125,-0.2087415346354246,0.010791735388338565,-0.08067147343084216
1783244207815253200,4.500253173828125,-0.1996703394293785,0.012416413980722426,-0.10832308514006435
1783244207825264400,4.510264404296875,-0.1728963142722845,0.060610828307271,-0.1067220796842128
1783244207835275500,4.520275634765625,-0.13755495177805424,0.053826282733678815,-0.11113843482173978
1783244207845287400,4.530287353515625,-0.11795593281686305,0.0028796470895409584,-0.1312325438234955
1783244207855298300,4.54029833984375,-0.07304536246657371,-0.014255027584731577,-0.12428097111992538
1783244207865309200,4.55030908203125,-0.025313304954767225,0.024980419738590717,-0.08445961366742849
1783244207875320300,4.5603203125,-0.0007522796720266342,0.06693389384895562,-0.03442300554029643
1783244207885332200,4.570332275390625,0.01621171461045742,0.07466741071045398,-0.03141023359037935
1783244207895343400,4.58034326171875,0.02271978133022785,0.05945464400947094,-0.08634082430414855
1783244207905354200,4.590354248046875,-0.0013549217402935027,0.0025298107385635375,-0.10445252731703221
1783244207915366400,4.600366455078125,-0.021466566398739815,0.00921820246130228,-0.09580876374281942
1783244207925377300,4.610377197265625,-0.01736497629880905,0.017794015365839005,-0.03108808896392584
1783244207935388400,4.620388427734375,0.007943652480840682,0.004337152421474456,0.005726049496605992
1783244207945400300,4.630400390625,0.020527239722013473,-0.005175356811285018,0.03238506997190416
1783244207955411500,4.640411376953125,0.015399813705682754,-0.014895079053938389,0.0694437577780336
1783244207965422300,4.65042236328125,0.03073766809105873,-0.008164017233252524,0.09525471005663275
1783244207975433500,4.66043359375,0.037116555473208426,-0.02209726551771164,0.08443097209483384
1783244207985445400,4.6704453125,0.0082435122102499,-0.050345454880595206,0.03387063235454261
1783244207995456500,4.68045654296875,0.03282382671535015,-0.05824351465404033,-0.003087006229907274
1783244208005467400,4.69046728515625,0.07630173391401768,-0.03337678442299366,0.022527838954702017
1783244208015479300,4.700479248046875,-0.00832242266535759,-0.014802724595367907,0.0427918976958841
1783244208025490200,4.710490234375,-0.04968026897013187,-0.04544073170423507,0.05342646976113319
1783244208035501300,4.720501220703125,-0.030074235746264454,-0.08673223477452993,0.026317659691721198
1783244208045512400,4.730512451171875,-0.004799509236216545,-0.08717530236691236,0.038333895373716946
1783244208055524400,4.7405244140625,-0.007882862204313277,-0.056372313954681154,0.04029920409731567
1783244208065535200,4.75053515625,0.00007364975810050964,-0.025414281111210583,0.05017155961841344
1783244208075546400,4.76054638671875,-0.004308510848879814,-0.031513182508200406,0.013200988487154244
1783244208085558500,4.77055859375,-0.006978022319078445,-0.04886120767220854,-0.03188596134334802
1783244208095569400,4.7805693359375,-0.018619944795966147,-0.0525273289643228,-0.041657559903711075
1783244208105580300,4.790580322265625,-0.027218261793255805,-0.03960895681083202,-0.03988514340370893
1783244208115591200,4.800591064453125,-0.03442717025876045,-0.033356910678744314,-0.018890432300418616
1783244208125603300,4.810603271484375,-0.01946808605790138,-0.01420636613741517,0.003788578628003597
1783244208135614500,4.820614501953125,0.01045475851893425,0.015240239229798317,0.008069178556650876
1783244208145625300,4.830625244140625,-0.056171969076991075,0.020000147107988593,-0.02923646974787116
1783244208155637200,4.84063720703125,-0.041558921834826464,0.007012362980097532,-0.024207097278535365
1783244208165648400,4.8506484375,-0.04306114309132099,0.0005824760630726814,0.007459376095235348
1783244208175659500,4.860659423828125,-0.02646072142422199,0.03007730448618531,0.005486614717543125
1783244208185671400,4.87067138671875,-0.022179683104157445,0.060875032201409336,-0.0015261866539716719
1783244208195682300,4.880682373046875,-0.026218729361891745,0.03353942763879895,-0.05194076124802231
1783244208205693200,4.890693115234375,0.018784195446968077,0.006055500646680593,-0.09455869061648844
1783244208215704300,4.900704345703125,0.07892156102359295,0.03920402927175164,-0.0597993657939136
1783244208225716500,4.910716552734375,0.04283025694489479,0.07646510778218507,-0.044841742897778744
1783244208235727400,4.920727294921875,-0.04036591265797615,0.04589329777732491,-0.06614668899402022
1783244208245738200,4.93073828125,-0.12406827821731567,-0.0041571196794509884,-0.06610182693898678
1783244208255750400,4.94075048828125,-0.17220248678922653,0.009049421765655279,-0.02261515191197395
1783244208265761300,4.95076123046875,-0.20213176110684872,-0.008254618126153945,0.0030393676958978175
1783244208275772400,4.9607724609375,-0.17906828090548516,-0.006714695207774638,0.03215162654221058
1783244208285783300,4.970783203125,-0.11313654983639716,-0.005927636483311653,0.07886632370501756
1783244208295795500,4.98079541015625,-0.04463467601835727,-0.02540244454294443,0.061909197554737325
1783244208305806300,4.990806396484375,-0.02065115836262703,-0.014211042312532663,0.020217443120479583
1783244208315817500,5.0008173828125,0.023909867897629736,0.015273703107982872,0.020348376023769377
1783244208325829400,5.010829345703125,0.015758710145950316,0.000013590133935213088,0.027049042706191538
1783244208335840500,5.020840576171875,0.03806231189072132,-0.006528671116381883,0.01997223618775606
1783244208345851400,5.030851318359375,0.07161153027117252,0.019327362412959338,0.02387377367094159
1783244208355862300,5.0408623046875,0.08984744418561458,0.016411182705312968,0.040228403883427376
1783244208365874200,5.050874267578125,0.139739310079813,-0.07766951513588428,0.04014642468839884
1783244208375885300,5.06088525390625,0.19856500853598116,-0.14960077888071535,0.03546908052712679
1783244208385896400,5.070896484375,0.21507482931017874,-0.08995485008284448,0.038280484686046834
1783244208395908400,5.080908447265625,0.08911971443295479,0.18875716961845754,0.16220570117086172
1783244208405919200,5.090919189453125,-0.4697498476028442,0.15271964155361056,-0.020863778200000523
1783244208415930400,5.100930419921875,-0.2801099038004875,-0.07580357513353228,-0.21613142569102345
1783244208425942500,5.110942626953125,-0.18031915774941443,-0.08950696018487214,-0.19837182405143974
1783244208435953400,5.120953369140625,-0.10443477246463298,0.0524186078928411,-0.08856821803003549
1783244208445964300,5.13096435546875,-0.12327917366623878,0.07272592125385999,-0.033250819955766196
1783244208455975200,5.14097509765625,-0.046080783173441886,-0.06758242088556289,-0.0788558023110032
1783244208465987300,5.1509873046875,0.0001087210714817047,-0.13568053620830178,-0.07459507612660526
1783244208475998500,5.16099853515625,-0.0644102205902338,-0.1539385158240795,-0.004915975222736597
1783244208486009300,5.17100927734375,0.011261398726701736,0.08407441374212503,0.11059183378964661
1783244208496021200,5.181021240234375,0.09171089996993541,0.42518414516746994,0.2145566506549716
1783244208506032400,5.191032470703125,0.14710662397742272,0.24488223081380128,0.0354576823502779
1783244208516043500,5.20104345703125,-0.12264321385025978,0.03240297095477581,-0.17002433903254568
1783244208526054400,5.211054443359375,-0.3992857338011265,-0.025514672745764255,-0.43881088478602465
1783244208536066300,5.22106640625,-0.3648936348557472,-0.011324380960315465,-0.4173101969219744
1783244208546077200,5.2310771484375,-0.08272972113490104,0.06261091608330607,-0.1262673226315528
1783244208556088300,5.24108837890625,0.15989771648943424,0.19943726132586598,0.1106247131459415
1783244208566100500,5.2511005859375,0.16190554918050765,0.2089784121312201,0.15030074384361505
1783244208576111400,5.261111328125,0.15825053380429743,0.05854381277486682,0.08959873012155294
1783244208586122500,5.27112255859375,0.18507950401902198,-0.06767872086688875,0.02782163451388478
1783244208596134700,5.281134765625,0.17323942862153052,-0.07679550878033041,0.04300678255558014
1783244208606145500,5.2911455078125,0.06310089155733585,-0.04379179545342922,0.10284414227232336
1783244208616156700,5.30115673828125,-0.05824585274159908,-0.026050679318606853,0.10491714915409683
1783244208626167600,5.31116748046875,-0.09779285023212432,0.02425108255073428,0.05434022360518574
1783244208636179500,5.321179443359375,-0.12155191148221492,0.0788888277977705,0.006811433580517769
1783244208646190600,5.331190673828125,-0.14709084188640117,0.10074643934071063,-0.020692367155849933
1783244208656201700,5.34120166015625,-0.16066811634004116,0.05408507980033755,-0.06998816685304045
1783244208666213600,5.351213623046875,-0.16814181322157382,0.06004822598844766,-0.07739259789064526
1783244208676224500,5.361224609375,-0.15101590637564657,0.06866115603297948,-0.04764890927299857
1783244208686235600,5.371235595703125,-0.1454085878878832,0.04013049646690488,0.0036446401126682755
1783244208696246500,5.38124658203125,-0.09657938278913497,-0.02725698636844754,0.0035417642600834368
1783244208706258400,5.391258544921875,-0.01664601437449455,-0.022679449319839475,-0.012943944986164569
1783244208716269600,5.40126953125,0.03815641991496086,0.03910816768184304,0.0012254501417279242
1783244208726280400,5.411280517578125,-0.055094110712409015,0.028863106390833854,0.003584872749447822
1783244208736292600,5.421292724609375,-0.10640227314531803,-0.003301818024367094,0.008548632636666298
1783244208746303500,5.431303466796875,-0.0646937137067318,0.0231609492264688,-0.015818623639643193
1783244208756314600,5.441314697265625,-0.03070493486523628,0.053963937638700006,-0.0658056204713881
1783244208766326800,5.451326904296875,-0.04606850821375846,0.10918094407841562,-0.024174217922240494
1783244208776337700,5.461337646484375,-0.14032149388194085,0.06366568583324551,-0.05829889810308814
1783244208786348500,5.4713486328125,-0.10031155505478381,0.0559365528859198,-0.13642755518332123
1783244208796359400,5.481359375,-0.05866203232705593,0.08149857190474867,-0.10892390057742594
1783244208806371300,5.491371337890625,-0.07702887914478779,0.04779547813683748,-0.054298722551017996
1783244208816382700,5.5013828125,-0.01769873829782009,-0.023688626362383364,-0.06001359306648373
1783244208826393600,5.5113935546875,0.09841068986952305,-0.04609378878548741,-0.05470335782915353
1783244208836405500,5.521405517578125,0.14963935732543468,-0.005391922171413898,-0.028831980600208043
1783244208846416400,5.53141650390625,0.07016366955041885,0.022084406036138534,0.04987403797656297
1783244208856427800,5.541427734375,0.051311669564247125,0.012496347349137068,0.07204422260001302
1783244208866438700,5.551438720703125,0.06002221476435661,0.012720803754776716,0.04425554050765931
1783244208876450600,5.561450439453125,-0.03852291513979435,0.005940495964884758,0.02447115504220128
1783244208886461400,5.57146142578125,-0.05613806680738925,-0.025763240679353473,-0.03448043481595814
1783244208896472600,5.58147265625,0.0057400049567222595,0.01166924887523055,-0.03534669625647366
1783244208906484500,5.591484375,0.08077858706712722,0.045556905429810286,0.01981068895049393
1783244208916495600,5.60149560546875,0.08779577235281467,0.013804507338255643,0.025455782165378332
1783244208926506500,5.611506591796875,0.052989247387647626,-0.07740618802458048,0.02529942255988717
1783244208936517400,5.621517333984375,-0.03251052298247814,-0.15239552416577934,0.035284225479513404
1783244208946529500,5.631529541015625,-0.06304068580269813,-0.15103198072761295,0.06018113165311515
1783244208956540700,5.641540771484375,-0.06476502537727355,-0.07413724935650826,0.07046141038797796
1783244208966551600,5.651551513671875,-0.15321896937787532,0.031531887208670374,0.12746661541871726
1783244208976563500,5.6615634765625,-0.17300737343132494,0.04895049339085817,0.10327917268872261
1783244208986574600,5.67157470703125,-0.15011223553419112,-0.0003301087372004986,-0.050525414557382464
1783244208996585700,5.681585693359375,-0.08068973973989486,-0.017893822478502987,-0.1265420479197055
1783244209006597600,5.69159765625,-0.00010638298392295837,0.05083367678895592,-0.05539207074567675
1783244209016608500,5.7016083984375,0.04265840750932693,0.10845847502276301,0.002500219317898154
1783244209026619600,5.71161962890625,0.019463994404673574,0.10604936805441975,-0.0335742066912353
1783244209036630500,5.721630615234375,0.0035661680489778515,0.05631473854854702,-0.1011938177820295
1783244209046642400,5.731642333984375,0.00860650030374527,0.020595628783106803,-0.13980799140185116
1783244209056653600,5.741653564453125,0.03817278652787209,0.017012947990745306,-0.11086992007866502
1783244209066664400,5.75166455078125,0.024748656809329986,0.014356880524009465,-0.09125701872259379
1783244209076676600,5.761676513671875,0.027237551015615463,0.019878274293988942,-0.08540843882486224
1783244209086687500,5.7716875,0.020527239722013473,-0.003620966976135969,-0.1176213671002537
1783244209096698600,5.78169873046875,0.0004091653227806091,0.024584552288800476,-0.08695932152867317
1783244209106709500,5.79170947265625,-0.08553133455216884,0.07995090407133101,-0.003482069962099194
1783244209116721700,5.8017216796875,-0.13151508709192275,0.12489800703972577,-0.009311141441762446
1783244209126732500,5.811732666015625,-0.23510230281651018,0.10455942175760864,-0.01822239684574306
1783244209136743400,5.821743408203125,-0.25523265217542646,0.06403627271130681,-0.07674998913817108
1783244209146755600,5.831755615234375,-0.2313414889782667,0.054012745216488835,-0.13301358202137054
1783244209156766700,5.8417666015625,-0.14831249263584612,0.08142126888483762,-0.10775208031907677
1783244209166777600,5.851777587890625,-0.07994681241810321,0.0773057963900268,-0.14181282841823994
1783244209176789500,5.86178955078125,-0.009724106156826019,0.04146510607153177,-0.13376177004016934
1783244209186800400,5.87180029296875,-0.002258592581748962,0.06211582604274153,-0.11326733660921454
1783244209196811500,5.8818115234375,-0.019580314260721206,0.09247487007975577,-0.07449841081909835
1783244209206822700,5.89182275390625,-0.09672317517399788,0.09856398073509334,-0.0649023880213499
1783244209216834600,5.90183447265625,-0.2101011325508356,0.09722951726093888,-0.08003376004919409
1783244209226845400,5.911845458984375,-0.24095102884471414,0.10750409690737724,-0.0977170815821737
1783244209236856600,5.921856689453125,-0.22085516627728938,0.13014891330525277,-0.09268201002441347
1783244209246868700,5.93186865234375,-0.15163959123194218,0.13971870568320155,-0.07218648061491549
1783244209256879600,5.941879638671875,-0.04749357258081436,0.11111731896847486,-0.1024143725529313
1783244209266890500,5.951890380859375,0.09102584031522273,0.07351838680580258,-0.13257957451827823
1783244209276901400,5.9619013671875,0.14092939664721488,0.0404094595387578,-0.09281199307963252
1783244209286913500,5.97191357421875,0.1439525438606739,-0.0014516601130366324,-0.020660072321444747
1783244209296924700,5.981924560546875,0.18480360968708992,-0.01547857803031802,0.048367652001604436
1783244209306935600,5.991935546875,0.13955752377212047,-0.039311581299453974,0.08721570744253694
1783244209316947500,6.001947509765625,0.11458733316659926,-0.029100276147574183,0.12180310976430773
1783244209326958600,6.01195849609375,0.0796995596587658,-0.026318390344083308,0.17722389514781534
1783244209336969700,6.0219697265625,0.039998248389363285,-0.060470250792801376,0.14924239389710128
1783244209346981600,6.031981689453125,-0.03796586577892303,-0.08886573967188596,0.10232837476991116
1783244209356992500,6.041992431640625,-0.11468377927839755,-0.05122530645504594,0.09208061006516217
1783244209367003400,6.05200341796875,-0.20279519345164299,0.02101604615226388,0.09028386284150183
1783244209377014500,6.0620146484375,-0.22447160320878026,0.050789253125339745,0.05684321940205991
1783244209387026400,6.0720263671875,-0.1929816554456949,0.04520736133977771,0.028642887768894433
1783244209397037600,6.08203759765625,-0.19584113653004168,0.019953093095868825,0.02550897365733981
1783244209407048400,6.09204833984375,-0.15774141523838042,-0.03221738525480032,0.02841558181904256
1783244209417060600,6.102060546875,-0.044861470511555666,-0.08653656607195734,0.010755860357359051
1783244209427071500,6.112071533203125,0.04060965828597545,-0.06867080064415931,0.020163447910919785
1783244209437082600,6.12208251953125,0.09474690666496753,-0.03019961569160223,0.07223243864849209
1783244209447093500,6.132093505859375,0.11365618979632854,-0.009373831414431332,0.10669621459059417
1783244209457105700,6.142105712890625,0.0929272900223732,-0.019475392581522463,0.06093370358608663
1783244209467116500,6.152116455078125,0.020143208840489386,-0.051805590561032296,-0.039275194811820985
1783244209477127700,6.162127685546875,-0.03839022867083549,-0.03033478637859225,-0.04065868505947291
1783244209487139600,6.1721396484375,-0.08489946638941764,0.008976502659916877,-0.0524996372397989
1783244209497150700,6.182150634765625,-0.08251227899193764,0.06523790358603,-0.0707560824856162
1783244209507161600,6.19216162109375,-0.07850655048191547,0.0703530546426773,-0.09396817737743259
1783244209517173500,6.202173583984375,-0.06383738913834094,0.04448372324034571,-0.11424166153408587
1783244209527184400,6.212184326171875,-0.02200432653725147,-0.00882233501151204,-0.09383191071189939
1783244209537195500,6.222195556640625,0.09323533305823803,-0.005101268661767244,-0.05247172631956636
1783244209547206700,6.23220654296875,0.07622866867780685,0.024853578488528726,0.00645553281493485
1783244209557218600,6.242218505859375,-0.007263853523135185,-0.003852291513979435,-0.01191781680881977
1783244209567229400,6.2522294921875,-0.02563771460354328,-0.033974165794253344,-0.08910532058142125
1783244209577240600,6.262240478515625,-0.061710898503661155,-0.032092589831352235,-0.0731141899190843
1783244209587252500,6.27225244140625,-0.08853285445570945,-0.0074279580436646935,-0.05230594129860401
1783244209597263400,6.282263427734375,-0.1236614509820938,-0.022943507083505392,-0.08033464269191026
1783244209607274500,6.2922744140625,-0.12457856582701206,-0.0283523803897202,-0.1129862546455115
1783244209617285400,6.302285400390625,-0.15495032321512697,0.0231130184315145,-0.06532514347806573
1783244209627297300,6.31229736328125,-0.1934399206072092,0.06722863901183009,-0.04725391860604286
1783244209637308400,6.322308349609375,-0.1852133595317602,0.04650295410826802,-0.04727415767647326
1783244209647319300,6.3323193359375,-0.13754209229648112,0.029234570051729677,-0.051571343413740395
1783244209657331500,6.34233154296875,-0.12260872705876827,0.05149813204705715,-0.0556320169813931
1783244209667342300,6.35234228515625,-0.08362754675745963,0.03012859628200531,-0.03064889382906258
1783244209677353500,6.362353515625,-0.011468903997540473,0.02512260468825698,-0.011296981496736407
1783244209687365600,6.37236572265625,0.0743576141089201,0.031769641487300396,0.03448058094643056
1783244209697376500,6.38237646484375,0.09344751450419425,0.057757923094183206,0.041725729769095776
1783244209707387400,6.392387451171875,0.1279056644231081,0.0316636968947947,0.011920227961614727
1783244209717398500,6.4023984375,0.15904723713994026,-0.008095335911214351,-0.05752798679582774
1783244209727410400,6.412410400390625,0.1523749197691679,-0.021676263626664874,-0.07388276313878596
1783244209737421600,6.422421630859375,0.11418927375972271,-0.01052840827703476,-0.029902313245460388
1783244209747432400,6.432432373046875,0.05559329240620136,-0.016345423992723224,-0.006784545573592185
1783244209757444400,6.4424443359375,-0.00008534019589424133,-0.0015825930163264274,0.02252535473667085
1783244209767455200,6.452455322265625,-0.025255437287688254,0.007361760939657688,0.049841450881212945
1783244209777466600,6.462466552734375,-0.06199848327338695,0.02910626749694347,0.0832357709608972
1783244209787477500,6.4724775390625,-0.1279442428678274,0.02672010301277041,0.047271235067024825
1783244209797489400,6.482489501953125,-0.16885259183943271,-0.003502309032529592,-0.01327595341950655
1783244209807500300,6.492500244140625,-0.2014344264924526,-0.01270429101139307,-0.03931523456126451
1783244209817511400,6.502511474609375,-0.19119886368215083,0.003586334054172039,-0.04581745606213808
1783244209827523600,6.512523681640625,-0.17278233250379563,0.017463614367693663,-0.052172304981574415
1783244209837534500,6.522534423828125,-0.14204349536895752,0.008829641535133123,-0.0631795828167349
1783244209847545300,6.53254541015625,-0.11712298912405968,0.012537848403304814,-0.07657894342020154
1783244209857557500,6.5425576171875,-0.1081418102890253,0.03205503429993987,-0.06544555498734116
1783244209867568400,6.552568359375,-0.12015198155641556,0.044842619680613274,-0.04054199987724423
1783244209877579500,6.56257958984375,-0.13092998068034647,0.028857407302409408,-0.04857259998917579
1783244209887590400,6.57259033203125,-0.08592004160881042,0.03639028702527285,-0.027006226477771997
1783244209897602300,6.582602294921875,-0.03242284469902515,0.024928251159936188,-0.044143823761492965
1783244209907613400,6.592613525390625,0.014022095611691474,0.013086568327248096,-0.028535043480247258
1783244209917624600,6.60262451171875,0.06915478476881981,0.01705254934877157,-0.011571341458708048
1783244209927636500,6.612636474609375,0.10550269395709037,0.038179654660075904,-0.013097528112679719
1783244209937647400,6.6226474609375,0.11878420033454894,0.05441533466801047,0.01686418716982007
1783244209947658500,6.632658447265625,0.12698445792496205,0.04103840509206056,0.042523821344226595
1783244209957669400,6.64266943359375,0.1488496682524681,0.0027704876266419886,0.040896366272866726
1783244209967681300,6.652681396484375,0.11659107420444488,-0.04626096204593778,0.024524931056052444
1783244209977692400,6.6626923828125,0.05765548563301563,-0.05711641032025218,0.008339812191575766
1783244209987703300,6.672703369140625,-0.03553834637105465,-0.04363309776037931,0.010453589475154876
1783244209997715500,6.682715576171875,-0.06628069063723087,0.011073621069639921,0.029734847724065185
1783244210007726300,6.692726318359375,-0.10609247654378413,0.04978343708366156,0.028488573990017176
1783244210017737500,6.702737548828125,-0.13029518990814684,0.03320259689986706,0.005954378359764814
1783244210027749600,6.71274951171875,-0.14670973361432552,-0.0011674363441765308,-0.048811157985404134
1783244210037760500,6.722760498046875,-0.10625614267289638,0.02273746311739087,-0.07036204166673124
1783244210047771400,6.732771484375,-0.024976620346307755,0.05117474531158805,-0.025635303450748322
1783244210057782500,6.742782470703125,0.04053659304976463,0.056580257616937156,0.003444222169741988
1783244210067794400,6.75279443359375,-0.023790625432133672,0.05471460987553,-0.0004699555993080139
1783244210077805600,6.7628056640625,-0.07832827130556107,0.05088774506375193,-0.006513985003903508
1783244210087816400,6.77281640625,-0.02335340305864811,0.08339622221961616,0.03481865379437804
1783244210097828400,6.782828369140625,-0.13697802867293357,0.17875979947820306,0.0975516618873924
1783244210107839200,6.792839111328125,-0.3434522028982639,0.2094368234232068,-0.007901493839547037
1783244210117850600,6.8028505859375,-0.3893687354207039,0.09400500225648284,-0.24799203339740633
1783244210127861500,6.812861572265625,-0.32863632656037806,0.09497998476848006,-0.3717100368723273
1783244210137873400,6.822873291015625,-0.15956629257798194,0.16164485241770743,-0.33967677601277824
1783244210147884300,6.83288427734375,0.07197919453978538,0.1836484483025968,-0.27221849296353756
1783244210157895400,6.8428955078125,0.28511341117620465,0.15713117438554763,-0.15711115451082586
1783244210167907600,6.852907470703125,0.4548749345541,0.08986834084317087,-0.022046046787127852
1783244210177918500,6.86291845703125,0.554994181907177,-0.010442629689723253,0.07434804256297647
1783244210187929300,6.872929443359375,0.5865250462025403,-0.04613441305682063,0.19534874990321693
1783244210197941500,6.88294140625,0.4178425502330064,0.1690158195771277,0.30113807878196236
1783244210207952400,6.892952392578125,0.09099076900184154,0.46984044849574563,0.28835305068455636
1783244210217963500,6.902963623046875,-0.14930384176075456,0.2860667663782835,0.171995054583624
