time,seconds_elapsed,z,y,x
1783244203380252000,0.065251953125,-0.10212453454732895,0.5454609990119934,0.2705536484718323
1783244203390262800,0.0752626953125,-0.08637393265962601,0.4799344837665558,0.17310921847820282
1783244203400274700,0.085274658203125,-0.05142740160226822,0.38584792613983154,0.10405079275369644
1783244203410285800,0.095285888671875,-0.003998910542577505,0.3067154884338379,0.06039949879050255
1783244203420297000,0.105296875,0.039016999304294586,0.26101961731910706,0.04855402559041977
1783244203430308900,0.115308837890625,0.07291768491268158,0.22499170899391174,0.06395863741636276
1783244203440319700,0.12531982421875,0.09328633546829224,0.18876418471336365,0.10503869503736496
1783244203450330600,0.13533056640625,0.11365052312612534,0.15566180646419525,0.1519578993320465
1783244203460342800,0.1453427734375,0.1319379210472107,0.16395995020866394,0.1889108568429947
1783244203470354000,0.15535400390625,0.14316751062870026,0.16573745012283325,0.21287672221660614
1783244203480364800,0.16536474609375,0.14045748114585876,0.1638745665550232,0.22083957493305206
1783244203490375700,0.175375732421875,0.11397875100374222,0.18882586061954498,0.21245762705802917
1783244203500387800,0.185387939453125,0.0660218819975853,0.23468202352523804,0.19016402959823608
1783244203510399000,0.19539892578125,0.02230646274983883,0.27706119418144226,0.15811140835285187
1783244203520409900,0.205409912109375,-0.008386468514800072,0.3013766407966614,0.12383146584033966
1783244203530420700,0.215420654296875,-0.018666837364435196,0.3170487880706787,0.09516281634569168
1783244203540432600,0.2254326171875,-0.013135984539985657,0.3328043222427368,0.07611242681741714
1783244203550443800,0.23544384765625,-0.0042086876928806305,0.3423323929309845,0.066134974360466
1783244203560455000,0.245454833984375,-0.00012313248589634895,0.346813440322876,0.06205927953124046
1783244203570466800,0.255466796875,0.003011201275512576,0.3471052944660187,0.05456941947340965
1783244203580477400,0.2654775390625,0.002171506639569998,0.32317864894866943,0.043033137917518616
1783244203590488300,0.27548828125,0.003855851013213396,0.2834642231464386,0.027128087356686592
1783244203600500500,0.28550048828125,0.007587738800793886,0.24115514755249023,0.006386322434991598
1783244203610511600,0.29551171875,0.0038475142791867256,0.2179277241230011,-0.02093738317489624
1783244203620522500,0.3055224609375,-0.009542860090732574,0.19987362623214722,-0.04578946903347969
1783244203630533400,0.315533447265625,-0.020338816568255424,0.1779368668794632,-0.06873632222414017
1783244203640545300,0.325545166015625,-0.0061452328227460384,0.20610059797763824,-0.09457670897245407
1783244203650556700,0.335556640625,0.012138653546571732,0.23180080950260162,-0.12231720238924026
1783244203660567600,0.345567626953125,0.023573733866214752,0.2020980417728424,-0.14246374368667603
1783244203670579500,0.355579345703125,0.03283669427037239,0.14448204636573792,-0.15679363906383514
1783244203680590300,0.36559033203125,0.024728167802095413,0.09811880439519882,-0.15561838448047638
1783244203690601500,0.3756015625,0.015005197376012802,0.06731639802455902,-0.14045460522174835
1783244203700612600,0.385612548828125,0.01150074414908886,0.055850155651569366,-0.11553274840116501
1783244203710624500,0.39562451171875,0.00788138061761856,0.06355711817741394,-0.08429587632417679
1783244203720635400,0.405635498046875,0.009207901544868946,0.08367223292589188,-0.05916256457567215
1783244203730646300,0.415646240234375,-0.0024368739686906338,0.08616147935390472,-0.04459119960665703
1783244203740658400,0.425658447265625,-0.020068597048521042,0.06462769210338593,-0.03378435969352722
1783244203750669600,0.435669677734375,-0.02993401139974594,0.03457391634583473,-0.028134465217590332
1783244203760680400,0.445680419921875,-0.023156266659498215,-0.0039415182545781136,-0.032956648617982864
1783244203770691300,0.45569140625,-0.01164176594465971,-0.0325801707804203,-0.04951547831296921
1783244203780703500,0.465703369140625,0.0015110537642613053,-0.046546850353479385,-0.07132729887962341
1783244203790714600,0.475714599609375,0.00410191435366869,-0.03933306038379669,-0.09036334604024887
1783244203800725500,0.4857255859375,0.00007015513256192207,-0.024340258911252022,-0.10230735689401627
1783244203810737400,0.4957373046875,-0.006688483525067568,-0.015044277533888817,-0.1086384728550911
1783244203820748500,0.50574853515625,-0.011339694261550903,-0.012215999886393547,-0.11127686500549316
1783244203830759400,0.515759521484375,-0.017786407843232155,-0.005356495268642902,-0.10846882313489914
1783244203840770600,0.5257705078125,-0.019782979041337967,0.031546663492918015,-0.10483814030885696
1783244203850782500,0.535782470703125,-0.023416195064783096,0.08097866177558899,-0.10335182398557663
1783244203860793600,0.545793701171875,-0.017691463232040405,0.107755146920681,-0.11053010821342468
1783244203870804500,0.555804443359375,-0.010102563537657261,0.1047811284661293,-0.1268434077501297
1783244203880816400,0.56581640625,-0.01007007248699665,0.08521249145269394,-0.151886984705925
1783244203890827500,0.57582763671875,-0.0064726658165454865,0.07601059973239899,-0.17522364854812622
1783244203900838400,0.58583837890625,0.006448991596698761,0.06020181626081467,-0.19702322781085968
1783244203910849500,0.595849609375,0.020715119317173958,0.05060592666268349,-0.219020813703537
1783244203920861400,0.605861328125,0.031593333929777145,0.04707058146595955,-0.23474490642547607
1783244203930872300,0.615872314453125,0.03559453785419464,0.046793870627880096,-0.24168337881565094
1783244203940883500,0.625883544921875,0.028740892186760902,0.04878751188516617,-0.23236417770385742
1783244203950895600,0.6358955078125,0.017346765846014023,0.075551837682724,-0.21054507791996002
1783244203960906500,0.645906494140625,0.015394934453070164,0.12421737611293793,-0.17892137169837952
1783244203970917400,0.65591748046875,0.02179115265607834,0.17888623476028442,-0.14463278651237488
1783244203980928500,0.665928466796875,0.023621544241905212,0.2083224207162857,-0.10733388364315033
1783244203990940700,0.675940673828125,0.025380317121744156,0.20357847213745117,-0.07528750598430634
1783244204000951600,0.68595166015625,0.02402157336473465,0.17052970826625824,-0.048324860632419586
1783244204010962400,0.69596240234375,0.02235502377152443,0.14396725594997406,-0.030271917581558228
1783244204020974300,0.705974365234375,0.020366176962852478,0.13919034600257874,-0.026648420840501785
1783244204030985500,0.7159853515625,0.007236602250486612,0.11300899088382721,-0.02765822410583496
1783244204040996600,0.72599658203125,-0.008814802393317223,0.06567023694515228,-0.027732260525226593
1783244204051007500,0.736007568359375,-0.0055197495967149734,0.043316006660461426,-0.030180305242538452
1783244204061019400,0.746019287109375,0.008861586451530457,0.05211535841226578,-0.030008796602487564
1783244204071030300,0.7560302734375,0.02222476154565811,0.04930064454674721,-0.03019387647509575
1783244204081041700,0.766041748046875,0.0321413092315197,0.03837369382381439,-0.029827425256371498
1783244204091053600,0.776053466796875,0.040668785572052,0.024675212800502777,-0.03421739116311073
1783244204101064400,0.786064453125,0.04010339826345444,-0.011618612334132195,-0.03208472952246666
1783244204111075300,0.796075439453125,0.04233834519982338,-0.06081497669219971,-0.026442788541316986
1783244204121086500,0.80608642578125,0.04469124600291252,-0.08338712900876999,-0.017904162406921387
1783244204131098600,0.8160986328125,0.04530152678489685,-0.08033130317926407,-0.004813858773559332
1783244204141109500,0.826109619140625,0.0391102097928524,-0.07538634538650513,0.012261264957487583
1783244204151120400,0.836120361328125,0.0345955416560173,-0.06246933713555336,0.027330022305250168
1783244204161132500,0.846132568359375,0.02759169042110443,-0.04094913229346275,0.03479300066828728
1783244204171143400,0.856143310546875,0.020873449742794037,-0.02480117604136467,0.037605226039886475
1783244204181154600,0.866154541015625,0.01422034204006195,0.0026743917260318995,0.0375831238925457
1783244204191165400,0.87616552734375,0.017449863255023956,0.026605619117617607,0.033118437975645065
1783244204201177300,0.88617724609375,0.018574250862002373,0.024262037128210068,0.024279139935970306
1783244204211188500,0.8961884765625,0.01054353453218937,0.0007711950456723571,0.006647896952927113
1783244204221199600,0.90619970703125,0.0059969862923026085,-0.019725557416677475,-0.007447415962815285
1783244204231211500,0.91621142578125,0.009210089221596718,-0.02492884173989296,-0.019416194409132004
1783244204241222400,0.926222412109375,0.023154133930802345,-0.012226096354424953,-0.030489619821310043
1783244204251233500,0.936233642578125,0.028791559860110283,-0.014086212031543255,-0.0382503904402256
1783244204261245400,0.946245361328125,0.030915431678295135,-0.022677835077047348,-0.03674490377306938
1783244204271256300,0.95625634765625,0.03390493243932724,-0.02255472168326378,-0.030139485374093056
1783244204281267500,0.966267333984375,0.031467340886592865,-0.01555487047880888,-0.018749145790934563
1783244204291278300,0.9762783203125,0.026045622304081917,-0.02020685374736786,0.00006552506238222122
1783244204301290500,0.98629052734375,0.025306327268481255,-0.024677768349647522,0.015286022797226906
1783244204311301400,0.99630126953125,0.025517171248793602,-0.01577441394329071,0.02569558098912239
1783244204321312500,1.0063125,0.03246349096298218,-0.00941851269453764,0.030305244028568268
1783244204331324700,1.01632470703125,0.03501298278570175,-0.009604566730558872,0.03322108834981918
1783244204341335600,1.02633544921875,0.031723979860544205,-0.021809300407767296,0.0327606275677681
1783244204351346400,1.036346435546875,0.03177538886666298,-0.048737771809101105,0.028555192053318024
1783244204361357600,1.046357666015625,0.030423037707805634,-0.0742681697010994,0.02810618281364441
1783244204371369500,1.056369384765625,0.029300544410943985,-0.07966684550046921,0.02958701178431511
1783244204381380600,1.066380615234375,0.03191044181585312,-0.06386870890855789,0.034372180700302124
1783244204391391500,1.0763916015625,0.03841107338666916,-0.051802102476358414,0.045385222882032394
1783244204401403400,1.0864033203125,0.03806805983185768,-0.0381946787238121,0.04734078422188759
1783244204411414300,1.096414306640625,0.03378010168671608,-0.027007540687918663,0.041710592806339264
1783244204421425700,1.10642578125,0.027590114623308182,-0.025342533364892006,0.030270718038082123
1783244204431436500,1.1164365234375,0.02406707964837551,-0.034340910613536835,0.016438700258731842
1783244204441448400,1.126448486328125,0.018800677731633186,-0.03074883483350277,0.006276875734329224
1783244204451459300,1.136459228515625,0.012752799317240715,-0.023764710873365402,0.0092706810683012
1783244204461470500,1.146470458984375,0.019234666600823402,-0.012794352136552334,0.019245285540819168
1783244204471482600,1.156482666015625,0.025028707459568977,-0.004378004930913448,0.027288055047392845
1783244204481493500,1.166493408203125,0.027045520022511482,-0.0009435925167053938,0.03135097399353981
1783244204491504400,1.17650439453125,0.030208639800548553,-0.0034396147821098566,0.026598608121275902
1783244204501515300,1.186515380859375,0.025410689413547516,-0.018656117841601372,0.018571041524410248
1783244204511527400,1.19652734375,0.024731408804655075,-0.028809215873479843,0.005736899562180042
1783244204521538600,1.20653857421875,0.03245005011558533,-0.025098633021116257,-0.004748232197016478
1783244204531549400,1.216549560546875,0.04082169383764267,-0.01870965212583542,-0.015627121552824974
1783244204541561300,1.226561279296875,0.040915969759225845,-0.014126882888376713,-0.021859185770154
1783244204551572500,1.236572509765625,0.040819983929395676,-0.01383387204259634,-0.02127387374639511
1783244204561583600,1.24658349609375,0.04263892024755478,-0.023109395056962967,-0.015298273414373398
1783244204571594500,1.256594482421875,0.04094208404421806,-0.03339695930480957,-0.014134318567812443
1783244204581606700,1.266606689453125,0.030534982681274414,-0.02763388305902481,-0.011206705123186111
1783244204591617500,1.276617431640625,0.0142273660749197,-0.023016516119241714,-0.007105272263288498
1783244204601628400,1.28662841796875,0.0003847877960652113,-0.0224953331053257,0.005595875438302755
1783244204611640600,1.296640625,-0.011597754433751106,-0.018807856366038322,0.0229222159832716
1783244204621651700,1.306651611328125,-0.01510673575103283,-0.011440487578511238,0.044618189334869385
1783244204631662600,1.31666259765625,-0.012276663444936275,-0.0007838914170861244,0.05922165513038635
1783244204641673500,1.326673583984375,-0.0063918763771653175,0.00461486866697669,0.06061475723981857
1783244204651685400,1.336685302734375,-0.012193435803055763,-0.0025976793840527534,0.052639350295066833
1783244204661696800,1.34669677734375,-0.019432172179222107,-0.018897024914622307,0.040790148079395294
1783244204671707600,1.356707763671875,-0.021625470370054245,-0.03447724133729935,0.03169500455260277
1783244204681719600,1.366719482421875,-0.016987044364213943,-0.035305749624967575,0.02857058495283127
1783244204691730400,1.37673046875,-0.012444443069398403,-0.033421460539102554,0.031095212325453758
1783244204701741600,1.386741455078125,-0.006842217408120632,-0.016714654862880707,0.033840663731098175
1783244204711752700,1.396752685546875,-0.0042498731054365635,0.016294635832309723,0.0361722931265831
1783244204721764600,1.4067646484375,-0.0016402415931224823,0.01915646903216839,0.0377478189766407
1783244204731775500,1.416775390625,0.0014981420245021582,0.002693755319342017,0.03870861977338791
1783244204741786400,1.426786376953125,0.009301470592617989,-0.007478721439838409,0.039761368185281754
1783244204751798500,1.436798583984375,0.018006661906838417,-0.006852783728390932,0.03493766114115715
1783244204761809700,1.4468095703125,0.019781392067670822,-0.009379858151078224,0.03366893157362938
1783244204771820500,1.456820556640625,0.02043534815311432,-0.018746821209788322,0.03624306619167328
1783244204781832400,1.46683251953125,0.024149924516677856,-0.010936036705970764,0.037548549473285675
1783244204791843600,1.476843505859375,0.027299020439386368,-0.00681233499199152,0.03270835429430008
1783244204801854700,1.486854736328125,0.03084821254014969,-0.023719413205981255,0.03294404223561287
1783244204811865600,1.496865478515625,0.03227453678846359,-0.04554992541670799,0.03684878721833229
1783244204821877500,1.50687744140625,0.029445460066199303,-0.04930897802114487,0.04665081948041916
1783244204831888400,1.516888427734375,0.023326650261878967,-0.03963078558444977,0.056691866368055344
1783244204841899500,1.5268994140625,0.01623385399580002,-0.028062280267477036,0.06928462535142899
1783244204851911400,1.536911376953125,0.011015968397259712,-0.010040568187832832,0.07342978566884995
1783244204861922600,1.546922607421875,0.009397830814123154,-0.0001043141819536686,0.0706997737288475
1783244204871933400,1.556933349609375,0.0004296011757105589,-0.005128074903041124,0.0622001588344574
1783244204881944600,1.566944580078125,-0.006960404571145773,-0.018709396943449974,0.05241330713033676
1783244204891956500,1.57695654296875,-0.010144826956093311,-0.018131082877516747,0.043315742164850235
1783244204901967600,1.586967529296875,-0.00974615104496479,-0.000766208628192544,0.03569191321730614
1783244204911978500,1.596978515625,-0.010845343582332134,0.018238626420497894,0.02769591473042965
1783244204921990700,1.60699072265625,-0.014977770857512951,0.016863636672496796,0.022795699536800385
1783244204932001500,1.61700146484375,-0.011932458728551865,0.005573089234530926,0.020643912255764008
1783244204942012700,1.6270126953125,-0.0004342608153820038,-0.00878401193767786,0.0173325352370739
1783244204952023600,1.6370234375,0.005203746259212494,-0.02227703481912613,0.013909617438912392
1783244204962035700,1.64703564453125,-0.004333033226430416,-0.053124960511922836,0.02081599272787571
1783244204972046600,1.657046630859375,-0.013966694474220276,-0.08041845262050629,0.030541233718395233
1783244204982057500,1.667057373046875,-0.02609233371913433,-0.08299905061721802,0.04040291905403137
1783244204992069400,1.6770693359375,-0.034235771745443344,-0.0899583250284195,0.0555553212761879
1783244205002080500,1.68708056640625,-0.04081963747739792,-0.1032557561993599,0.07415910065174103
1783244205012091600,1.697091552734375,-0.03642125427722931,-0.09949664026498795,0.0905618816614151
1783244205022102500,1.7071025390625,-0.028168916702270508,-0.05813215672969818,0.0937211886048317
1783244205032114400,1.717114501953125,-0.029339849948883057,-0.014891769737005234,0.08228053897619247
1783244205042125600,1.72712548828125,-0.03229835629463196,0.00087121466640383,0.06159816309809685
1783244205052136700,1.73713671875,-0.024498499929904938,0.004117207136005163,0.03350226953625679
1783244205062148600,1.747148681640625,-0.011851148679852486,0.01094475295394659,-0.0005092276260256767
1783244205072159500,1.757159423828125,-0.0033635268919169903,0.003966432064771652,-0.03538822755217552
1783244205082170400,1.76717041015625,0.005149267613887787,-0.004349821247160435,-0.0675903707742691
1783244205092181500,1.777181396484375,0.01236686110496521,0.0009887362830340862,-0.10864312201738358
1783244205102193700,1.787193603515625,0.017856702208518982,-0.006543481722474098,-0.14181385934352875
1783244205112204500,1.79720458984375,0.020537428557872772,-0.09675361216068268,-0.14146360754966736
1783244205122215400,1.80721533203125,0.05125512555241585,-0.23518605530261993,-0.05983132869005203
1783244205132227600,1.8172275390625,0.08304398506879807,-0.17466334998607635,0.013891763985157013
1783244205142238700,1.82723876953125,0.07570138573646545,-0.06925544142723083,0.07896344363689423
1783244205152249600,1.83724951171875,0.044653382152318954,-0.0036913377698510885,0.11545607447624207
1783244205162260500,1.847260498046875,0.01856132782995701,0.024625254794955254,0.11906173080205917
1783244205172272400,1.8572724609375,0.00562511570751667,0.026955457404255867,0.08807840943336487
1783244205182283500,1.867283447265625,-0.00468318210914731,-0.002473271219059825,0.031418327242136
1783244205192294700,1.877294677734375,-0.023778127506375313,-0.020841484889388084,-0.02813974767923355
1783244205202306600,1.887306640625,-0.049731429666280746,-0.008758990094065666,-0.08458997309207916
1783244205212317400,1.8973173828125,-0.06534219533205032,0.008943160995841026,-0.13360831141471863
1783244205222328600,1.90732861328125,-0.035206131637096405,-0.019088206812739372,-0.13117177784442902
1783244205232340500,1.917340576171875,-0.017727576196193695,-0.1011362299323082,-0.0705299973487854
1783244205242351600,1.9273515625,-0.019517753273248672,-0.16465340554714203,-0.0058708470314741135
1783244205252362500,1.937362548828125,-0.024362701922655106,-0.08548957854509354,0.028294960036873817
1783244205262373400,1.947373291015625,-0.045185692608356476,0.0631992295384407,0.04106694832444191
1783244205272385500,1.957385498046875,-0.062474217265844345,0.14722853899002075,0.03933553397655487
1783244205282396700,1.967396728515625,-0.06016632542014122,0.13453590869903564,0.0367024689912796
1783244205292407600,1.977407470703125,-0.0368509478867054,0.09217430651187897,0.03143981471657753
1783244205302419700,1.987419677734375,-0.014639917761087418,0.05452625826001167,0.01534207072108984
1783244205312430600,1.9974306640625,-0.012111502699553967,-0.0019432774279266596,0.010136466473340988
1783244205322441500,2.00744140625,-0.017352338880300522,-0.05358889326453209,0.021362490952014923
1783244205332452600,2.01745263671875,-0.02262650802731514,-0.06942947953939438,0.04576322063803673
1783244205342464500,2.027464599609375,-0.026616457849740982,-0.054736554622650146,0.07766895741224289
1783244205352475600,2.0374755859375,-0.024785924702882767,-0.014123041182756424,0.11716854572296143
1783244205362486500,2.047486572265625,-0.03022516518831253,0.019804565235972404,0.15562832355499268
1783244205372498400,2.05749853515625,-0.03264469653367996,0.03337673097848892,0.18639320135116577
1783244205382509600,2.067509521484375,-0.019548334181308746,0.03600021079182625,0.21107538044452667
1783244205392520700,2.077520751953125,0.00008305185474455357,0.04078243672847748,0.21386384963989258
1783244205402531600,2.087531494140625,0.016418615356087685,0.05072242021560669,0.19518578052520752
1783244205412543500,2.09754345703125,0.02690766006708145,0.05974667891860008,0.15664057433605194
1783244205422554400,2.107554443359375,0.026498865336179733,0.04531234875321388,0.11359190940856934
1783244205432565500,2.1175654296875,0.024424543604254723,0.02820875495672226,0.07802922278642654
1783244205442577700,2.12757763671875,0.024503907188773155,0.027409274131059647,0.060661692172288895
1783244205452588500,2.137588623046875,0.034861356019973755,0.03757845610380173,0.060197945684194565
1783244205462599400,2.147599365234375,0.05083952099084854,0.03859551623463631,0.06552480906248093
1783244205472610600,2.157610595703125,0.06282921135425568,0.025629423558712006,0.06715930253267288
1783244205482622700,2.167622802734375,0.06397650390863419,0.01473416481167078,0.058801501989364624
1783244205492633600,2.177633544921875,0.058128852397203445,0.009527300484478474,0.046835314482450485
1783244205502644500,2.18764453125,0.05297696590423584,-0.0070008100010454655,0.038531046360731125
1783244205512656400,2.197656494140625,0.05196056142449379,-0.028616661205887794,0.03674022853374481
1783244205522667500,2.20766748046875,0.04376894608139992,-0.033255621790885925,0.033080510795116425
1783244205532678700,2.2176787109375,0.023182213306427002,-0.020448774099349976,0.0379241406917572
1783244205542689500,2.227689453125,0.003938478417694569,-0.020438920706510544,0.04966069012880325
1783244205552701400,2.237701416015625,-0.0036436105147004128,-0.027187101542949677,0.07098821550607681
1783244205562712600,2.247712646484375,-0.003912323620170355,-0.02715487778186798,0.08972381800413132
1783244205572723700,2.2577236328125,-0.002457739319652319,-0.028785819187760353,0.10514193773269653
1783244205582735400,2.2677353515625,-0.013317311182618141,-0.029384763911366463,0.11224645376205444
1783244205592746200,2.277746337890625,-0.03751539811491966,-0.024449732154607773,0.1142759621143341
1783244205602757000,2.287757080078125,-0.058410294353961945,-0.018864285200834274,0.11568158119916916
1783244205612769000,2.29776904296875,-0.06687572598457336,-0.018605180084705353,0.11586641520261765
1783244205622780200,2.3077802734375,-0.06083701178431511,-0.020132768899202347,0.11178351938724518
1783244205632791300,2.317791259765625,-0.05439282953739166,-0.027278123423457146,0.10453362762928009
1783244205642802200,2.32780224609375,-0.05931542068719864,-0.03464921936392784,0.0978325828909874
1783244205652814000,2.33781396484375,-0.06034334376454353,-0.03817847743630409,0.0917467549443245
1783244205662825200,2.3478251953125,-0.05542821064591408,-0.02600623108446598,0.07915559411048889
1783244205672836000,2.357836181640625,-0.05627844110131264,-0.00575838889926672,0.0682968944311142
1783244205682848300,2.36784814453125,-0.05449119210243225,-0.0020528666209429502,0.05531105771660805
1783244205692859100,2.377859130859375,-0.05974363908171654,-0.005636346526443958,0.04485785961151123
1783244205702870000,2.3878701171875,-0.06369630992412567,0.0021075934637337923,0.034532517194747925
1783244205712881200,2.397881103515625,-0.061005596071481705,0.012833569198846817,0.030139442533254623
1783244205722893300,2.407893310546875,-0.05988094583153725,0.021082177758216858,0.0235127005726099
1783244205732904200,2.417904296875,-0.054285887628793716,0.03775053471326828,0.01595510169863701
1783244205742915000,2.4279150390625,-0.0478101447224617,0.04594694450497627,0.0064561376348137856
1783244205752927000,2.437927001953125,-0.034505005925893784,0.023673035204410553,-0.0034368138294667006
1783244205762938400,2.4479384765625,-0.024653974920511246,0.00008941185660660267,-0.012123512104153633
1783244205772949200,2.45794921875,-0.015253626741468906,-0.020026901736855507,-0.013030792586505413
1783244205782960000,2.467960205078125,-0.009390678256750107,-0.04214392229914665,-0.008187834173440933
1783244205792972000,2.477971923828125,-0.011783076450228691,-0.05034205690026283,0.005458262749016285
1783244205802983200,2.487983154296875,-0.013316258788108826,-0.045183781534433365,0.024156581610441208
1783244205812994300,2.497994384765625,-0.014093288220465183,-0.030777284875512123,0.04176827520132065
1783244205823006200,2.508006103515625,-0.013543345965445042,-0.015905659645795822,0.05435197800397873
1783244205833017000,2.51801708984375,-0.008669979870319366,-0.00479698134586215,0.061894260346889496
1783244205843028000,2.528028076171875,-0.0015548132359981537,0.004192519001662731,0.06040715426206589
1783244205853040000,2.5380400390625,-0.001121364999562502,0.003582506673410535,0.05408141389489174
1783244205863051300,2.54805126953125,-0.006692431401461363,-0.005604599602520466,0.04505622759461403
1783244205873062100,2.558062255859375,-0.009062184020876884,-0.013557855039834976,0.037386730313301086
1783244205883073000,2.568072998046875,-0.011553037911653519,-0.017817048355937004,0.032134175300598145
1783244205893085200,2.578085205078125,-0.007581119425594807,-0.013302597217261791,0.026475701481103897
1783244205903096300,2.588096435546875,-0.008669021539390087,-0.003068868536502123,0.02214673161506653
1783244205913107200,2.598107177734375,-0.00936967320740223,-0.0024684383533895016,0.02464309148490429
1783244205923119000,2.608119140625,-0.0061246114782989025,-0.015006334520876408,0.03152203559875488
1783244205933130200,2.618130126953125,0.0026715435087680817,-0.020152892917394638,0.03518121689558029
1783244205943141000,2.62814111328125,0.013765472918748856,-0.021029870957136154,0.03799218311905861
1783244205953152300,2.63815234375,0.01553360465914011,-0.012415963225066662,0.03513691946864128
1783244205963164200,2.6481640625,0.022381655871868134,-0.0037266011349856853,0.031200233846902847
1783244205973175300,2.65817529296875,0.030246388167142868,0.002380732446908951,0.02199573814868927
1783244205983186200,2.668186279296875,0.03369757533073425,0.000944489729590714,0.00996304489672184
1783244205993198000,2.678197998046875,0.03431914746761322,-0.004066114313900471,0.000144158024340868
1783244206003209200,2.688209228515625,0.02757096476852894,-0.005948702804744244,-0.010243767872452736
1783244206013220000,2.69822021484375,0.022246401757001877,-0.0050493706949055195,-0.009736823849380016
1783244206023231200,2.708231201171875,0.02153986506164074,0.003083390649408102,-0.004728483036160469
1783244206033243100,2.7182431640625,0.023871157318353653,0.012945645488798618,0.005849726963788271
1783244206043254000,2.72825390625,0.028685886412858963,0.016393907368183136,0.014481563121080399
1783244206053265200,2.73826513671875,0.029322374612092972,0.010824032127857208,0.018592337146401405
1783244206063277300,2.74827734375,0.03414030000567436,-0.014085844159126282,0.01627618633210659
1783244206073288200,2.7582880859375,0.02987610176205635,-0.0272006057202816,0.011214079335331917
1783244206083299000,2.768299072265625,0.023895438760519028,-0.02592948079109192,0.003258152399212122
1783244206093310200,2.778310302734375,0.020291808992624283,-0.02017732709646225,-0.0007729229982942343
1783244206103322400,2.788322265625,0.02028275467455387,-0.01704864576458931,-0.0017154158558696508
1783244206113333200,2.798333251953125,0.01145934872329235,-0.012226730585098267,0.0006454498507082462
1783244206123344100,2.80834423828125,0.004219812341034412,-0.011437369510531425,0.004783469717949629
1783244206133356000,2.81835595703125,0.0013012747513130307,-0.008670130744576454,0.01088640745729208
1783244206143367200,2.8283671875,0.003598517505452037,-0.0022063718643039465,0.011864320375025272
1783244206153378300,2.83837841796875,0.00859643891453743,0.00859272014349699,0.007328696083277464
1783244206163390200,2.84839013671875,0.010190606117248535,0.019793177023530006,-0.00008687563240528107
1783244206173401000,2.858401123046875,0.0049200840294361115,0.027899345383048058,-0.016813280060887337
1783244206183412000,2.868411865234375,-0.0064697228372097015,0.028952093794941902,-0.026707723736763
1783244206193423400,2.87842333984375,-0.010362869128584862,0.01950683631002903,-0.03172055259346962
1783244206203435300,2.888435302734375,-0.005266379099339247,0.011955175548791885,-0.02943502739071846
1783244206213446100,2.898446044921875,-0.001146653201431036,0.0010067775147035718,-0.021626969799399376
1783244206223457000,2.90845703125,0.007151490077376366,-0.02249694988131523,-0.006992099806666374
1783244206233469200,2.91846923828125,0.01053609885275364,-0.048734623938798904,0.006524097174406052
1783244206243480300,2.928480224609375,0.010756874457001686,-0.05495869740843773,0.015311463735997677
1783244206253491200,2.9384912109375,0.006051221396774054,-0.04108351469039917,0.019640497863292694
1783244206263502000,2.948502197265625,-0.0014192117378115654,-0.012998882681131363,0.027455277740955353
1783244206273514200,2.95851416015625,-0.0017716283909976482,0.010203782469034195,0.03295743092894554
1783244206283525000,2.968525146484375,0.0004776774439960718,0.016167664900422096,0.03064633719623089
1783244206293536300,2.978536376953125,-0.0015397942624986172,0.004460714757442474,0.02051711454987526
1783244206303548200,2.988548095703125,-0.0017424607649445534,-0.012428253889083862,0.009775521233677864
1783244206313559300,2.998559326171875,-0.0023644142784178257,-0.017830757424235344,0.00010786112397909164
1783244206323570200,3.008570068359375,-0.007689671125262976,-0.008068940602242947,-0.0030466532334685326
1783244206333581300,3.018581298828125,-0.009222052991390228,0.015485120937228203,0.000988301821053028
1783244206343593200,3.02859326171875,-0.015864510089159012,0.03395041450858116,0.009602297097444534
1783244206353604000,3.03860400390625,-0.010178254917263985,0.037190720438957214,0.022380519658327103
1783244206363615200,3.048615234375,0.0016994429752230644,0.03721362352371216,0.024073492735624313
1783244206373627100,3.058627197265625,0.013564623892307281,0.03306282311677933,0.015776678919792175
1783244206383638000,3.068637939453125,0.020732788369059563,0.014249719679355621,0.00219482509419322
1783244206393649200,3.078649169921875,0.02562558278441429,-0.010227636434137821,-0.011724993586540222
1783244206403661300,3.088661376953125,0.029199279844760895,-0.020025672391057014,-0.0250136349350214
1783244206413672200,3.098672119140625,0.03195837885141373,-0.011464622803032398,-0.029884835705161095
1783244206423683000,3.10868310546875,0.03558081388473511,0.0031529359985142946,-0.02456836774945259
1783244206433694200,3.118694091796875,0.03417801111936569,0.011577160097658634,-0.014370525255799294
1783244206443706400,3.128706298828125,0.03218836337327957,0.009235176257789135,-0.003538649994879961
1783244206453717200,3.13871728515625,0.024795059114694595,-0.002946991939097643,0.0025850478559732437
1783244206463728000,3.14872802734375,0.017525961622595787,-0.01717679388821125,0.005578441545367241
1783244206473740000,3.158739990234375,0.007610776461660862,-0.01749602146446705,0.011445769108831882
1783244206483751400,3.16875146484375,-0.0007382337935268879,-0.013004068285226822,0.017739087343215942
1783244206493762300,3.17876220703125,-0.002622762694954872,-0.01378536131232977,0.025038741528987885
1783244206503773200,3.188773193359375,-0.0001532132737338543,-0.024555981159210205,0.03463198244571686
1783244206513785000,3.19878515625,0.004544255323708057,-0.025542007759213448,0.04170859605073929
1783244206523796000,3.2087958984375,-0.0004917820915579796,-0.011903428472578526,0.04561012610793114
1783244206533807400,3.218807373046875,-0.002830361947417259,0.006944645196199417,0.03996165469288826
1783244206543819300,3.2288193359375,-0.005271149333566427,0.02506452612578869,0.02502424828708172
1783244206553830100,3.238830078125,-0.010478359647095203,0.04342973232269287,0.0023327688686549664
1783244206563841000,3.248841064453125,-0.00868072547018528,0.04841836541891098,-0.01881619170308113
1783244206573852200,3.25885205078125,-0.001282084733247757,0.030364152044057846,-0.03623839095234871
1783244206583865000,3.268864990234375,0.006864259019494057,-0.0001785771455615759,-0.040299709886312485
1783244206593876200,3.278876220703125,0.01040307991206646,-0.02514323964715004,-0.03449752926826477
1783244206603887000,3.28888720703125,0.012554648332297802,-0.032050151377916336,-0.017620010301470757
1783244206613899000,3.29889892578125,0.011481347493827343,-0.024630684405565262,0.003977478481829166
1783244206623910000,3.308909912109375,0.01047413982450962,-0.004017283674329519,0.02417808771133423
1783244206633921000,3.318921142578125,0.012260635383427143,0.021898837760090828,0.03228842467069626
1783244206643933200,3.32893310546875,0.01476480532437563,0.04641669616103172,0.02712881751358509
1783244206653944000,3.338944091796875,0.018402036279439926,0.051944468170404434,0.00930354930460453
1783244206663955000,3.348954833984375,0.01728990115225315,0.03361339867115021,-0.01199854351580143
1783244206673966000,3.358966064453125,0.025278665125370026,0.01632028818130493,-0.028430838137865067
1783244206683978000,3.36897802734375,0.035199474543333054,0.004314225632697344,-0.03500538691878319
1783244206693989000,3.378989013671875,0.03889477252960205,-0.007405082695186138,-0.03251876309514046
1783244206704000000,3.389,0.03358576074242592,-0.018969327211380005,-0.023407291620969772
1783244206714012200,3.39901220703125,0.023008553311228752,-0.02388893999159336,-0.004017633385956287
1783244206724023000,3.40902294921875,0.01484090369194746,-0.006052685435861349,0.011296074837446213
1783244206734034200,3.4190341796875,0.006786135025322437,0.009103934280574322,0.023071907460689545
1783244206744045000,3.429045166015625,0.003610847983509302,0.020229289308190346,0.02575291320681572
1783244206754057200,3.43905712890625,0.00385162397287786,0.0381823405623436,0.01328097190707922
1783244206764068000,3.449068115234375,0.0065094586461782455,0.04059676453471184,-0.006042657885700464
1783244206774079000,3.459078857421875,0.012693330645561218,0.026134278625249863,-0.022262951359152794
1783244206784091000,3.4690908203125,0.02173689380288124,0.006480417214334011,-0.03967096656560898
1783244206794102000,3.47910205078125,0.025970520451664925,-0.008160576224327087,-0.050174206495285034
1783244206804113200,3.489113037109375,0.01895841769874096,-0.018360484391450882,-0.05044132471084595
1783244206814125000,3.499125,0.01775600016117096,-0.01293189637362957,-0.040258459746837616
1783244206824136000,3.509135986328125,0.02209934964776039,-0.0016518114134669304,-0.02278759330511093
1783244206834147000,3.51914697265625,0.023661941289901733,0.0045204805210232735,-0.0009092597756534815
1783244206844158200,3.529158203125,0.020180657505989075,0.012307830154895782,0.007878638803958893
1783244206854170000,3.539170166015625,0.018071040511131287,0.00841752253472805,0.010882529430091381
1783244206864181000,3.549180908203125,0.013951395638287067,0.008224709890782833,0.008610586635768414
1783244206874192000,3.55919189453125,0.009321583434939384,0.01054559089243412,0.0011262018233537674
1783244206884204000,3.5692041015625,0.007932212203741074,-0.009353015571832657,-0.004399324767291546
1783244206894215200,3.579215087890625,0.004210676997900009,-0.030323568731546402,-0.002371052745729685
1783244206904226000,3.58922607421875,0.0056256139650940895,-0.04819071665406227,0.004430660977959633
1783244206914237000,3.59923681640625,0.013632256537675858,-0.05365297570824623,0.015037430450320244
1783244206924249000,3.6092490234375,0.015610451810061932,-0.03163662180304527,0.019972002133727074
1783244206934260200,3.61926025390625,0.008616089820861816,-0.005540377926081419,0.016295267269015312
1783244206944271000,3.62927099609375,-0.00664914958178997,0.002289315452799201,0.011483734473586082
1783244206954283000,3.639282958984375,-0.013137645088136196,-0.002990848384797573,0.009514179080724716
1783244206964294000,3.6492939453125,-0.007029418833553791,-0.026666883379220963,0.015627730637788773
1783244206974305300,3.65930517578125,0.002577601233497262,-0.060394272208213806,0.0219745896756649
1783244206984316200,3.669316162109375,0.007539869286119938,-0.07286611944437027,0.024634554982185364
1783244206994328000,3.679328125,0.00697839492931962,-0.044627152383327484,0.024739807471632957
1783244207004339000,3.6893388671875,0.003881138516589999,-0.001526289852336049,0.01627787947654724
1783244207014349800,3.699349853515625,0.0025729131884872913,0.03463345393538475,-0.0010435269214212894
1783244207024362000,3.709362060546875,-0.00038825557567179203,0.048251792788505554,-0.020840933546423912
1783244207034373000,3.719373046875,0.010419744066894054,0.04048674926161766,-0.03430544584989548
1783244207044384000,3.729384033203125,0.02696436643600464,0.03310420364141464,-0.04281558096408844
1783244207054395000,3.739394775390625,0.04021758958697319,0.024606853723526,-0.048558421432971954
1783244207064407000,3.749406982421875,0.051861993968486786,0.010735247284173965,-0.04821593686938286
1783244207074418200,3.759418212890625,0.051044657826423645,0.001799998339265585,-0.04691600054502487
1783244207084429000,3.769428955078125,0.04168257862329483,-0.01933191902935505,-0.04461343213915825
1783244207094441200,3.779441162109375,0.028450489044189453,-0.029395002871751785,-0.038830749690532684
1783244207104452000,3.7894521484375,0.009824341163039207,-0.01871812343597412,-0.026858508586883545
1783244207114463000,3.799462890625,-0.011383920907974243,-0.017209969460964203,-0.0017019952647387981
1783244207124475000,3.809474853515625,-0.02135879173874855,-0.031368400901556015,0.03637241944670677
1783244207134486000,3.819486083984375,-0.018008701503276825,-0.033384811133146286,0.07116398960351944
1783244207144497200,3.8294970703125,-0.015725573524832726,-0.024593714624643326,0.09281735122203827
1783244207154508000,3.839508056640625,-0.01962308958172798,-0.03622911870479584,0.10094695538282394
1783244207164520000,3.84952001953125,-0.030666686594486237,-0.046743810176849365,0.09453486651182175
1783244207174531000,3.859531005859375,-0.04259663447737694,-0.04627133905887604,0.08290480822324753
1783244207184542000,3.8695419921875,-0.047513898462057114,-0.03277230262756348,0.07288572937250137
1783244207194554000,3.87955419921875,-0.05354040488600731,-0.009948180988430977,0.0597040094435215
1783244207204565000,3.88956494140625,-0.05835992470383644,0.0125123867765069,0.04303049296140671
1783244207214576000,3.899576171875,-0.06345939636230469,0.02582516148686409,0.018101762980222702
1783244207224587000,3.9095869140625,-0.0668189749121666,0.02679162286221981,-0.002198183676227927
1783244207234599200,3.91959912109375,-0.06078609824180603,0.022805744782090187,-0.01650579646229744
1783244207244610000,3.929610107421875,-0.047219689935445786,0.007069125771522522,-0.01789037324488163
1783244207254621000,3.939620849609375,-0.03170638531446457,-0.007515979930758476,-0.013007045723497868
1783244207264632800,3.9496328125,-0.01600172370672226,-0.008455010131001472,-0.010292218998074532
1783244207274644200,3.959644287109375,-0.01900445856153965,-0.012813221663236618,-0.006882610730826855
1783244207284655000,3.969655029296875,-0.02730339951813221,-0.019533708691596985,0.003318627830594778
1783244207294666000,3.979666015625,-0.02587636560201645,-0.006249444559216499,0.014279600232839584
1783244207304678000,3.989677978515625,-0.01944456249475479,0.017613811418414116,0.020669056102633476
1783244207314689300,3.999689208984375,-0.010901743546128273,0.020983459427952766,0.017802176997065544
1783244207324700200,4.0097001953125,-0.01073263306170702,0.01354631595313549,0.008767137303948402
1783244207334712000,4.019712158203125,-0.007522118743509054,0.005198032595217228,-0.003984537906944752
1783244207344723000,4.029722900390625,-0.0015712850727140903,-0.003521156497299671,-0.01753336936235428
1783244207354733800,4.03973388671875,0.0017695981077849865,-0.008344653993844986,-0.02220671996474266
1783244207364746000,4.04974609375,0.007468496449291706,-0.0061677866615355015,-0.020086046308279037
1783244207374757000,4.059757080078125,0.016157373785972595,0.005095303058624268,-0.014040309004485607
1783244207384768000,4.06976806640625,0.02232499048113823,0.0045959604904055595,-0.011802454479038715
1783244207394779000,4.07977880859375,0.02172994241118431,-0.007153789512813091,-0.008277271874248981
1783244207404791000,4.089791015625,0.01589815318584442,-0.02600071392953396,-0.006219180766493082
1783244207414802200,4.09980224609375,0.008138282224535942,-0.036973368376493454,-0.004010673612356186
1783244207424813000,4.10981298828125,0.00029127742163836956,-0.0274411179125309,0.0012669130228459835
1783244207434825000,4.119824951171875,-0.0051143579185009,-0.009928121231496334,0.003864389844238758
1783244207444836000,4.129836181640625,-0.01357175875455141,0.0009807189926505089,0.00667269341647625
1783244207454847000,4.139846923828125,-0.014905992895364761,0.009420139715075493,0.009000370278954506
1783244207464858000,4.149858154296875,-0.009986868128180504,0.010136529803276062,0.010405986569821835
1783244207474870000,4.1598701171875,-0.005437101703137159,0.003994164522737265,0.008299464359879494
1783244207484881200,4.169881103515625,-0.006779334973543882,-0.006251815240830183,-0.0020359971094876528
1783244207494892000,4.17989208984375,-0.009722402319312096,-0.016434548422694206,-0.011741702444851398
1783244207504904000,4.189904052734375,-0.012542957440018654,-0.023632006719708443,-0.01827230677008629
1783244207514915000,4.1999150390625,-0.0121294055134058,-0.02023005113005638,-0.016188248991966248
1783244207524926000,4.209926025390625,-0.00686779897660017,-0.007160053588449955,-0.015256144106388092
1783244207534938000,4.219938232421875,-0.010408526286482811,0.0061033135280013084,-0.01753290928900242
1783244207544949000,4.229948974609375,-0.022870255634188652,0.004765607882291079,-0.020769981667399406
1783244207554960100,4.239960205078125,-0.027680575847625732,0.0009111243998631835,-0.02361724153161049
1783244207564971000,4.249970947265625,-0.022782757878303528,0.0010173845803365111,-0.029839985072612762
1783244207574983200,4.259983154296875,-0.024712342768907547,0.0006515039131045341,-0.03425139933824539
1783244207584993300,4.2699931640625,-0.02172374352812767,-0.006301743444055319,-0.03139995411038399
1783244207595004400,4.28000439453125,-0.008953167125582695,0.0009728205623105168,-0.02434810996055603
1783244207605016300,4.290016357421875,0.007286522537469864,0.01617227867245674,-0.025957193225622177
1783244207615027500,4.30002734375,0.007546919863671064,0.003925556316971779,-0.026556305587291718
1783244207625038300,4.310038330078125,0.0000738238450139761,-0.028244365006685257,-0.021186839789152145
1783244207635049200,4.32004931640625,0.004546674899756908,-0.04357832670211792,-0.015564249828457832
1783244207645061400,4.330061279296875,0.007642333395779133,-0.034227967262268066,-0.005023458041250706
1783244207655072500,4.340072509765625,-0.00007459428161382675,-0.019502131268382072,0.003266362939029932
1783244207665083400,4.35008349609375,-0.007386037148535252,-0.014599253423511982,0.01316453330218792
1783244207675095300,4.36009521484375,-0.012702724896371365,-0.0010444605723023415,0.018550459295511246
1783244207685106200,4.370106201171875,-0.00994129292666912,0.008954644203186035,0.01826763153076172
1783244207695117300,4.380117431640625,-0.005219762679189444,0.007122466340661049,0.014363924041390419
1783244207705129500,4.39012939453125,-0.005605654325336218,0.007016472518444061,0.009898336604237556
1783244207715140400,4.400140380859375,0.001976445782929659,0.02043626643717289,0.004259566310793161
1783244207725151200,4.410151123046875,0.009901747107505798,0.034733980894088745,-0.005011696368455887
1783244207735162400,4.420162353515625,0.015867333859205246,0.024375364184379578,-0.016094587743282318
1783244207745174500,4.430174560546875,0.02413112111389637,0.0077250138856470585,-0.02922184020280838
1783244207755185400,4.440185302734375,0.02880258485674858,-0.0009690620936453342,-0.04165458306670189
1783244207765196300,4.4501962890625,0.034121714532375336,0.004937296733260155,-0.04514572396874428
1783244207775208200,4.460208251953125,0.034528423100709915,0.007648820523172617,-0.04093732312321663
1783244207785219300,4.47021923828125,0.03738093748688698,0.004018399398773909,-0.033087123185396194
1783244207795230500,4.48023046875,0.0380823090672493,0.0009458359563723207,-0.024011315777897835
1783244207805241300,4.490241455078125,0.03537440672516823,-0.006277721840888262,-0.012940820306539536
1783244207815253200,4.500253173828125,0.027267687022686005,-0.016466889530420303,0.0029282518662512302
1783244207825264400,4.510264404296875,0.017153535038232803,-0.01331663690507412,0.013091139495372772
1783244207835275500,4.520275634765625,0.01489922683686018,-0.008801333606243134,0.019198473542928696
1783244207845287400,4.530287353515625,0.012211298570036888,-0.01004529558122158,0.015220774337649345
1783244207855298300,4.54029833984375,0.0012347553856670856,-0.0133786890655756,0.006060928571969271
1783244207865309200,4.55030908203125,-0.004681190475821495,-0.025677166879177094,0.0014352835714817047
1783244207875320300,4.5603203125,-0.007125127129256725,-0.031200194731354713,0.003528476692736149
1783244207885332200,4.570332275390625,-0.009064706973731518,-0.023637348785996437,0.008583422750234604
1783244207895343400,4.58034326171875,-0.013930436223745346,-0.0034262468107044697,0.011185839772224426
1783244207905354200,4.590354248046875,-0.025834498926997185,0.015859300270676613,0.019175058230757713
1783244207915366400,4.600366455078125,-0.028378332033753395,0.032805539667606354,0.021219924092292786
1783244207925377300,4.610377197265625,-0.02683662809431553,0.028418777510523796,0.015262166038155556
1783244207935388400,4.620388427734375,-0.02708798460662365,0.007472852244973183,-0.00006570899859070778
1783244207945400300,4.630400390625,-0.029305066913366318,-0.011738925240933895,-0.010170540772378445
1783244207955411500,4.640411376953125,-0.02363418973982334,-0.021850597113370895,-0.01523151807487011
1783244207965422300,4.65042236328125,-0.014350144192576408,-0.021070823073387146,-0.015286911278963089
1783244207975433500,4.66043359375,-0.0024626380763947964,-0.012846017256379128,-0.012020492926239967
1783244207985445400,4.6704453125,0.00023381225764751434,0.006108499132096767,-0.010680390521883965
1783244207995456500,4.68045654296875,-0.005529200658202171,0.009545092470943928,-0.012881772592663765
1783244208005467400,4.69046728515625,-0.009931672364473343,0.004479493945837021,-0.012138217687606812
1783244208015479300,4.700479248046875,-0.005056662485003471,0.013849496841430664,-0.01281343400478363
1783244208025490200,4.710490234375,0.002705120015889406,0.02483689971268177,-0.014973524026572704
1783244208035501300,4.720501220703125,0.0081471037119627,0.019537601619958878,-0.020579801872372627
1783244208045512400,4.730512451171875,0.010234489105641842,0.006197297014296055,-0.0294963326305151
1783244208055524400,4.7405244140625,0.01423873845487833,-0.003453860292211175,-0.037445809692144394
1783244208065535200,4.75053515625,0.014567905105650425,-0.01087609026581049,-0.043292779475450516
1783244208075546400,4.76054638671875,0.01580316200852394,-0.006622952874749899,-0.04233875125646591
1783244208085558500,4.77055859375,0.013581020757555962,0.0107488464564085,-0.035550087690353394
1783244208095569400,4.7805693359375,0.013528787530958652,0.029239419847726822,-0.02485189400613308
1783244208105580300,4.790580322265625,0.012180429883301258,0.03770241141319275,-0.018558043986558914
1783244208115591200,4.800591064453125,0.01333574391901493,0.035273630172014236,-0.018704527989029884
1783244208125603300,4.810603271484375,0.011539175175130367,0.014857571572065353,-0.020472867414355278
1783244208135614500,4.820614501953125,0.013130215927958488,0.005400998517870903,-0.025689218193292618
1783244208145625300,4.830625244140625,0.012256698682904243,0.010010131634771824,-0.030864540487527847
1783244208155637200,4.84063720703125,0.009715172462165356,0.005231901071965694,-0.03467511385679245
1783244208165648400,4.8506484375,0.006435489747673273,-0.0022840723395347595,-0.02775595709681511
1783244208175659500,4.860659423828125,0.009766018018126488,-0.007040161639451981,-0.01443060114979744
1783244208185671400,4.87067138671875,0.015114178881049156,0.01080621313303709,-0.0046349624171853065
1783244208195682300,4.880682373046875,0.01847204379737377,0.03170788288116455,-0.005898297764360905
1783244208205693200,4.890693115234375,0.01334785483777523,0.03268526494503021,-0.013475256972014904
1783244208215704300,4.900704345703125,0.005716889165341854,0.020638160407543182,-0.024352379143238068
1783244208225716500,4.910716552734375,0.0026326822116971016,0.014328332617878914,-0.040336672216653824
1783244208235727400,4.920727294921875,-0.00690022949129343,0.01391824334859848,-0.04953485354781151
1783244208245738200,4.93073828125,-0.01842639222741127,0.012721951119601727,-0.045544374734163284
1783244208255750400,4.94075048828125,-0.017719414085149765,0.009239932522177696,-0.031375985592603683
1783244208265761300,4.95076123046875,-0.004793229512870312,0.00826707947999239,-0.015625517815351486
1783244208275772400,4.9607724609375,0.0028423063922673464,-0.0003864050377160311,-0.003972810227423906
1783244208285783300,4.970783203125,0.005378700792789459,-0.00669223815202713,-0.00026755454018712044
1783244208295795500,4.98079541015625,0.005861731246113777,-0.008728542365133762,-0.0017738253809511662
1783244208305806300,4.990806396484375,0.006650825962424278,-0.011785585433244705,-0.0029589319601655006
1783244208315817500,5.0008173828125,0.003905571298673749,-0.01602778211236,-0.003633227664977312
1783244208325829400,5.010829345703125,0.0000336014200001955,-0.007188750430941582,-0.003162114415317774
1783244208335840500,5.020840576171875,-0.003541345242410898,-0.007383301854133606,-0.001271064393222332
1783244208345851400,5.030851318359375,-0.002211096230894327,-0.0010058304760605097,0.004365782719105482
1783244208355862300,5.0408623046875,0.006092707626521587,0.021741341799497604,-0.002060706727206707
1783244208365874200,5.050874267578125,0.01372293010354042,0.030884506180882454,-0.02203468233346939
1783244208375885300,5.06088525390625,0.010407734662294388,0.025882888585329056,-0.04763155058026314
1783244208385896400,5.070896484375,0.021628431975841522,-0.08313867449760437,-0.01683502085506916
1783244208395908400,5.080908447265625,0.06258540600538254,-0.10192816704511642,0.06531582772731781
1783244208405919200,5.090919189453125,0.07906611263751984,0.02156420424580574,0.11710312962532043
1783244208415930400,5.100930419921875,0.048860564827919006,0.07699592411518097,0.1411532461643219
1783244208425942500,5.110942626953125,0.015498612076044083,0.07571733742952347,0.11972837895154953
1783244208435953400,5.120953369140625,0.007838794030249119,0.03747272863984108,0.07646293938159943
1783244208445964300,5.13096435546875,0.0003156301099807024,0.014787920750677586,0.005008729640394449
1783244208455975200,5.14097509765625,-0.009451732039451599,-0.027169546112418175,-0.07122643291950226
1783244208465987300,5.1509873046875,-0.022058870643377304,-0.04956752806901932,-0.1394217312335968
1783244208475998500,5.16099853515625,-0.02536897361278534,-0.024008022621273994,-0.2026275098323822
1783244208486009300,5.17100927734375,0.012365888804197311,-0.041272763162851334,-0.21603119373321533
1783244208496021200,5.181021240234375,0.037204403430223465,-0.10840405523777008,-0.16365912556648254
1783244208506032400,5.191032470703125,0.030551297590136528,-0.18417204916477203,-0.0711456909775734
1783244208516043500,5.20104345703125,0.006693749688565731,-0.11724506318569183,0.012467375956475735
1783244208526054400,5.211054443359375,-0.02866104617714882,0.05248191952705383,0.0667058452963829
1783244208536066300,5.22106640625,-0.05607905238866806,0.1650489717721939,0.09318804740905762
1783244208546077200,5.2310771484375,-0.05862503498792648,0.14281317591667175,0.09674150496721268
1783244208556088300,5.24108837890625,-0.05102340131998062,0.06433973461389542,0.07724247872829437
1783244208566100500,5.2511005859375,-0.04090578481554985,0.014522375538945198,0.039637040346860886
1783244208576111400,5.261111328125,-0.029507925733923912,-0.01920277625322342,-0.004578898660838604
1783244208586122500,5.27112255859375,-0.02870098687708378,-0.036991894245147705,-0.040890034288167953
1783244208596134700,5.281134765625,-0.02282794564962387,-0.02809649147093296,-0.05722624808549881
1783244208606145500,5.2911455078125,-0.011047186329960823,0.009143821895122528,-0.05451115965843201
1783244208616156700,5.30115673828125,0.0095453429967165,0.03852846845984459,-0.03349699079990387
1783244208626167600,5.31116748046875,0.019688524305820465,0.04628732055425644,-0.008924535475671291
1783244208636179500,5.321179443359375,0.017846455797553062,0.04641777276992798,0.00524707417935133
1783244208646190600,5.331190673828125,0.0003862383309751749,0.0379348061978817,0.007763761095702648
1783244208656201700,5.34120166015625,-0.011713073588907719,0.016599465161561966,0.008756989613175392
1783244208666213600,5.351213623046875,-0.01927218958735466,-0.004464806988835335,0.011676613241434097
1783244208676224500,5.361224609375,-0.02292001061141491,-0.005595318507403135,0.01595176011323929
1783244208686235600,5.371235595703125,-0.021102668717503548,0.0037393271923065186,0.015207941643893719
1783244208696246500,5.38124658203125,-0.0160626620054245,0.0029647257179021835,0.014508948661386967
1783244208706258400,5.391258544921875,-0.007956532761454582,-0.0055829561315476894,0.00959248747676611
1783244208716269600,5.40126953125,-0.004300917498767376,-0.001448143506422639,0.002818354871124029
1783244208726280400,5.411280517578125,0.0025660432875156403,0.008539509028196335,-0.0032147704623639584
1783244208736292600,5.421292724609375,0.013938739895820618,0.0026304353959858418,-0.005065122619271278
1783244208746303500,5.431303466796875,0.01085746195167303,-0.010922125540673733,-0.014305759221315384
1783244208756314600,5.441314697265625,-0.0009383838623762131,-0.025559986010193825,-0.020184524357318878
1783244208766326800,5.451326904296875,0.00045418296940624714,-0.04094560444355011,-0.022079896181821823
1783244208776337700,5.461337646484375,-0.004798462614417076,-0.051520682871341705,-0.01993967592716217
1783244208786348500,5.4713486328125,-0.017796285450458527,-0.06660828739404678,-0.009656146168708801
1783244208796359400,5.481359375,-0.026993747800588608,-0.04965804144740105,0.005998973734676838
1783244208806371300,5.491371337890625,-0.027336228638887405,-0.012783116661012173,0.020264197140932083
1783244208816382700,5.5013828125,-0.022696571424603462,0.006402488332241774,0.022922318428754807
1783244208826393600,5.5113935546875,-0.02815205790102482,0.0018591354601085186,0.00985764991492033
1783244208836405500,5.521405517578125,-0.02737656980752945,-0.005700135137885809,-0.012289375998079777
1783244208846416400,5.53141650390625,-0.013593911193311214,-0.011976407840847969,-0.027172185480594635
1783244208856427800,5.541427734375,-0.007959576323628426,-0.0440780371427536,-0.03129548951983452
1783244208866438700,5.551438720703125,-0.009882377460598946,-0.06196436285972595,-0.02493133395910263
1783244208876450600,5.561450439453125,-0.015407394617795944,-0.04250431805849075,-0.012845410034060478
1783244208886461400,5.57146142578125,-0.02399049699306488,-0.022851252928376198,0.0047865803353488445
1783244208896472600,5.58147265625,-0.025304250419139862,-0.020707160234451294,0.02155640721321106
1783244208906484500,5.591484375,-0.0265016071498394,-0.013000504113733768,0.025219053030014038
1783244208916495600,5.60149560546875,-0.032133981585502625,-0.019551856443285942,0.015512865036725998
1783244208926506500,5.611506591796875,-0.03336143121123314,-0.01174480002373457,-0.004094392526894808
1783244208936517400,5.621517333984375,-0.02665780298411846,0.02046174556016922,-0.03187483176589012
1783244208946529500,5.631529541015625,-0.012623477727174759,0.024785654619336128,-0.055245399475097656
1783244208956540700,5.641540771484375,0.005310122389346361,-0.009469482116401196,-0.05781896784901619
1783244208966551600,5.651551513671875,0.02375544235110283,-0.03847476467490196,-0.05247107520699501
1783244208976563500,5.6615634765625,0.029856419190764427,-0.04966741427779198,-0.05229441076517105
1783244208986574600,5.67157470703125,0.009909875690937042,-0.05172896757721901,-0.06190256401896477
1783244208996585700,5.681585693359375,-0.01227245107293129,-0.0635804757475853,-0.07073377072811127
1783244209006597600,5.69159765625,-0.011782162822782993,-0.08975721895694733,-0.07533305138349533
1783244209016608500,5.7016083984375,-0.0017384779639542103,-0.1129421517252922,-0.07420002669095993
1783244209026619600,5.71161962890625,-0.00367725919932127,-0.11182016134262085,-0.06697940081357956
1783244209036630500,5.721630615234375,-0.01656590774655342,-0.087531678378582,-0.062096450477838516
1783244209046642400,5.731642333984375,-0.02919754385948181,-0.06373926252126694,-0.0536411814391613
1783244209056653600,5.741653564453125,-0.024142134934663773,-0.04143374413251877,-0.045558735728263855
1783244209066664400,5.75166455078125,-0.015004562214016914,-0.01768101006746292,-0.04835692048072815
1783244209076676600,5.761676513671875,-0.012995106168091297,0.002118068980053067,-0.0558319054543972
1783244209086687500,5.7716875,-0.018407180905342102,-0.0011272591073065996,-0.06554950773715973
1783244209096698600,5.78169873046875,-0.016806967556476593,-0.023201528936624527,-0.07342708110809326
1783244209106709500,5.79170947265625,-0.006734094582498074,-0.040051352232694626,-0.07251574844121933
1783244209116721700,5.8017216796875,-0.0003582888748496771,-0.05583062767982483,-0.05780709534883499
1783244209126732500,5.811732666015625,0.00022148131392896175,-0.0646321102976799,-0.03671645745635033
1783244209136743400,5.821743408203125,-0.0059602269902825356,-0.06691794842481613,-0.023940440267324448
1783244209146755600,5.831755615234375,-0.007684623822569847,-0.07407386600971222,-0.02202722430229187
1783244209156766700,5.8417666015625,-0.003919040318578482,-0.08514991402626038,-0.03172927349805832
1783244209166777600,5.851777587890625,-0.007311374880373478,-0.09469015896320343,-0.05026673898100853
1783244209176789500,5.86178955078125,-0.012486441992223263,-0.10416735708713531,-0.06722277402877808
1783244209186800400,5.87180029296875,-0.014533347450196743,-0.1180669292807579,-0.07826237380504608
1783244209196811500,5.8818115234375,-0.01350580807775259,-0.13478206098079681,-0.0814332365989685
1783244209206822700,5.89182275390625,-0.01737644523382187,-0.1388566941022873,-0.07549678534269333
1783244209216834600,5.90183447265625,-0.02653820440173149,-0.1415727436542511,-0.05103810504078865
1783244209226845400,5.911845458984375,-0.04475396126508713,-0.144587442278862,-0.013833210803568363
1783244209236856600,5.921856689453125,-0.05799632892012596,-0.13293403387069702,0.030979016795754433
1783244209246868700,5.93186865234375,-0.06557914614677429,-0.10080432891845703,0.06714288145303726
1783244209256879600,5.941879638671875,-0.07921811938285828,-0.06452751159667969,0.08795613050460815
1783244209266890500,5.951890380859375,-0.090669184923172,-0.03770042210817337,0.09425877034664154
1783244209276901400,5.9619013671875,-0.09726502746343613,-0.010564804077148438,0.08059603720903397
1783244209286913500,5.97191357421875,-0.09525301307439804,-0.0023907641880214214,0.053736452013254166
1783244209296924700,5.981924560546875,-0.08465014398097992,-0.014788160100579262,0.019344301894307137
1783244209306935600,5.991935546875,-0.07472933083772659,-0.03518237918615341,-0.01920655183494091
1783244209316947500,6.001947509765625,-0.05704944208264351,-0.0665232241153717,-0.056681886315345764
1783244209326958600,6.01195849609375,-0.041673414409160614,-0.08654886484146118,-0.08471111953258514
1783244209336969700,6.0219697265625,-0.034817107021808624,-0.09027542173862457,-0.09717711061239243
1783244209346981600,6.031981689453125,-0.02913818135857582,-0.08691664040088654,-0.09167848527431488
1783244209356992500,6.041992431640625,-0.01832512393593788,-0.07142749428749084,-0.07004519551992416
1783244209367003400,6.05200341796875,-0.011307427659630775,-0.04993418604135513,-0.04044549539685249
1783244209377014500,6.0620146484375,-0.012530545704066753,-0.0465671680867672,-0.0011269950773566961
1783244209387026400,6.0720263671875,-0.020619630813598633,-0.04646330326795578,0.03473060578107834
1783244209397037600,6.08203759765625,-0.02443799003958702,-0.0400681272149086,0.057420141994953156
1783244209407048400,6.09204833984375,-0.024834800511598587,-0.03640921041369438,0.057549040764570236
1783244209417060600,6.102060546875,-0.026642974466085434,-0.042840324342250824,0.03851616382598877
1783244209427071500,6.112071533203125,-0.019376274198293686,-0.06655151396989822,0.005531050730496645
1783244209437082600,6.12208251953125,-0.007274703588336706,-0.09743733704090118,-0.027427412569522858
1783244209447093500,6.132093505859375,0.007799054030328989,-0.12276240438222885,-0.059670835733413696
1783244209457105700,6.142105712890625,0.015825901180505753,-0.1321062445640564,-0.08193279057741165
1783244209467116500,6.152116455078125,0.015368903987109661,-0.132643923163414,-0.08590303361415863
1783244209477127700,6.162127685546875,0.018049422651529312,-0.12344900518655777,-0.07541235536336899
1783244209487139600,6.1721396484375,0.016126086935400963,-0.10384201258420944,-0.052537135779857635
1783244209497150700,6.182150634765625,0.007860394194722176,-0.08568932861089706,-0.022889092564582825
1783244209507161600,6.19216162109375,-0.0023456383496522903,-0.06383862346410751,0.0023808442056179047
1783244209517173500,6.202173583984375,-0.019016694277524948,-0.03291095420718193,0.018075427040457726
1783244209527184400,6.212184326171875,-0.031166572123765945,-0.021183190867304802,0.018846144899725914
1783244209537195500,6.222195556640625,-0.022333607077598572,-0.044264569878578186,0.003714623861014843
1783244209547206700,6.23220654296875,-0.001753497403115034,-0.06735071539878845,-0.021108169108629227
1783244209557218600,6.242218505859375,0.012677326798439026,-0.08020776510238647,-0.04682439938187599
1783244209567229400,6.2522294921875,0.00975770317018032,-0.09052378684282303,-0.06752088665962219
1783244209577240600,6.262240478515625,0.005318852141499519,-0.09894734621047974,-0.07805543392896652
1783244209587252500,6.27225244140625,0.003918562084436417,-0.08169618993997574,-0.0812874510884285
1783244209597263400,6.282263427734375,0.0005994983948767185,-0.05860922113060951,-0.07681521028280258
1783244209607274500,6.2922744140625,0.0005355824250727892,-0.051467422395944595,-0.06270844489336014
1783244209617285400,6.302285400390625,-0.0006949040107429028,-0.038784392178058624,-0.04551705718040466
1783244209627297300,6.31229736328125,0.001028959872201085,-0.03003138117492199,-0.025371842086315155
1783244209637308400,6.322308349609375,-0.005596912931650877,-0.0240549948066473,-0.0088444072753191
1783244209647319300,6.3323193359375,-0.007535960059612989,-0.026021473109722137,0.00680033303797245
1783244209657331500,6.34233154296875,-0.008334976620972157,-0.025753874331712723,0.01617228239774704
1783244209667342300,6.35234228515625,-0.011527041904628277,-0.02507023885846138,0.022023245692253113
1783244209677353500,6.362353515625,-0.018553411588072777,-0.03136447072029114,0.02285727858543396
1783244209687365600,6.37236572265625,-0.01171148382127285,-0.043208613991737366,0.025413645431399345
1783244209697376500,6.38237646484375,-0.005199128296226263,-0.04774246737360954,0.026660578325390816
1783244209707387400,6.392387451171875,-0.0053586517460644245,-0.030384249985218048,0.025208355858922005
1783244209717398500,6.4023984375,-0.012697583995759487,-0.008428480476140976,0.0157916322350502
1783244209727410400,6.412410400390625,-0.016084861010313034,0.01071618590503931,0.0050500379875302315
1783244209737421600,6.422421630859375,-0.015828974545001984,0.03041149117052555,-0.003808382898569107
1783244209747432400,6.432432373046875,-0.010504252277314663,0.03370795398950577,-0.011939546093344688
1783244209757444400,6.4424443359375,-0.0030060498975217342,0.025767993181943893,-0.02222028747200966
1783244209767455200,6.452455322265625,0.004376232624053955,0.00754211749881506,-0.02915595844388008
1783244209777466600,6.462466552734375,0.01023157313466072,-0.012839702889323235,-0.029993589967489243
1783244209787477500,6.4724775390625,0.01955876126885414,-0.028176845982670784,-0.029157357290387154
1783244209797489400,6.482489501953125,0.025484146550297737,-0.031448982656002045,-0.02731437236070633
1783244209807500300,6.492500244140625,0.0202126856893301,-0.0365995317697525,-0.021893776953220367
1783244209817511400,6.502511474609375,0.018557459115982056,-0.039545513689517975,-0.01331373117864132
1783244209827523600,6.512523681640625,0.01217439491301775,-0.03580110892653465,-0.002531657461076975
1783244209837534500,6.522534423828125,0.010111002251505852,-0.026418903842568398,0.0036473223008215427
1783244209847545300,6.53254541015625,0.009013780392706394,-0.024942448362708092,0.008295869454741478
1783244209857557500,6.5425576171875,0.0073002902790904045,-0.03143744170665741,0.010993162170052528
1783244209867568400,6.552568359375,0.0034347123000770807,-0.039594970643520355,0.01707928441464901
1783244209877579500,6.56257958984375,-0.000806787982583046,-0.045850105583667755,0.026982061564922333
1783244209887590400,6.57259033203125,-0.005742957349866629,-0.04826799035072327,0.03570018708705902
1783244209897602300,6.582602294921875,-0.006358749698847532,-0.042961373925209045,0.04422536492347717
1783244209907613400,6.592613525390625,-0.008680758997797966,-0.028826911002397537,0.041826654225587845
1783244209917624600,6.60262451171875,-0.013178400695323944,-0.02434900775551796,0.03894202411174774
1783244209927636500,6.612636474609375,-0.018184876069426537,-0.029560815542936325,0.034986961632966995
1783244209937647400,6.6226474609375,-0.018712472170591354,-0.02514065057039261,0.02843407914042473
1783244209947658500,6.632658447265625,-0.013436219654977322,-0.016402289271354675,0.01695026271045208
1783244209957669400,6.64266943359375,-0.007306129205971956,-0.008823845535516739,0.004582186229526997
1783244209967681300,6.652681396484375,-0.0005318464245647192,0.005287179723381996,-0.009055329486727715
1783244209977692400,6.6626923828125,0.0025705709122121334,0.013616293668746948,-0.024998363107442856
1783244209987703300,6.672703369140625,0.006501396186649799,-0.002392500638961792,-0.03676154464483261
1783244209997715500,6.682715576171875,0.01348534319549799,-0.03691080957651138,-0.03993111476302147
1783244210007726300,6.692726318359375,0.015947967767715454,-0.05747787281870842,-0.03651934117078781
1783244210017737500,6.702737548828125,0.01160569116473198,-0.062320955097675323,-0.02334992215037346
1783244210027749600,6.71274951171875,0.00604128185659647,-0.05466463044285774,-0.00801890343427658
1783244210037760500,6.722760498046875,0.001627951511181891,-0.04389064013957977,0.006139692384749651
1783244210047771400,6.732771484375,-0.0013385438360273838,-0.03348087519407272,0.014379512518644333
1783244210057782500,6.742782470703125,-0.0024049743078649044,-0.026096269488334656,0.00709019647911191
1783244210067794400,6.75279443359375,-0.004962673876434565,-0.021413899958133698,-0.009472801350057125
1783244210077805600,6.7628056640625,-0.009996222332119942,-0.06340642273426056,-0.03036593645811081
1783244210087816400,6.77281640625,-0.011949384585022926,-0.14660437405109406,-0.04299917072057724
1783244210097828400,6.782828369140625,0.009777629747986794,-0.195993572473526,0.01153829600661993
1783244210107839200,6.792839111328125,0.03340199962258339,-0.12677349150180817,0.08947969973087311
1783244210117850600,6.8028505859375,0.020655810832977295,-0.019182881340384483,0.17774245142936707
1783244210127861500,6.812861572265625,-0.013517073355615139,0.07806004583835602,0.25774461030960083
1783244210137873400,6.822873291015625,-0.05074271187186241,0.1357080489397049,0.28821107745170593
1783244210147884300,6.83288427734375,-0.077179916203022,0.14461977779865265,0.26331159472465515
1783244210157895400,6.8428955078125,-0.0883001908659935,0.11544107645750046,0.19409315288066864
1783244210167907600,6.852907470703125,-0.08042389154434204,0.061862267553806305,0.08474508672952652
1783244210177918500,6.86291845703125,-0.060233134776353836,-0.009428421035408974,-0.05276057496666908
1783244210187929300,6.872929443359375,-0.02571031078696251,-0.10317062586545944,-0.1849316656589508
1783244210197941500,6.88294140625,0.028740324079990387,-0.1772245466709137,-0.26008301973342896
1783244210207952400,6.892952392578125,0.06767839938402176,-0.21238280832767487,-0.23932848870754242
1783244210217963500,6.902963623046875,0.07618923485279083,-0.21640650928020477,-0.12986260652542114
