time,seconds_elapsed,z,y,x
1783245163858120200,0.0651201171875,0.028749758377671242,-0.11133962124586105,-0.08977889269590378
1783245163868131000,0.075131103515625,0.029729269444942474,-0.11752854287624359,-0.11103517562150955
1783245163878143200,0.085143310546875,0.030685070902109146,-0.10443857312202454,-0.10975949466228485
1783245163888155100,0.095155029296875,0.028760137036442757,-0.07874732464551926,-0.08742889016866684
1783245163898167000,0.1051669921875,0.023194173350930214,-0.037721797823905945,-0.04857981204986572
1783245163908178400,0.115178466796875,0.020008767023682594,-0.0028375869151204824,-0.00749495904892683
1783245163918190300,0.1251904296875,0.015663350000977516,0.020636895671486855,0.02884935960173607
1783245163928202200,0.1352021484375,0.010009991936385632,0.03781082481145859,0.05005770921707153
1783245163938213000,0.145213134765625,0.0030082818120718002,0.05002780631184578,0.05516722798347473
1783245163948225300,0.155225341796875,-0.0012037735432386398,0.04555715620517731,0.049648091197013855
1783245163958237200,0.1652373046875,0.005334061104804277,0.028017636388540268,0.04264593869447708
1783245163968249300,0.175249267578125,0.015406135469675064,0.017045944929122925,0.03619549423456192
1783245163978260200,0.18526025390625,0.03264452517032623,0.005175432190299034,0.03259725123643875
1783245163988272000,0.195272216796875,0.0444929301738739,-0.00552861113101244,0.02849331684410572
1783245163998284000,0.205283935546875,0.04909172281622887,-0.010079365223646164,0.021653996780514717
1783245164008296200,0.215296142578125,0.04031740501523018,0.004319547675549984,0.005336543079465628
1783245164018307300,0.225307373046875,0.024500511586666107,0.02964583970606327,-0.017485499382019043
1783245164028319200,0.2353193359375,0.013004444539546967,0.036479778587818146,-0.034340113401412964
1783245164038331400,0.245331298828125,0.008940041996538639,0.033892884850502014,-0.0443953275680542
1783245164048342300,0.25534228515625,0.017843522131443024,0.040755052119493484,-0.05240877717733383
1783245164058354200,0.265354248046875,0.02521115355193615,0.03965010866522789,-0.05361770838499069
1783245164068366300,0.275366455078125,0.029830671846866608,0.006626645103096962,-0.0392768532037735
1783245164078378200,0.285378173828125,0.03691009804606438,-0.018839353695511818,-0.024299688637256622
1783245164088389000,0.29538916015625,0.04161297529935837,-0.012313810177147388,-0.02096487767994404
1783245164098401300,0.3054013671875,0.04016127437353134,0.002980997785925865,-0.02420443296432495
1783245164108413200,0.3154130859375,0.032428253442049026,0.005740298889577389,-0.02378791570663452
1783245164118425000,0.325425048828125,0.024446777999401093,-0.0001711284276098013,-0.010679096914827824
1783245164128436200,0.335436279296875,0.02009756863117218,-0.014367109164595604,0.006459943018853664
1783245164138448100,0.3454482421875,0.006700048688799143,-0.01661182940006256,0.020021773874759674
1783245164148460000,0.3554599609375,-0.005964347161352634,-0.011748631484806538,0.02745998278260231
1783245164158471200,0.36547119140625,-0.014992563985288143,-0.007089540362358093,0.039787229150533676
1783245164168483300,0.3754833984375,-0.017134809866547585,-0.004544890020042658,0.052290238440036774
1783245164178495200,0.3854951171875,-0.01601664535701275,-0.002460010349750519,0.057084180414676666
1783245164188507400,0.39550732421875,-0.021697433665394783,-0.0026240614242851734,0.054617028683423996
1783245164198518300,0.405518310546875,-0.03473416343331337,-0.012570693157613277,0.04917333647608757
1783245164208530200,0.4155302734375,-0.04430929198861122,-0.008567162789404392,0.037111613899469376
1783245164218542000,0.4255419921875,-0.0442441888153553,0.013070854358375072,0.024009451270103455
1783245164228554200,0.43555419921875,-0.03417583927512169,0.02854035794734955,0.0124609200283885
1783245164238565000,0.445565185546875,-0.023169057443737984,0.036158811300992966,0.002647275570780039
1783245164248577000,0.455576904296875,-0.01394253596663475,0.0345768928527832,-0.0037168804556131363
1783245164258589200,0.465589111328125,-0.006313745863735676,0.019403692334890366,-0.010321245528757572
1783245164268601000,0.47560107421875,-0.006024526432156563,-0.007390904240310192,-0.014953814446926117
1783245164278612200,0.4856123046875,-0.004935188218951225,-0.024010520428419113,-0.010505957528948784
1783245164288624400,0.495624267578125,-0.007699016481637955,-0.02081366255879402,-0.0022759907878935337
1783245164298636300,0.50563623046875,-0.00816325843334198,-0.01599525846540928,0.011530179530382156
1783245164308647200,0.515647216796875,-0.009641312062740326,-0.007902177982032299,0.028132593259215355
1783245164318659300,0.525659423828125,-0.00975907314568758,0.01702788472175598,0.03516726568341255
1783245164328671200,0.535671142578125,-0.01773976907134056,0.042803291231393814,0.029169559478759766
1783245164338683100,0.54568310546875,-0.021878106519579887,0.04150121659040451,0.018149742856621742
1783245164348694300,0.5556943359375,-0.017719846218824387,0.020649464800953865,0.006505603902041912
1783245164358706200,0.5657060546875,-0.005115582142025232,0.001849463558755815,-0.002929131733253598
1783245164368718000,0.575718017578125,0.008383714593946934,-0.014046145603060722,-0.00789645966142416
1783245164378730200,0.585730224609375,0.014567350037395954,-0.030469004064798355,-0.005509643815457821
1783245164388741400,0.595741455078125,0.01264268346130848,-0.039134398102760315,0.0035022269003093243
1783245164398753300,0.605753173828125,0.009328160434961319,-0.03304475545883179,0.012995135970413685
1783245164408765400,0.615765380859375,0.003592244116589427,-0.006972145289182663,0.016748595982789993
1783245164418776300,0.6257763671875,-0.003710509743541479,0.013129019178450108,0.015346712432801723
1783245164428788200,0.635788330078125,-0.007985683158040047,0.01419428363442421,0.01584312692284584
1783245164438800100,0.645800048828125,-0.005469680763781071,0.0019401184981688857,0.01586957834661007
1783245164448812000,0.65581201171875,-0.005159156396985054,-0.001828254433348775,0.014057563617825508
1783245164458823000,0.665822998046875,-0.00030406052246689796,-0.002165780635550618,0.011383130215108395
1783245164468835000,0.6758349609375,0.005249695852398872,-0.008627142757177353,0.004994472488760948
1783245164478847000,0.685846923828125,0.0041994391940534115,-0.015941403806209564,0.0030156210996210575
1783245164488859000,0.69585888671875,0.003110206453129649,-0.00914794486016035,-0.0005777818150818348
1783245164498870000,0.7058701171875,-0.002821275731548667,0.0060503361746668816,-0.00265320623293519
1783245164508882000,0.7158818359375,-0.008566513657569885,0.01612081192433834,-0.007286307401955128
1783245164518894000,0.72589404296875,-0.008851204998791218,0.02357393503189087,-0.015981528908014297
1783245164528906000,0.735906005859375,-0.0076471902430057526,0.022295085713267326,-0.02604428306221962
1783245164538917000,0.745917236328125,-0.007278128527104855,0.01550610177218914,-0.031968407332897186
1783245164548929000,0.755928955078125,-0.00685921311378479,0.010892175137996674,-0.034176431596279144
1783245164558941000,0.76594091796875,-0.00954427383840084,-0.0007557428907603025,-0.03588607907295227
1783245164568952000,0.7759521484375,-0.008256369270384312,-0.015872644260525703,-0.023094916716217995
1783245164578964000,0.7859638671875,-0.0007661287672817707,-0.01985182799398899,0.0015582265332341194
1783245164588975900,0.795975830078125,0.016686897724866867,-0.023869207128882408,0.031288158148527145
1783245164598988000,0.805988037109375,0.02743147686123848,-0.029575245454907417,0.05940345302224159
1783245164608999000,0.8159990234375,0.0345463789999485,-0.019834201782941818,0.07020843774080276
1783245164619010800,0.8260107421875,0.03352922201156616,-0.006330220960080624,0.07047753781080246
1783245164629023000,0.83602294921875,0.029282545670866966,0.008188001811504364,0.05800542235374451
1783245164639035000,0.846034912109375,0.027327029034495354,0.030420925468206406,0.03510725125670433
1783245164649046000,0.8560458984375,0.031796347349882126,0.04338119924068451,0.006363219581544399
1783245164659058200,0.86605810546875,0.03216850757598877,0.03125699609518051,-0.013961288146674633
1783245164669070000,0.876070068359375,0.026744980365037918,0.0032458663918077946,-0.024899955838918686
1783245164679081000,0.8860810546875,0.01918143779039383,-0.024400832131505013,-0.022216830402612686
1783245164689093000,0.896093017578125,0.015986178070306778,-0.03906473144888878,-0.010142857208848
1783245164699105000,0.90610498046875,0.014779333025217056,-0.03248714283108711,0.008118964731693268
1783245164709117000,0.916116943359375,0.021680913865566254,-0.015674076974391937,0.028942221775650978
1783245164719127800,0.9261279296875,0.0236374344676733,0.007356033660471439,0.041100770235061646
1783245164729140000,0.936139892578125,0.022918913513422012,0.02394752763211727,0.04214499890804291
1783245164739152000,0.94615185546875,0.015499670058488846,0.028192924335598946,0.03075416386127472
1783245164749164000,0.9561640625,0.007397268898785114,0.014946093782782555,0.015740860253572464
1783245164759175200,0.966175048828125,0.0005712725687772036,-0.000521866837516427,-0.0025095839519053698
1783245164769187000,0.97618701171875,-0.0069332486018538475,-0.003766928566619754,-0.016686655580997467
1783245164779199000,0.986198974609375,-0.010005589574575424,-0.014688653871417046,-0.021440867334604263
1783245164789211100,0.996211181640625,-0.01232626847922802,-0.025330113247036934,-0.010827372781932354
1783245164799222000,1.006221923828125,-0.01008234079927206,-0.02652246505022049,0.0010192436166107655
1783245164809234000,1.01623388671875,-0.008822931908071041,-0.013144074007868767,0.01685759611427784
1783245164819246000,1.02624609375,-0.01653112843632698,-0.009471789933741093,0.03267708048224449
1783245164829257000,1.036257080078125,-0.026842888444662094,-0.011718166060745716,0.041601065546274185
1783245164839268900,1.046268798828125,-0.03172101080417633,-0.005490092560648918,0.04335479065775871
1783245164849281000,1.056281005859375,-0.037110716104507446,0.003372641047462821,0.036087553948163986
1783245164859293000,1.06629296875,-0.037520263344049454,0.01883368007838726,0.019200526177883148
1783245164869304000,1.076303955078125,-0.03524645417928696,0.02303481660783291,0.0018753302283585072
1783245164879316000,1.08631591796875,-0.02985277958214283,0.005617409944534302,-0.010610252618789673
1783245164889328000,1.096328125,-0.02702157199382782,-0.010195109061896801,-0.017484936863183975
1783245164899340000,1.106340087890625,-0.024697978049516678,-0.0164045300334692,-0.018193824216723442
1783245164909351200,1.11635107421875,-0.02230166643857956,-0.006433389149606228,-0.014493628405034542
1783245164919363000,1.126363037109375,-0.015969406813383102,0.0003484009066596627,-0.004311667755246162
1783245164929375000,1.136375,-0.005272288341075182,0.005325050093233585,0.010494975373148918
1783245164939385900,1.1463857421875,0.004927593749016523,0.01943874917924404,0.01436688657850027
1783245164949398000,1.15639794921875,0.011512525379657745,0.039082758128643036,0.007735615596175194
1783245164959410000,1.166409912109375,0.013800639659166336,0.03328733146190643,-0.005296636372804642
1783245164969422000,1.176422119140625,0.01918661594390869,0.008271995931863785,-0.015533827245235443
1783245164979433000,1.186432861328125,0.02204955741763115,-0.01773025467991829,-0.021536504849791527
1783245164989444900,1.19644482421875,0.026242703199386597,-0.038041118532419205,-0.013684174045920372
1783245164999457000,1.20645703125,0.028581790626049042,-0.041796911507844925,0.0005022040568292141
1783245165009469000,1.216468994140625,0.027924256399273872,-0.024941498413681984,0.017382916063070297
1783245165019480000,1.22647998046875,0.02519979514181614,0.000980589771643281,0.02961793914437294
1783245165029492000,1.236491943359375,0.023616280406713486,0.031713467091321945,0.03636106103658676
1783245165039504100,1.246504150390625,0.019428687170147896,0.05336650460958481,0.03243998810648918
1783245165049515000,1.256514892578125,0.019429486244916916,0.0489824116230011,0.018431495875120163
1783245165059527000,1.26652685546875,0.022039052098989487,0.018648425117135048,0.0045042154379189014
1783245165069539000,1.2765390625,0.021308014169335365,-0.013333208858966827,-0.0062403082847595215
1783245165079551000,1.286551025390625,0.02528327703475952,-0.02752259187400341,-0.012545706704258919
1783245165089561900,1.296561767578125,0.027590906247496605,-0.02650260180234909,-0.010860191658139229
1783245165099574000,1.306573974609375,0.029373668134212494,-0.020984206348657608,-0.0027447915636003017
1783245165109586000,1.3165859375,0.03037554956972599,-0.004241979215294123,0.008913462050259113
1783245165119597800,1.326597900390625,0.025464637205004692,0.028961990028619766,0.011066412553191185
1783245165129609200,1.336609130859375,0.011492895893752575,0.05480450391769409,0.00965413823723793
1783245165139621000,1.34662109375,0.005138161592185497,0.04954247549176216,0.0007975203916430473
1783245165149633000,1.356633056640625,0.005794631317257881,0.030318710952997208,-0.0019716343376785517
1783245165159644000,1.366643798828125,0.011068016290664673,0.0220432560890913,-0.00777849368751049
1783245165169656000,1.376656005859375,0.011655510403215885,0.0027534477412700653,-0.01102382130920887
1783245165179668000,1.38666796875,0.006917052902281284,-0.02365940995514393,-0.005797788966447115
1783245165189680000,1.39668017578125,-0.0014226362109184265,-0.02492973767220974,0.0037131579592823982
1783245165199691000,1.40669091796875,-0.007731516845524311,-0.006927137263119221,0.01732277125120163
1783245165209703000,1.416702880859375,-0.015177980996668339,0.012900629080832005,0.03134431689977646
1783245165219715000,1.426715087890625,-0.019212085753679276,0.02374720573425293,0.047063812613487244
1783245165229727000,1.43672705078125,-0.016607781872153282,0.021554358303546906,0.05667462944984436
1783245165239738000,1.446738037109375,-0.010119879618287086,0.020115606486797333,0.055385373532772064
1783245165249750000,1.45675,-0.005213537719100714,0.014471037313342094,0.04078326001763344
1783245165259762200,1.46676220703125,-0.0025629636365920305,0.006053271237760782,0.02078704908490181
1783245165269774000,1.476774169921875,0.0008943520952016115,-0.00931529887020588,0.0023609031923115253
1783245165279785000,1.486784912109375,0.005670673679560423,-0.01811390183866024,-0.005782283842563629
1783245165289797000,1.496797119140625,0.010614831931889057,-0.0077339643612504005,-0.007378316484391689
1783245165299809000,1.50680908203125,0.010206152684986591,0.007732711732387543,-0.006716973148286343
1783245165309820000,1.51681982421875,0.005725916475057602,0.004528929013758898,-0.00006173364818096161
1783245165319832000,1.52683203125,0.0030573857948184013,0.0041200765408575535,0.008023407310247421
1783245165329844000,1.536843994140625,0.0004842395428568125,0.010748950764536858,0.0124069694429636
1783245165339856000,1.54685595703125,0.0008342745713889599,0.019293813034892082,0.01260604802519083
1783245165349867000,1.556866943359375,0.008377944119274616,0.009086450561881065,0.01254426222294569
1783245165359879000,1.56687890625,0.021784678101539612,-0.003545352490618825,0.01386953517794609
1783245165369890800,1.576890869140625,0.03530501201748848,-0.0026835536118596792,0.007629216182976961
1783245165379903000,1.586903076171875,0.03666829317808151,-0.0012449161149561405,-0.005162504035979509
1783245165389914000,1.5969140625,0.02974540740251541,-0.012825938872992992,-0.01466173306107521
1783245165399926000,1.606926025390625,0.019283924251794815,-0.02885289490222931,-0.01590854674577713
1783245165409938200,1.616938232421875,0.013505131006240845,-0.02752717398107052,-0.012158816680312157
1783245165419949000,1.626948974609375,0.003299290779978037,-0.015130202285945415,-0.0004190574400126934
1783245165429961000,1.6369609375,-0.0018259624484926462,-0.020019501447677612,0.023459378629922867
1783245165439973000,1.64697314453125,0.00014584185555577278,-0.024070169776678085,0.04351804032921791
1783245165449985000,1.656985107421875,-0.0010709564667195082,-0.012633223086595535,0.05508042126893997
1783245165459996000,1.666995849609375,-0.007388715632259846,0.004414787515997887,0.05358056724071503
1783245165470007800,1.6770078125,-0.016517499461770058,0.012783504091203213,0.03893052041530609
1783245165480020000,1.68702001953125,-0.02200424298644066,0.015279043465852737,0.023629598319530487
1783245165490031900,1.697031982421875,-0.01936478354036808,0.021681280806660652,0.008514029905200005
1783245165500043000,1.70704296875,-0.018381798639893532,0.03256268799304962,-0.009280192665755749
1783245165510055200,1.71705517578125,-0.020527774468064308,0.03201514109969139,-0.01671360805630684
1783245165520067000,1.727067138671875,-0.02282816916704178,0.01271367259323597,-0.01763230934739113
1783245165530078000,1.737077880859375,-0.025346454232931137,-0.00059840502217412,-0.010781061835587025
1783245165540090000,1.747090087890625,-0.02734503708779812,-0.006858327426016331,0.0004732580855488777
1783245165550102000,1.75710205078125,-0.02796502225100994,0.0031913770362734795,0.01486391481012106
1783245165560114000,1.767114013671875,-0.019487282261252403,0.007607005536556244,0.03267606347799301
1783245165570125000,1.777125,-0.012020576745271683,-0.0016264400910586119,0.053514767438173294
1783245165580137000,1.787136962890625,-0.00410120002925396,-0.0040369159542024136,0.06494876742362976
1783245165590148900,1.79714892578125,-0.0015118082519620657,0.004286527633666992,0.060690104961395264
1783245165600161000,1.8071611328125,-0.0002586296759545803,0.00517644826322794,0.04384443536400795
1783245165610172200,1.817172119140625,0.0018916067201644182,0.0009316360810771585,0.023885643109679222
1783245165620184000,1.82718408203125,0.0074616651982069016,-0.0020374704618006945,0.004352995660156012
1783245165630196000,1.837196044921875,0.014804799109697342,-0.0036593356635421515,-0.007063443772494793
1783245165640208100,1.8472080078125,0.016768086701631546,0.004499257076531649,-0.013742797076702118
1783245165650219000,1.857218994140625,0.025025749579072,0.0095211798325181,-0.014204056933522224
1783245165660231200,1.867231201171875,0.03585682809352875,0.005887295119464397,-0.008129265159368515
1783245165670243000,1.8772431640625,0.041677698493003845,0.006492632441222668,-0.003348891157656908
1783245165680254000,1.88725390625,0.040901586413383484,0.011937418021261692,-0.00649635074660182
1783245165690265900,1.897265869140625,0.03559204190969467,0.00927665363997221,-0.011380322277545929
1783245165700278000,1.907278076171875,0.025149855762720108,-0.0049967775121331215,-0.013658786192536354
1783245165710290000,1.9172900390625,0.016715891659259796,-0.009498052299022675,-0.012918960303068161
1783245165720300800,1.92730078125,0.01090751402080059,0.005075840279459953,-0.010553337633609772
1783245165730313000,1.93731298828125,0.007340475916862488,0.010511885397136211,-0.008379931561648846
1783245165740324900,1.947324951171875,0.006541365757584572,-0.001985956449061632,0.001810234971344471
1783245165750336800,1.957336669921875,0.008078275248408318,0.0009605650557205081,0.006887551862746477
1783245165760348200,1.96734814453125,0.013296755962073803,0.015207404270768166,0.004658039193600416
1783245165770360000,1.977360107421875,0.010774476453661919,0.010584954172372818,-0.005426020361483097
1783245165780372000,1.9873720703125,0.00390686234459281,0.0016086710384115577,-0.01553957350552082
1783245165790383000,1.997383056640625,-0.006726873107254505,0.00467956205829978,-0.023079782724380493
1783245165800395000,2.00739501953125,-0.02089950069785118,-0.00030998699367046356,-0.02497280389070511
1783245165810407000,2.017406982421875,-0.03329172357916832,-0.005761211737990379,-0.015552937984466553
1783245165820419000,2.027419189453125,-0.034876804798841476,-0.014861701987683773,0.002501022070646286
1783245165830430000,2.037429931640625,-0.032696474343538284,-0.02030147612094879,0.026917148381471634
1783245165840441900,2.04744189453125,-0.03167896717786789,-0.011575477197766304,0.04560970515012741
1783245165850454000,2.0574541015625,-0.031400397419929504,0.002261242363601923,0.05522212013602257
1783245165860466000,2.0674658203125,-0.03038344904780388,-0.002623899606987834,0.06063849478960037
1783245165870477000,2.07747705078125,-0.02714238129556179,-0.013224879279732704,0.05569566413760185
1783245165880489200,2.0874892578125,-0.02380666323006153,-0.01769275777041912,0.04188793897628784
1783245165890501000,2.097501220703125,-0.023425830528140068,-0.018310878425836563,0.01932031475007534
1783245165900512000,2.107511962890625,-0.021917423233389854,-0.03116435557603836,0.006062590051442385
1783245165910524000,2.11752392578125,-0.015439284965395927,-0.03843425214290619,-0.003567666746675968
1783245165920536000,2.1275361328125,-0.010002599097788334,-0.020476985722780228,-0.006346177309751511
1783245165930548000,2.1375478515625,-0.004310091957449913,0.013071920722723007,-0.007913979701697826
1783245165940558800,2.147558837890625,-0.0027165296487510204,0.026169301941990852,-0.008038743399083614
1783245165950571000,2.157571044921875,-0.003591644112020731,0.02520257607102394,-0.0019997593481093645
1783245165960583000,2.1675830078125,-0.010387753136456013,0.02572854422032833,0.0013459366746246815
1783245165970595000,2.177594970703125,-0.013512174598872662,0.01533688884228468,0.0066930316388607025
1783245165980606000,2.18760595703125,-0.013182992115616798,-0.013087300583720207,0.012763923034071922
1783245165990618000,2.1976181640625,-0.008782116696238518,-0.03020024299621582,0.025962814688682556
1783245166000630000,2.207630126953125,-0.0004971262533217669,-0.018115989863872528,0.031273435801267624
1783245166010641200,2.21764111328125,0.012173661030828953,0.002544814720749855,0.03403326869010925
1783245166020653000,2.227653076171875,0.025054454803466797,0.0043900152668356895,0.03222651407122612
1783245166030665000,2.2376650390625,0.03589724749326706,-0.005681260954588652,0.02664080075919628
1783245166040677000,2.247677001953125,0.03934630751609802,-0.016174381598830223,0.019387949258089066
1783245166050688000,2.25768798828125,0.0322180911898613,-0.03266414254903793,0.014768429100513458
1783245166060700000,2.267699951171875,0.02237238548696041,-0.03672146797180176,0.009559020400047302
1783245166070712000,2.277712158203125,0.013015102595090866,-0.037183262407779694,0.01321287639439106
1783245166080724000,2.287723876953125,0.005659494083374739,-0.03296768665313721,0.021299250423908234
1783245166090734800,2.29773486328125,-0.0013912247959524393,-0.018439074978232384,0.03286802023649216
1783245166100747000,2.3077470703125,-0.0059976219199597836,0.0005258724559098482,0.04068519175052643
1783245166110759000,2.317759033203125,-0.005464456509798765,0.010491421446204185,0.04659048467874527
1783245166120770000,2.32777001953125,-0.004200437106192112,0.013481734320521355,0.042456503957509995
1783245166130782000,2.337781982421875,-0.0015718971844762564,0.01206839457154274,0.03046455606818199
1783245166140794000,2.347794189453125,-0.005696861073374748,-0.006164408288896084,0.016254577785730362
1783245166150806000,2.357805908203125,-0.00916349794715643,-0.00924089178442955,0.0016673803329467773
1783245166160817000,2.36781689453125,-0.009322812780737877,0.006712989881634712,-0.014892995357513428
1783245166170829000,2.3778291015625,-0.007406668737530708,0.01572832278907299,-0.025296103209257126
1783245166180841000,2.387841064453125,0.0004073583986610174,0.014993879944086075,-0.026442784816026688
1783245166190853000,2.39785302734375,0.0074559468775987625,0.013426343910396099,-0.02074441686272621
1783245166200864000,2.407864013671875,0.009153946302831173,0.01507983636111021,-0.01980617083609104
1783245166210876000,2.4178759765625,0.0006110584363341331,0.016264943405985832,-0.020196590572595596
1783245166220887800,2.4278876953125,-0.011094918474555016,0.01025333721190691,-0.01960848644375801
1783245166230900000,2.43789990234375,-0.02045619674026966,0.0008148273918777704,-0.015743974596261978
1783245166240911000,2.4479111328125,-0.02600548043847084,-0.0016246805898845196,-0.0058144209906458855
1783245166250923000,2.457923095703125,-0.02719964273273945,0.007743521593511105,0.006250497419387102
1783245166260935200,2.46793505859375,-0.024716094136238098,0.008341563865542412,0.018624793738126755
1783245166270946000,2.477946044921875,-0.02008645422756672,0.010668368078768253,0.025374572724103928
1783245166280958000,2.4879580078125,-0.01680004969239235,0.01489325612783432,0.024680981412529945
1783245166290970000,2.49797021484375,-0.014180832542479038,0.015173687599599361,0.015777235850691795
1783245166300982000,2.50798193359375,-0.01144182775169611,0.014234870672225952,-0.0008744888473302126
1783245166310993000,2.517992919921875,-0.0053498465567827225,0.013382925651967525,-0.017613522708415985
1783245166321005000,2.528005126953125,-0.0020230263471603394,0.005646442994475365,-0.030739443376660347
1783245166331017000,2.538016845703125,0.0006079105660319328,0.005702368915081024,-0.03732118010520935
1783245166341028900,2.54802880859375,-0.002554269740357995,0.019934887066483498,-0.04520782083272934
1783245166351040000,2.5580400390625,-0.008753309957683086,0.028580306097865105,-0.041333988308906555
1783245166361052200,2.56805224609375,-0.009314220398664474,0.024776725098490715,-0.033067069947719574
1783245166371064000,2.57806396484375,-0.00786998774856329,0.028578121215105057,-0.026174278929829597
1783245166381075000,2.588074951171875,-0.008386587724089622,0.019028078764677048,-0.014293195679783821
1783245166391087000,2.598087158203125,-0.007561541628092527,0.010871881619095802,0.000095331110060215
1783245166401099000,2.60809912109375,-0.0034847783390432596,0.02253732830286026,0.006358166690915823
1783245166411111200,2.618111083984375,0.0015057192649692297,0.04195869714021683,0.0003018719144165516
1783245166421122000,2.6281220703125,0.0023060361854732037,0.04836259409785271,-0.011054277420043945
1783245166431134000,2.638134033203125,0.00515695009380579,0.037222057580947876,-0.022722918540239334
1783245166441145900,2.648145751953125,0.010805034078657627,0.01781618967652321,-0.03214259445667267
1783245166451161600,2.65816162109375,0.01259920559823513,-0.00705746840685606,-0.03544997423887253
1783245166461172500,2.66817236328125,0.010963620617985725,-0.023562045767903328,-0.03646473586559296
1783245166471184400,2.678184326171875,-0.00042485492303967476,-0.02103523723781109,-0.027682427316904068
1783245166481196500,2.688196533203125,-0.013402067124843597,-0.01826491206884384,-0.0075277783907949924
1783245166491207700,2.698207763671875,-0.0187773909419775,-0.020012743771076202,0.020751263946294785
1783245166501219600,2.708219482421875,-0.022721854969859123,-0.016297420486807823,0.044172391295433044
1783245166511231700,2.718231689453125,-0.023527728393673897,-0.012975659221410751,0.059592362493276596
1783245166521243600,2.72824365234375,-0.022280430421233177,-0.0055921426974236965,0.06040111184120178
1783245166531254500,2.738254638671875,-0.025202449411153793,0.0018963998882099986,0.04937455803155899
1783245166541266700,2.7482666015625,-0.03328786790370941,0.009749478660523891,0.029812268912792206
1783245166551278600,2.758278564453125,-0.03850127011537552,0.007176864892244339,0.00938369333744049
1783245166561290500,2.76829052734375,-0.04392547160387039,-0.006000890396535397,-0.0010319999419152737
1783245166571301600,2.778301513671875,-0.04084153100848198,-0.017149681225419044,0.001201593317091465
1783245166581313500,2.7883134765625,-0.02940324693918228,-0.02014334499835968,0.005640788469463587
1783245166591325400,2.798325439453125,-0.015827249735593796,-0.0286319050937891,0.014084871858358383
1783245166601336600,2.808336669921875,-0.005917157046496868,-0.03555723652243614,0.022197233512997627
1783245166611348700,2.8183486328125,-0.0033733060117810965,-0.021000400185585022,0.02431418001651764
1783245166621360600,2.828360595703125,-0.007961880415678024,0.0007853772258386016,0.020447194576263428
1783245166631372800,2.838372802734375,-0.017760982736945152,0.010939477942883968,0.014070785604417324
1783245166641383700,2.8483837890625,-0.025531858205795288,0.02105703391134739,0.0011176075786352158
1783245166651395600,2.8583955078125,-0.030764436349272728,0.024985196068882942,-0.007249778136610985
1783245166661407500,2.868407470703125,-0.028940655291080475,0.02155589871108532,-0.01355474442243576
1783245166671419600,2.878419677734375,-0.023771993815898895,0.012578117661178112,-0.015009362250566483
1783245166681430500,2.888430419921875,-0.010150081478059292,0.002955955220386386,-0.008894246071577072
1783245166691442400,2.8984423828125,0.0019486594246700406,-0.0110328309237957,0.003297438845038414
1783245166701454600,2.90845458984375,0.015427393838763237,-0.018250849097967148,0.016680845990777016
1783245166711466500,2.918466552734375,0.023918084800243378,-0.02704966627061367,0.031531963497400284
1783245166721477600,2.9284775390625,0.02816629596054554,-0.03741580247879028,0.0461091473698616
1783245166731489500,2.938489501953125,0.031037716194987297,-0.047533951699733734,0.055395059287548065
1783245166741501700,2.948501708984375,0.029324021190404892,-0.05513589084148407,0.06268580257892609
1783245166751512600,2.9585126953125,0.032234322279691696,-0.06483379006385803,0.06974850594997406
1783245166761524700,2.968524658203125,0.04070643335580826,-0.06222410872578621,0.07373833656311035
1783245166771536600,2.97853662109375,0.05781644582748413,-0.047704555094242096,0.0694490522146225
1783245166781548500,2.988548583984375,0.07748490571975708,-0.043266989290714264,0.06023711338639259
1783245166791559700,2.9985595703125,0.09191018342971802,-0.04749608784914017,0.047065913677215576
1783245166801571600,3.008571533203125,0.09771475940942764,-0.04203319922089577,0.02152586542069912
1783245166811583500,3.01858349609375,0.09926312416791916,-0.03216352313756943,-0.013176720589399338
1783245166821594400,3.028594482421875,0.09681764990091324,-0.02992875874042511,-0.0473359115421772
1783245166831606500,3.0386064453125,0.09282423555850983,-0.026296472176909447,-0.07593772560358047
1783245166841618400,3.048618408203125,0.08694592863321304,-0.01306604128330946,-0.09819241613149643
1783245166851630600,3.058630615234375,0.07664322108030319,0.0002742656506597996,-0.10963708162307739
1783245166861641700,3.068641845703125,0.06631090492010117,0.0013693035580217838,-0.10408325493335724
1783245166871653600,3.078653564453125,0.056202348321676254,-0.008002892136573792,-0.08386080712080002
1783245166881665500,3.08866552734375,0.04411064460873604,-0.030579468235373497,-0.048052769154310226
1783245166891677700,3.098677734375,0.03152241185307503,-0.05515564978122711,-0.008311750367283821
1783245166901688600,3.1086884765625,0.013434430584311485,-0.06597825884819031,0.019115570932626724
1783245166911700500,3.118700439453125,-0.010204851627349854,-0.03685419633984566,0.025331124663352966
1783245166921712600,3.128712646484375,-0.039983510971069336,-0.005535691510885954,0.022785909473896027
1783245166931724500,3.138724609375,-0.06761780381202698,0.0049821967259049416,0.023567548021674156
1783245166941735400,3.1487353515625,-0.08116992563009262,0.011921219527721405,0.030329711735248566
1783245166951747600,3.15874755859375,-0.08077311515808105,0.008003709837794304,0.04466843605041504
1783245166961759500,3.168759521484375,-0.0735151618719101,-0.020739197731018066,0.06728527694940567
1783245166971770600,3.1787705078125,-0.06372831016778946,-0.040545396506786346,0.0873042643070221
1783245166981782800,3.18878271484375,-0.05619480460882187,-0.030858732759952545,0.09061956405639648
1783245166991794700,3.198794677734375,-0.050699371844530106,-0.01043095625936985,0.08183592557907104
1783245167001806600,3.208806640625,-0.043977461755275726,0.010025962255895138,0.06463485211133957
1783245167011817700,3.218817626953125,-0.03787562623620033,0.02445070818066597,0.04106507822871208
1783245167021829600,3.22882958984375,-0.033379990607500076,0.031093373894691467,0.01715979352593422
1783245167031841500,3.238841552734375,-0.027581220492720604,0.01859196275472641,-0.011740032583475113
1783245167041853700,3.248853759765625,-0.02227589674293995,0.0024788302835077047,-0.03680255636572838
1783245167051864600,3.258864501953125,-0.013262161053717136,-0.017946016043424606,-0.05870812013745308
1783245167061876500,3.26887646484375,0.0046258168295025826,-0.028750676661729813,-0.07088378816843033
1783245167071888600,3.278888671875,0.01660844311118126,-0.038084257394075394,-0.07590091973543167
1783245167081899500,3.2888994140625,0.023487914353609085,-0.028734959661960602,-0.0797002986073494
1783245167091911700,3.29891162109375,0.018006596714258194,-0.020997945219278336,-0.08140578120946884
1783245167101923600,3.308923583984375,0.004481055308133364,-0.012508220970630646,-0.08284901827573776
1783245167111935500,3.318935546875,-0.015188252553343773,-0.007845559157431126,-0.08408073335886002
1783245167121946600,3.328946533203125,-0.03793288394808769,-0.011956301517784595,-0.0803966373205185
1783245167131958500,3.33895849609375,-0.05878596752882004,-0.023365549743175507,-0.07281249016523361
1783245167141970700,3.348970703125,-0.07507103681564331,-0.027471188455820084,-0.06015261262655258
1783245167151982600,3.358982666015625,-0.08209938555955887,-0.029632877558469772,-0.05095405504107475
1783245167161993500,3.368993408203125,-0.07324335724115372,-0.04711977764964104,-0.05268023908138275
1783245167172005600,3.379005615234375,-0.06798042356967926,-0.02649146504700184,-0.06240610405802727
1783245167182017500,3.389017578125,-0.07581017166376114,-0.012837757356464863,-0.07662609964609146
1783245167192028400,3.3990283203125,-0.0903739333152771,-0.0069313980638980865,-0.07784582674503326
1783245167202040600,3.40904052734375,-0.09733064472675323,-0.006322067230939865,-0.07350034266710281
1783245167212052500,3.419052490234375,-0.10144469887018204,-0.003187526250258088,-0.05675331875681877
1783245167222064400,3.429064453125,-0.09799845516681671,-0.010792875662446022,-0.03704356402158737
1783245167232075800,3.43907568359375,-0.0945187658071518,-0.03691262751817703,-0.01297098770737648
1783245167242087700,3.449087646484375,-0.08843754231929779,-0.06533825397491455,0.014266913756728172
1783245167252099600,3.459099609375,-0.08615042269229889,-0.08258114755153656,0.03813416138291359
1783245167262111700,3.46911181640625,-0.0881376788020134,-0.0979827493429184,0.0623570941388607
1783245167272122600,3.47912255859375,-0.0888519361615181,-0.10227123647928238,0.089406818151474
1783245167282134500,3.489134521484375,-0.08650405704975128,-0.09327048063278198,0.10983657091856003
1783245167292146700,3.499146728515625,-0.08599379658699036,-0.08841501176357269,0.1267460435628891
1783245167302158600,3.50915869140625,-0.09167410433292389,-0.07001155614852905,0.12928758561611176
1783245167312169500,3.51916943359375,-0.09964920580387115,-0.04316396266222,0.11392885446548462
1783245167322181600,3.529181640625,-0.10335277765989304,-0.025048568844795227,0.08654606342315674
1783245167332193500,3.539193603515625,-0.10396184772253036,-0.021122269332408905,0.05142296850681305
1783245167342204700,3.54920458984375,-0.10244064033031464,-0.0214660856872797,0.02295576222240925
1783245167352216600,3.559216552734375,-0.09791246801614761,-0.027068311348557472,0.007556564640253782
1783245167362228700,3.569228759765625,-0.09174705296754837,-0.03414837270975113,0.00883018970489502
1783245167372240600,3.57924072265625,-0.0935225784778595,-0.044652413576841354,0.02870243228971958
1783245167382251500,3.58925146484375,-0.10217209905385971,-0.05838431417942047,0.06660203635692596
1783245167392263700,3.599263671875,-0.11621787399053574,-0.06475592404603958,0.11458554118871689
1783245167402275600,3.609275634765625,-0.12086239457130432,-0.05051381513476372,0.15955524146556854
1783245167412287500,3.61928759765625,-0.11382924765348434,-0.031135855242609978,0.19382452964782715
1783245167422298600,3.629298583984375,-0.10270760953426361,-0.015186188742518425,0.20584547519683838
1783245167432310500,3.639310546875,-0.08969034999608994,0.001205834443680942,0.19606022536754608
1783245167442322400,3.649322509765625,-0.07555457204580307,0.004981405567377806,0.16978591680526733
1783245167452329500,3.65932958984375,-0.05745173245668411,-0.011511284857988358,0.1399766206741333
1783245167462341400,3.66934130859375,-0.03240784630179405,-0.032186947762966156,0.11286398023366928
1783245167472353300,3.679353271484375,-0.009435152634978294,-0.05159926041960716,0.08961112052202225
1783245167482365400,3.689365478515625,0.003569283289834857,-0.06916339695453644,0.07335830479860306
1783245167492376300,3.699376220703125,0.013387558981776237,-0.06763101369142532,0.06441274285316467
1783245167502388200,3.70938818359375,0.02153758332133293,-0.041434887796640396,0.06981143355369568
1783245167512400400,3.719400390625,0.035587623715400696,0.006266854237765074,0.07205887883901596
1783245167522412300,3.729412353515625,0.05490417033433914,0.06083007529377937,0.05612742528319359
1783245167532423200,3.739423095703125,0.06794140487909317,0.11334281414747238,0.007093304768204689
1783245167542435300,3.749435302734375,0.07923044264316559,0.1427658498287201,-0.06538435071706772
1783245167552447200,3.759447265625,0.09240616858005524,0.12301504611968994,-0.13636824488639832
1783245167562458400,3.769458251953125,0.10973656922578812,0.06078405678272247,-0.181759774684906
1783245167572470500,3.779470458984375,0.11854178458452225,-0.01048932783305645,-0.18567168712615967
1783245167582482400,3.789482421875,0.12568996846675873,-0.04156787693500519,-0.16152691841125488
1783245167592494300,3.799494384765625,0.12731395661830902,-0.024657871574163437,-0.1265801191329956
1783245167602505500,3.80950537109375,0.12583838403224945,0.031167354434728622,-0.10532556474208832
1783245167612517400,3.819517333984375,0.11479078233242035,0.09814798831939697,-0.09977234154939651
1783245167622529300,3.829529296875,0.09814639389514923,0.15311546623706818,-0.11318923532962799
1783245167632541400,3.83954150390625,0.07196459174156189,0.16797617077827454,-0.13685567677021027
1783245167642552300,3.84955224609375,0.052635252475738525,0.15146608650684357,-0.16495728492736816
1783245167652564200,3.859564208984375,0.04465669021010399,0.12665633857250214,-0.19130820035934448
1783245167662576400,3.869576416015625,0.055910270661115646,0.08211559057235718,-0.2018570750951767
1783245167672587500,3.87958740234375,0.06998108327388763,0.03280530124902725,-0.19357064366340637
1783245167682599400,3.889599365234375,0.08791875094175339,-0.02636885829269886,-0.17337049543857574
1783245167692611300,3.899611328125,0.09010787308216095,-0.051851578056812286,-0.1387621909379959
1783245167702623500,3.90962353515625,0.08262863755226135,-0.057143013924360275,-0.09506208449602127
1783245167712634400,3.91963427734375,0.06826327741146088,-0.0414828285574913,-0.0518493689596653
1783245167722646300,3.929646240234375,0.051493942737579346,-0.010828457772731781,-0.011957955546677113
1783245167732658400,3.939658447265625,0.029182512313127518,0.01993051916360855,0.02215554006397724
1783245167742670300,3.94967041015625,0.011869233101606369,0.03605351597070694,0.041407786309719086
1783245167752681200,3.95968115234375,-0.0015128850936889648,0.035904381424188614,0.045375365763902664
1783245167762693400,3.969693359375,-0.02083245851099491,0.0202823244035244,0.042882803827524185
1783245167772705300,3.979705322265625,-0.03526519238948822,0.00775987608358264,0.033434972167015076
1783245167782716200,3.989716064453125,-0.03397514298558235,-0.005063782911747694,0.02166454866528511
1783245167792728300,3.999728271484375,-0.02444608509540558,-0.015001634135842323,0.01624208688735962
1783245167802740200,4.009740234375,-0.010241435840725899,-0.0169112216681242,0.014064358547329903
1783245167812752100,4.019752197265625,-0.0024333144538104534,-0.01041710376739502,0.01049705408513546
1783245167822763500,4.029763427734375,-0.011486032046377659,-0.002353960881009698,0.010572962462902069
1783245167832775400,4.039775390625,-0.03047836571931839,0.0025025797076523304,0.008195025846362114
1783245167842787300,4.049787353515625,-0.04303266853094101,0.00711474847048521,0.005568461958318949
1783245167852799500,4.059799560546875,-0.046793852001428604,0.009611462242901325,0.0024179425090551376
1783245167862810400,4.069810302734375,-0.04671204090118408,-0.00019717030227184296,0.009334508329629898
1783245167872822300,4.079822265625,-0.04596582427620888,-0.012895388528704643,0.019915780052542686
1783245167882834400,4.08983447265625,-0.04975192993879318,-0.01816035434603691,0.03262526914477348
1783245167892845300,4.09984521484375,-0.050257664173841476,-0.01786154881119728,0.043467264622449875
1783245167902857200,4.109857177734375,-0.04990645870566368,-0.01940516196191311,0.04989931732416153
1783245167912869400,4.119869384765625,-0.04099632054567337,-0.014971000142395496,0.05405943840742111
1783245167922881300,4.12988134765625,-0.02982899360358715,-0.00780081283301115,0.05173119157552719
1783245167932892400,4.139892333984375,-0.020873047411441803,0.0022110750433057547,0.04442907124757767
1783245167942904300,4.149904296875,-0.010998839512467384,0.005152001511305571,0.032271858304739
1783245167952916500,4.15991650390625,-0.010801233351230621,0.0007756288396194577,0.01879732869565487
1783245167962928400,4.169928466796875,-0.015297435224056244,-0.0037083399947732687,0.007681922055780888
1783245167972939300,4.179939208984375,-0.023004356771707535,-0.008382720872759819,-0.0006929205264896154
1783245167982951400,4.189951416015625,-0.029192278161644936,-0.01579061895608902,0.005501840729266405
1783245167992963300,4.19996337890625,-0.03566375747323036,-0.0092922393232584,0.020481856539845467
1783245168002975200,4.209975341796875,-0.031737346202135086,0.0043786694295704365,0.0404583103954792
1783245168012986400,4.219986328125,-0.018575206398963928,0.029578831046819687,0.05688788369297981
1783245168022998300,4.229998291015625,-0.00277275824919343,0.03405139967799187,0.06490673124790192
1783245168033010200,4.24001025390625,0.010089244693517685,0.011675786226987839,0.06139535829424858
1783245168043021600,4.250021484375,0.021450722590088844,0.006406879052519798,0.04104828089475632
1783245168053033500,4.260033447265625,0.010802337899804115,0.008306246250867844,0.020404785871505737
1783245168063045400,4.27004541015625,0.006869320757687092,0.010310223326086998,0.004243763629347086
1783245168073057500,4.2800576171875,0.0023978736717253923,0.024311793968081474,-0.017792828381061554
1783245168083068400,4.290068359375,0.0028116717003285885,0.08252684026956558,-0.050286632031202316
1783245168093080300,4.300080322265625,0.003079851856455207,0.12407588213682175,-0.08859620243310928
1783245168103092500,4.310092529296875,0.0068912198767066,0.14476555585861206,-0.12980149686336517
1783245168113104400,4.3201044921875,0.01637526974081993,0.1353515386581421,-0.16812118887901306
1783245168123115300,4.330115234375,0.02740216627717018,0.11529140174388885,-0.19525288045406342
1783245168133127400,4.34012744140625,0.04045511409640312,0.09466549009084702,-0.2019437998533249
1783245168143139300,4.350139404296875,0.05138810724020004,0.06128344684839249,-0.18294218182563782
1783245168153150200,4.360150146484375,0.06348738074302673,0.013858407735824585,-0.13587214052677155
1783245168163162000,4.370162109375,0.07670916616916656,-0.019699815660715103,-0.07965265959501266
1783245168173174300,4.38017431640625,0.08593276143074036,-0.03702421486377716,-0.018774133175611496
1783245168183186200,4.390186279296875,0.08330997824668884,-0.031058043241500854,0.027476724237203598
1783245168193197300,4.400197265625,0.07206158339977264,-0.012377032078802586,0.0607723668217659
1783245168203209500,4.41020947265625,0.06560560315847397,0.009628986939787865,0.07717736065387726
1783245168213221400,4.420221435546875,0.06731241941452026,0.033284250646829605,0.07367371022701263
1783245168223233300,4.4302333984375,0.07045099139213562,0.05717393755912781,0.05208291485905647
1783245168233244400,4.440244384765625,0.0776849314570427,0.06737890094518661,0.017980339005589485
1783245168243256300,4.45025634765625,0.08916647732257843,0.06049632653594017,-0.02364002913236618
1783245168253268200,4.460268310546875,0.10622189193964005,0.053666647523641586,-0.06472035497426987
1783245168263279400,4.470279296875,0.1296776384115219,0.04457083344459534,-0.10021062940359116
1783245168273291300,4.480291259765625,0.148948535323143,0.026508476585149765,-0.12139394134283066
1783245168283303200,4.49030322265625,0.1678256094455719,0.0023264975752681494,-0.12576624751091003
1783245168293315300,4.5003154296875,0.18036989867687225,-0.011928604915738106,-0.1112765222787857
1783245168303326500,4.510326416015625,0.18011924624443054,-0.02219834364950657,-0.0844816118478775
1783245168313338400,4.52033837890625,0.1652311086654663,-0.03122539632022381,-0.05731870234012604
1783245168323350500,4.5303505859375,0.1426449567079544,-0.03420856595039368,-0.03130275011062622
1783245168333362400,4.540362548828125,0.11735158413648605,-0.022597983479499817,-0.013761571608483791
1783245168343373300,4.550373291015625,0.09453592449426651,-0.014508131891489029,-0.0068298205733299255
1783245168353385500,4.560385498046875,0.08380871266126633,-0.01054161973297596,-0.010323887690901756
1783245168363397400,4.5703974609375,0.07518793642520905,-0.01429605670273304,-0.021427948027849197
1783245168373408300,4.580408203125,0.06339998543262482,-0.02518598921597004,-0.03503457084298134
1783245168383420200,4.590420166015625,0.050763487815856934,-0.029838580638170242,-0.055031731724739075
1783245168393432300,4.600432373046875,0.03792225569486618,-0.02935228869318962,-0.0759764313697815
1783245168403444200,4.6104443359375,0.023350929841399193,-0.02420077472925186,-0.08994121104478836
1783245168413455400,4.620455322265625,0.009245764464139938,-0.026439428329467773,-0.09561187773942947
1783245168423467500,4.630467529296875,-0.008392095565795898,-0.034796420484781265,-0.08937392383813858
1783245168433479400,4.6404794921875,-0.04757891222834587,-0.03307069092988968,-0.06975974887609482
1783245168443491300,4.6504912109375,-0.10136440396308899,-0.021668165922164917,-0.04276048019528389
1783245168453503200,4.660503173828125,-0.14688609540462494,-0.014895481057465076,-0.009704258292913437
1783245168463515100,4.67051513671875,-0.18344634771347046,-0.009138626046478748,0.027353301644325256
1783245168473527300,4.68052734375,-0.20299607515335083,-0.003991002216935158,0.0629003718495369
1783245168483538200,4.6905380859375,-0.21017786860466003,-0.0051061236299574375,0.09901995956897736
1783245168493550000,4.700550048828125,-0.20821432769298553,-0.006033169571310282,0.12076466530561447
1783245168503562200,4.710562255859375,-0.19757722318172455,-0.00009016995318233967,0.12296974658966064
1783245168513574100,4.72057421875,-0.18887534737586975,-0.007358469069004059,0.11004064232110977
1783245168523585000,4.7305849609375,-0.1767987161874771,-0.025608574971556664,0.08969452232122421
1783245168533597200,4.74059716796875,-0.15850971639156342,-0.0402303971350193,0.06576495617628098
1783245168543609000,4.750609130859375,-0.13346639275550842,-0.04077761620283127,0.04534820094704628
1783245168553621000,4.76062109375,-0.1073644831776619,-0.027501756325364113,0.019581586122512817
1783245168563632000,4.770632080078125,-0.08985557407140732,-0.015756474807858467,-0.011665238998830318
1783245168573644300,4.780644287109375,-0.08451087772846222,-0.02389562875032425,-0.03750775381922722
1783245168583656200,4.79065625,-0.07826080918312073,-0.03476462513208389,-0.05380120500922203
1783245168593667000,4.8006669921875,-0.06419932097196579,-0.036883171647787094,-0.055752769112586975
1783245168603679200,4.81067919921875,-0.048589274287223816,-0.03401445969939232,-0.04532197490334511
1783245168613691100,4.820691162109375,-0.037318773567676544,-0.008049171417951584,-0.03816233202815056
1783245168623703300,4.830703369140625,-0.03261833265423775,0.03798403963446617,-0.03997989371418953
1783245168633714200,4.840714111328125,-0.03147343918681145,0.06154156103730202,-0.04997314140200615
1783245168643726000,4.85072607421875,-0.02917848713696003,0.052180126309394836,-0.05876560136675835
1783245168653738000,4.860738037109375,-0.03358415141701698,0.035990502685308456,-0.06405624002218246
1783245168663750100,4.870750244140625,-0.03378655016422272,0.008640371263027191,-0.05723481625318527
1783245168673761000,4.880760986328125,-0.03007091023027897,-0.02970781736075878,-0.030127834528684616
1783245168683773000,4.89077294921875,-0.022356845438480377,-0.04517125338315964,-0.000684262253344059
1783245168693785000,4.90078515625,-0.014483209699392319,-0.027176538482308388,0.023418942466378212
1783245168703796200,4.910796142578125,-0.016749676316976547,0.0029125516302883625,0.0403006374835968
1783245168713808100,4.92080810546875,-0.02874455414712429,0.039852458983659744,0.04812580347061157
1783245168723820300,4.9308203125,-0.04349696636199951,0.06884858012199402,0.04690847918391228
1783245168733832200,4.940832275390625,-0.05292322486639023,0.08410236239433289,0.044309500604867935
1783245168743843000,4.950843017578125,-0.051128581166267395,0.07084111124277115,0.03893294930458069
1783245168753855200,4.960855224609375,-0.037227146327495575,0.04883487522602081,0.03300315514206886
1783245168763867100,4.9708671875,-0.01499497052282095,0.021566608920693398,0.031022530049085617
1783245168773879000,4.980879150390625,0.009396122768521309,0.0003840929130092263,0.03248273953795433
1783245168783890000,4.990889892578125,0.0362054780125618,-0.017131414264440536,0.03550752252340317
1783245168793902000,5.000902099609375,0.0592745766043663,-0.022416189312934875,0.04063410684466362
1783245168803914000,5.0109140625,0.07621493935585022,-0.008197039365768433,0.042719628661870956
1783245168813925000,5.020925048828125,0.08451734483242035,0.003825001884251833,0.040781114250421524
1783245168823937300,5.030937255859375,0.08443271368741989,0.0210045725107193,0.028989477083086967
1783245168833949200,5.04094921875,0.0771564245223999,0.036139316856861115,0.015296567231416702
1783245168843961300,5.05096142578125,0.06957652419805527,0.04366195574402809,-0.005581901408731937
1783245168853972200,5.06097216796875,0.06589949131011963,0.041517578065395355,-0.022445837035775185
1783245168863984000,5.070984130859375,0.06287776678800583,0.04219604656100273,-0.033550113439559937
1783245168873996000,5.08099609375,0.06057839095592499,0.043126288801431656,-0.04212282970547676
1783245168884008200,5.09100830078125,0.05732780694961548,0.042643770575523376,-0.04559079185128212
1783245168894019000,5.10101904296875,0.05889880657196045,0.04332074522972107,-0.048756759613752365
1783245168904031000,5.111031005859375,0.05490439385175705,0.04935072362422943,-0.05586312338709831
1783245168914043100,5.121043212890625,0.045922353863716125,0.058531440794467926,-0.062248051166534424
1783245168924054300,5.13105419921875,0.04153468459844589,0.06655383855104446,-0.07218640297651291
1783245168934066200,5.141066162109375,0.03538118302822113,0.0727667286992073,-0.07561548799276352
1783245168944078000,5.151078125,0.0323929563164711,0.06005397066473961,-0.07602150738239288
1783245168954090200,5.16109033203125,0.034351710230112076,0.030286218971014023,-0.06891459971666336
1783245168964101000,5.17110107421875,0.03513328731060028,0.010399547405540943,-0.06490163505077362
1783245168974113300,5.18111328125,0.03671281039714813,0.00535818375647068,-0.056029852479696274
1783245168984125200,5.191125244140625,0.03770153224468231,-0.011122627183794975,-0.046556953340768814
1783245168994137000,5.20113720703125,0.0389966256916523,-0.016773855313658714,-0.03485342115163803
1783245169004148200,5.211148193359375,0.0328519269824028,0.0022158094216138124,-0.03451617434620857
1783245169014160100,5.22116015625,0.019633328542113304,0.013966474682092667,-0.0368586890399456
1783245169024172000,5.231172119140625,0.007793803699314594,0.008813105523586273,-0.037661079317331314
1783245169034183000,5.241182861328125,-0.0011610754299908876,0.0006901975721120834,-0.03666692227125168
1783245169044195000,5.251195068359375,-0.012552100233733654,-0.008213180117309093,-0.03181642293930054
1783245169054207000,5.26120703125,-0.024937663227319717,-0.02133723720908165,-0.025271175429224968
1783245169064219100,5.27121923828125,-0.035893701016902924,-0.029536625370383263,-0.020037423819303513
1783245169074230300,5.281230224609375,-0.0494084469974041,-0.03278541937470436,-0.010475343093276024
1783245169084242200,5.2912421875,-0.05893237888813019,-0.039478156715631485,0.0040928395465016365
1783245169094254000,5.301254150390625,-0.058381110429763794,-0.04226435720920563,0.021851062774658203
1783245169104266200,5.311266357421875,-0.05496741831302643,-0.03275122120976448,0.03339007869362831
1783245169114277000,5.321277099609375,-0.054821476340293884,-0.017989056184887886,0.03783968836069107
1783245169124289000,5.3312890625,-0.05483606085181236,-0.010866383090615273,0.03786047548055649
1783245169134301200,5.34130126953125,-0.051949724555015564,-0.014664849266409874,0.034056682139635086
1783245169144312000,5.35131201171875,-0.04873460903763771,-0.019155841320753098,0.020907122641801834
1783245169154324000,5.361323974609375,-0.0453215017914772,-0.025583911687135696,0.0002881288528442383
1783245169164336000,5.371336181640625,-0.047452185302972794,-0.0266067273914814,-0.01917295716702938
1783245169174348000,5.38134814453125,-0.049029842019081116,-0.017325343564152718,-0.03616738319396973
1783245169184359200,5.391359130859375,-0.039847321808338165,-0.00330465123988688,-0.044808052480220795
1783245169194371300,5.401371337890625,-0.029004262760281563,0.002686662133783102,-0.04109187796711922
1783245169204383200,5.41138330078125,-0.009885847568511963,0.0039200750179588795,-0.03682008758187294
1783245169214395100,5.42139501953125,-0.0007464115042239428,0.0014835487818345428,-0.0362568274140358
1783245169224406300,5.43140625,0.004978951998054981,-0.00454547256231308,-0.0376531258225441
1783245169234418200,5.441418212890625,0.003618076676502824,-0.01168061327189207,-0.040470484644174576
1783245169244430000,5.45143017578125,0.008329255506396294,-0.013825732283294201,-0.049795471131801605
1783245169254441000,5.46144091796875,0.012013738974928856,-0.013670203275978565,-0.056654710322618484
1783245169264453000,5.471453125,0.014100111089646816,-0.006122219376266003,-0.06448927521705627
1783245169274465000,5.481465087890625,0.016224781051278114,0.021450551226735115,-0.07742078602313995
1783245169284477200,5.491477294921875,0.0162375345826149,0.04015200585126877,-0.09613893926143646
1783245169294488000,5.501488037109375,0.012946666218340397,0.02752542495727539,-0.11052080988883972
1783245169304500200,5.511500244140625,0.007768190465867519,0.0024558170698583126,-0.10993774980306625
1783245169314512100,5.52151220703125,-0.0022279848344624043,-0.026626167818903923,-0.09502963721752167
1783245169324524300,5.531524169921875,-0.014280188828706741,-0.04987747222185135,-0.06189912185072899
1783245169334535200,5.54153515625,-0.028150731697678566,-0.059431031346321106,-0.018914103507995605
1783245169344547000,5.551547119140625,-0.038648463785648346,-0.047254644334316254,0.027581730857491493
1783245169354559200,5.561559326171875,-0.05147611349821091,-0.02201506681740284,0.06823647767305374
1783245169364570000,5.571570068359375,-0.05584292486310005,0.002424774691462517,0.09152589738368988
1783245169374582000,5.58158203125,-0.05695106461644173,0.015027119778096676,0.09753771126270294
1783245169384594200,5.59159423828125,-0.05743904039263725,0.013216054067015648,0.0835731253027916
1783245169394606000,5.601606201171875,-0.050837863236665726,-0.0020502512343227863,0.05586347356438637
1783245169404617000,5.611616943359375,-0.04279054328799248,-0.02248596027493477,0.03047429770231247
1783245169414629000,5.621629150390625,-0.03503621742129326,-0.030635235831141472,0.008954890072345734
1783245169424641000,5.63164111328125,-0.026382699608802795,-0.024176698178052902,-0.005374017637223005
1783245169434653000,5.64165283203125,-0.01677507907152176,-0.015580546110868454,-0.010549871250987053
1783245169444664300,5.651664306640625,-0.01341934036463499,-0.00009623379446566105,-0.01080336794257164
1783245169454676200,5.66167626953125,-0.010272814892232418,0.0125814788043499,-0.0069985100999474525
1783245169464688000,5.671688232421875,-0.005707097705453634,0.023755572736263275,-0.00382733391597867
1783245169474699000,5.681698974609375,-0.0033864188008010387,0.03112400509417057,0.0008172187954187393
1783245169484711200,5.691711181640625,0.001171765965409577,0.028084956109523773,0.0037714135833084583
1783245169494723000,5.70172314453125,0.004019483923912048,0.015535076148808002,0.003913892898708582
1783245169504735200,5.7117353515625,0.005848269909620285,0.0028262073174118996,0.005212740506976843
1783245169514746000,5.72174609375,0.010232898406684399,-0.00184977101162076,0.003991415258497
1783245169524758000,5.731758056640625,0.01363704539835453,-0.0030502122826874256,0.00029189325869083405
1783245169534770000,5.74177001953125,0.017285842448472977,-0.00980345532298088,-0.0020090779289603233
1783245169544782000,5.751781982421875,0.01677367463707924,-0.004818077199161053,-0.0000220458023250103
1783245169554793200,5.761793212890625,0.019982250407338142,0.012026416137814522,-0.0003112652339041233
1783245169564805000,5.77180517578125,0.0300079807639122,0.01749522052705288,0.0003911573439836502
1783245169574817300,5.7818173828125,0.037617433816194534,0.011913500726222992,-0.002955104224383831
1783245169584828200,5.791828125,0.03883178159594536,0.0039338176138699055,-0.007503173314034939
1783245169594840000,5.801840087890625,0.03535795584321022,-0.014431606978178024,-0.015394918620586395
1783245169604852200,5.811852294921875,0.027061570435762405,-0.03563154116272926,-0.018801214173436165
1783245169614864100,5.821864013671875,0.024512125179171562,-0.037819329649209976,-0.015798233449459076
1783245169624875000,5.831875,0.024271110072731972,-0.020412109792232513,-0.009905457496643066
1783245169634887200,5.84188720703125,0.023150185123085976,-0.005004656966775656,-0.0017913382034748793
1783245169644899000,5.851899169921875,0.01840495504438877,-0.00023173494264483452,0.0042194463312625885
1783245169654911000,5.861910888671875,0.007268946617841721,0.006009649485349655,0.0039970725774765015
1783245169664922000,5.871922119140625,-0.003054843982681632,0.014932514168322086,-0.002477942733094096
1783245169674934300,5.881934326171875,-0.012688296847045422,0.010959610342979431,-0.006636202335357666
1783245169684946200,5.8919462890625,-0.017360970377922058,0.002897261641919613,-0.01029755175113678
1783245169694957000,5.90195703125,-0.022930437698960304,0.013212217018008232,-0.016406577080488205
1783245169704969200,5.91196923828125,-0.027326704934239388,0.025877531617879868,-0.02531467005610466
1783245169714981000,5.921981201171875,-0.025153564289212227,0.028159862384200096,-0.03746480867266655
1783245169724993300,5.9319931640625,-0.02349238283932209,0.016720406711101532,-0.042311228811740875
1783245169735004200,5.942004150390625,-0.01524297520518303,-0.0037947213277220726,-0.04149390757083893
1783245169745016000,5.95201611328125,-0.014637250453233719,-0.011950019747018814,-0.03757193684577942
1783245169755028000,5.962028076171875,-0.014909692108631134,-0.01517723873257637,-0.02639544941484928
1783245169765040000,5.9720400390625,-0.022495485842227936,-0.009836590848863125,-0.016164187341928482
1783245169775051000,5.982051025390625,-0.028195450082421303,0.0049740467220544815,-0.006364552769809961
1783245169785063000,5.99206298828125,-0.039068352431058884,0.020172979682683945,-0.003084159456193447
1783245169795075000,6.002074951171875,-0.050215546041727066,0.03080165572464466,-0.0050591593608260155
1783245169805086200,6.012086181640625,-0.052727971225976944,0.019147928804159164,-0.0013088961131870747
1783245169815098000,6.02209814453125,-0.049437638372182846,0.003432083409279585,0.004016094841063023
1783245169825110300,6.0321103515625,-0.03937707096338272,0.0013387879589572549,0.0075226398184895515
1783245169835122200,6.0421220703125,-0.029363853856921196,0.008716809563338757,0.0013835206627845764
1783245169845133000,6.052133056640625,-0.018247265368700027,0.013187981210649014,-0.01011820137500763
1783245169855145200,6.062145263671875,-0.007406335324048996,0.008313597179949284,-0.019168954342603683
1783245169865157000,6.0721572265625,0.0017412428278476,0.0011929997708648443,-0.02627808041870594
1783245169875168000,6.08216796875,0.00379374111071229,0.0035794584546238184,-0.029689056798815727
1783245169885180200,6.09218017578125,0.0019034293945878744,0.006862070877104998,-0.02652628719806671
1783245169895192000,6.102192138671875,0.00001125340349972248,-0.008236987516283989,-0.01821802370250225
1783245169905204000,6.112203857421875,-0.0013694914523512125,-0.012716316618025303,-0.004245636519044638
1783245169915215000,6.122215087890625,-0.0018688340205699205,0.005150298587977886,0.00466263759881258
1783245169925227300,6.132227294921875,0.00038344808854162693,0.02014421671628952,0.006965545006096363
1783245169935239200,6.1422392578125,0.0029081248212605715,0.014478077180683613,0.008558914996683598
1783245169945251300,6.152251220703125,0.009102772921323776,-0.0026567941531538963,0.011770383454859257
1783245169955262200,6.16226220703125,0.01898203417658806,-0.020297041162848473,0.01663278415799141
1783245169965274000,6.172274169921875,0.025173787027597427,-0.030278678983449936,0.023649409413337708
1783245169975286300,6.182286376953125,0.023935949429869652,-0.03953289985656738,0.03274703398346901
1783245169985297200,6.192297119140625,0.020173674449324608,-0.041386790573596954,0.042124565690755844
1783245169995309000,6.20230908203125,0.012473677285015583,-0.025801707059144974,0.048275936394929886
1783245170005321000,6.212321044921875,0.007964901626110077,-0.0007842953782528639,0.04736838489770889
1783245170015333000,6.2223330078125,0.008117767050862312,0.01614755019545555,0.044555552303791046
1783245170025344300,6.23234423828125,0.014140496961772442,0.03156565874814987,0.034309063106775284
1783245170035356200,6.242356201171875,0.025393152609467506,0.04654354229569435,0.015046421438455582
1783245170045368300,6.252368408203125,0.0328834243118763,0.04330957308411598,-0.01130545325577259
1783245170055380200,6.262380126953125,0.04139701649546623,0.012435280717909336,-0.028467129915952682
1783245170065391000,6.27239111328125,0.04768373444676399,-0.012423146516084671,-0.03637641668319702
1783245170075403300,6.2824033203125,0.05216130614280701,-0.015980863943696022,-0.03377743437886238
1783245170085415200,6.292415283203125,0.048953667283058167,-0.01547104213386774,-0.020683981478214264
1783245170095426000,6.302426025390625,0.04663804918527603,-0.011789754964411259,0.0001778891310095787
1783245170105438200,6.312438232421875,0.043760210275650024,-0.0062833912670612335,0.01835523545742035
1783245170115450000,6.3224501953125,0.03800618648529053,-0.0025216760113835335,0.031700070947408676
1783245170125462000,6.3324619140625,0.031543832272291183,-0.0035882291849702597,0.034235794097185135
1783245170135473000,6.342472900390625,0.025043321773409843,0.0011279627215117216,0.028705205768346786
1783245170145485000,6.352485107421875,0.021441547200083733,-0.0009613900911062956,0.015835396945476532
1783245170155497000,6.3624970703125,0.01986522227525711,0.0008309172699227929,0.002218121662735939
1783245170165508000,6.372508056640625,0.020131869241595268,0.004713855683803558,-0.00965142622590065
1783245170175520300,6.382520263671875,0.02614874765276909,-0.010976158082485199,-0.01831815205514431
1783245170185532200,6.3925322265625,0.027728037908673286,-0.03526172786951065,-0.01318427361547947
1783245170195544300,6.40254443359375,0.024888044223189354,-0.04526775702834129,-0.004319942556321621
1783245170205555200,6.41255517578125,0.015395739115774632,-0.04500516876578331,0.009688551537692547
1783245170215567000,6.422567138671875,0.0006183909717947245,-0.028910091146826744,0.021623775362968445
1783245170225579000,6.4325791015625,-0.012519937939941883,0.0037904372438788414,0.027371637523174286
1783245170235591200,6.442591064453125,-0.025674089789390564,0.02769923210144043,0.029393509030342102
1783245170245602000,6.45260205078125,-0.03528245538473129,0.036725003272295,0.022107291966676712
1783245170255614000,6.462614013671875,-0.03937440365552902,0.03554442524909973,0.010042903944849968
1783245170265626000,6.472626220703125,-0.04467453435063362,0.024909473955631256,-0.0038136388175189495
1783245170275637200,6.48263720703125,-0.04429130628705025,0.005407144781202078,-0.01442660205066204
1783245170285649200,6.492649169921875,-0.04040920361876488,-0.009686061181128025,-0.018767591565847397
1783245170295661300,6.502661376953125,-0.034253038465976715,-0.012904491275548935,-0.012207958847284317
1783245170305673200,6.512673095703125,-0.027600882574915886,-0.0015167130623012781,-0.0023515194188803434
1783245170315684000,6.52268408203125,-0.026938287541270256,0.013636406511068344,0.007973821833729744
1783245170325696300,6.5326962890625,-0.03050888329744339,0.032147396355867386,0.009278632700443268
1783245170335708200,6.542708251953125,-0.029530968517065048,0.038111813366413116,0.00931831356137991
1783245170345720000,6.552719970703125,-0.023468773812055588,0.023963559418916702,0.0037045860663056374
1783245170355731000,6.56273095703125,-0.013909355737268925,-0.0011425924021750689,-0.006124875508248806
1783245170365743000,6.5727431640625,-0.011399858631193638,-0.01924889162182808,-0.018285134807229042
1783245170375755000,6.582755126953125,-0.007792074233293533,-0.011727592907845974,-0.020223651081323624
1783245170385766100,6.59276611328125,-0.005257295444607735,-0.007534968666732311,-0.017479345202445984
1783245170395778300,6.6027783203125,0.001257062773220241,0.0025309808552265167,-0.008220333606004715
1783245170405790200,6.612790283203125,0.0004619911778718233,0.015163585543632507,0.0011384724639356136
1783245170415802400,6.62280224609375,-0.006018279120326042,0.033683739602565765,0.00498301163315773
1783245170425813200,6.632813232421875,-0.0067060901783406734,0.042373139411211014,-0.0013422940392047167
1783245170435825200,6.6428251953125,-0.0013797678984701633,0.03700500726699829,-0.015281811356544495
1783245170445837000,6.652837158203125,0.006729338318109512,0.023575274273753166,-0.03041941300034523
1783245170455848000,6.662847900390625,0.013133973814547062,0.005088940728455782,-0.03904086351394653
1783245170465859800,6.67285986328125,0.014075777493417263,-0.01640239730477333,-0.035601161420345306
1783245170475872000,6.6828720703125,0.009214709512889385,-0.017388567328453064,-0.02039344608783722
1783245170485884000,6.6928837890625,0.0014346031239256263,-0.001737913815304637,-0.005197526887059212
1783245170495894800,6.702894775390625,-0.00618203729391098,0.0031639004591852427,0.01454954594373703
1783245170505907000,6.712906982421875,-0.006909241899847984,0.011654431000351906,0.03101545199751854
1783245170515918800,6.7229189453125,0.0031023789197206497,0.017119238153100014,0.03263065963983536
1783245170525931000,6.732930908203125,0.0091672008857131,0.01817651093006134,0.023590410128235817
1783245170535942100,6.742942138671875,0.006679808720946312,0.012983612716197968,0.006722480058670044
1783245170545954000,6.7529541015625,0.0011069495230913162,0.004621945321559906,-0.007709916681051254
1783245170555966000,6.762966064453125,-0.007226613815873861,0.008059553802013397,-0.018473349511623383
1783245170565976800,6.772976806640625,-0.015477008186280727,0.009542440064251423,-0.020374201238155365
1783245170575989000,6.782989013671875,-0.019165217876434326,-0.004580835811793804,-0.008451760746538639
1783245170586001000,6.7930009765625,-0.01760624721646309,-0.013008734211325645,0.011100681498646736
1783245170596013000,6.803012939453125,-0.012826671823859215,-0.017827725037932396,0.03416711837053299
1783245170606024000,6.81302392578125,-0.01705951616168022,-0.01500636339187622,0.05628059059381485
1783245170616035800,6.823035888671875,-0.026466600596904755,-0.00907869916409254,0.06762140244245529
1783245170626047700,6.8330478515625,-0.03396594524383545,0.0024121436290442944,0.06939594447612762
1783245170636060000,6.843059814453125,-0.03820303454995155,0.003353571053594351,0.06344643980264664
1783245170646071000,6.853071044921875,-0.03565104305744171,-0.015584802255034447,0.05749925225973129
1783245170656083000,6.8630830078125,-0.029421376064419746,-0.028974376618862152,0.05181233957409859
1783245170666095000,6.87309521484375,-0.021134093403816223,-0.01824950985610485,0.039751455187797546
1783245170676106000,6.88310595703125,-0.010147755965590477,0.0015652074944227934,0.02117643877863884
1783245170686118000,6.893117919921875,-0.004914163611829281,0.025056898593902588,0.0024030939675867558
1783245170696130000,6.903130126953125,-0.004441186785697937,0.058614589273929596,-0.020944304764270782
1783245170706142000,6.913141845703125,-0.00855317898094654,0.08918124437332153,-0.04645126685500145
1783245170716152800,6.92315283203125,-0.011505825445055962,0.09702665358781815,-0.0652766153216362
1783245170726165000,6.9331650390625,-0.012115085497498512,0.09113658219575882,-0.08355175703763962
1783245170736177000,6.943177001953125,-0.01345678512006998,0.08445257693529129,-0.11527826637029648
1783245170746188000,6.95318798828125,-0.009377427399158478,0.05015208572149277,-0.13902221620082855
1783245170756200200,6.9632001953125,0.007114730309695005,-0.00153986900113523,-0.15505550801753998
1783245170766212000,6.973212158203125,0.028737328946590424,-0.03640401363372803,-0.14537806808948517
1783245170776224000,6.98322412109375,0.04472721740603447,-0.05970986932516098,-0.11004404723644257
1783245170786235000,6.99323486328125,0.053127944469451904,-0.06507635116577148,-0.07143867015838623
1783245170796247000,7.0032470703125,0.048679932951927185,-0.019406335428357124,-0.03643781691789627
1783245170806259000,7.013259033203125,0.03975067660212517,0.006037023384124041,-0.0035978020168840885
1783245170816271000,7.02327099609375,0.027622640132904053,0.006281501613557339,0.016950083896517754
1783245170826282000,7.033281982421875,0.009821618907153606,0.006885095499455929,0.02461404539644718
1783245170836294000,7.0432939453125,-0.008939551189541817,-0.012804186902940273,0.025733904913067818
1783245170846305800,7.053305908203125,-0.02820458449423313,-0.03191317245364189,0.02391854301095009
1783245170856317000,7.06331689453125,-0.03595811501145363,-0.03811194375157356,0.02091396413743496
1783245170866328800,7.073328857421875,-0.03939863294363022,-0.03269641473889351,0.021163851022720337
1783245170876341000,7.083341064453125,-0.035713084042072296,-0.021009134128689766,0.026635315269231796
1783245170886353000,7.093352783203125,-0.02836076356470585,-0.012225054204463959,0.0331396646797657
1783245170896364000,7.103364013671875,-0.019006146118044853,-0.0038438194897025824,0.03752722218632698
1783245170906376000,7.1133759765625,-0.011552144773304462,0.0033089376520365477,0.0347328782081604
1783245170916388000,7.12338818359375,-0.00747670978307724,0.005531345494091511,0.030299514532089233
1783245170926400000,7.13339990234375,-0.006963560823351145,-0.0010259479749947786,0.020664244890213013
1783245170936411000,7.143410888671875,-0.009352415800094604,-0.0031902987975627184,0.011785800568759441
1783245170946423000,7.153423095703125,-0.012186301872134209,0.0016643847338855267,0.0011035087518393993
1783245170956435000,7.16343505859375,-0.017322208732366562,0.00014052388723939657,-0.006042817607522011
1783245170966445800,7.17344580078125,-0.014508468098938465,0.008959952741861343,-0.013604634441435337
1783245170976458000,7.1834580078125,-0.004876347258687019,0.02181876078248024,-0.015392680652439594
1783245170986470000,7.193469970703125,0.0062787411734461784,0.020730480551719666,-0.012202090583741665
1783245170996481800,7.203481689453125,0.016460005193948746,0.010022708214819431,-0.004397430922836065
1783245171006493000,7.213492919921875,0.02441716007888317,0.010244708508253098,-0.0034228251315653324
1783245171016505000,7.223505126953125,0.02586059458553791,0.0017524206778034568,-0.0028899265453219414
1783245171026517000,7.23351708984375,0.0231986902654171,-0.012514443136751652,-0.0038410688284784555
1783245171036527900,7.24352783203125,0.026425909250974655,-0.01579306088387966,-0.0019907045643776655
1783245171046540000,7.2535400390625,0.026447130367159843,-0.011735052801668644,0.00010076863691210747
1783245171056552000,7.263552001953125,0.019121838733553886,-0.00918028224259615,0.006430037785321474
1783245171066563800,7.273563720703125,0.014670806005597115,-0.008052466437220573,0.014910135418176651
1783245171076575000,7.283574951171875,0.012202322483062744,-0.0017040232196450233,0.018653208389878273
1783245171086587000,7.2935869140625,0.011082787998020649,0.010332982055842876,0.01615094020962715
1783245171096598800,7.303598876953125,0.012514770030975342,0.02265995554625988,0.007561711594462395
1783245171106611000,7.31361083984375,0.012584714218974113,0.023234553635120392,-0.005092298146337271
1783245171116622000,7.3236220703125,0.014053713530302048,0.014153440482914448,-0.015164639800786972
1783245171126634000,7.333634033203125,0.016292812302708626,0.0030452797655016184,-0.02231845073401928
1783245171136646100,7.343646240234375,0.020256394520401955,-0.006161534693092108,-0.020260892808437347
1783245171146657000,7.353656982421875,0.02396037057042122,-0.012891288846731186,-0.012329276651144028
1783245171156669000,7.3636689453125,0.02252386137843132,-0.009861410595476627,-0.0022420219611376524
1783245171166681000,7.37368115234375,0.01752137579023838,-0.0017355710733681917,0.00667944923043251
1783245171176693000,7.38369287109375,0.005351262167096138,-0.006357220932841301,0.013408458791673183
1783245171186704000,7.393703857421875,-0.0074108196422457695,-0.007604857906699181,0.021420234814286232
1783245171196716000,7.403716064453125,-0.016996337100863457,-0.006140918470919132,0.02826855331659317
1783245171206728000,7.41372802734375,-0.01546934898942709,-0.005291947163641453,0.03667614981532097
1783245171216739800,7.42373974609375,-0.006011665798723698,0.000579524552449584,0.033890750259160995
1783245171226751000,7.4337509765625,-0.00040527619421482086,0.01553785614669323,0.025229882448911667
1783245171236763000,7.443762939453125,0.0027588254306465387,0.019110219553112984,0.012473608367145061
1783245171246774800,7.45377490234375,-0.005389523692429066,0.013456960208714008,-0.0018762503750622272
1783245171256786000,7.463785888671875,-0.012858091853559017,0.007565515115857124,-0.012557923793792725
1783245171266798000,7.473798095703125,-0.019093617796897888,0.0010045516537502408,-0.018323400989174843
1783245171276810000,7.48381005859375,-0.015213391743600368,-0.008790288120508194,-0.017130836844444275
1783245171286822000,7.49382177734375,-0.010423016734421253,-0.016459494829177856,-0.005519923288375139
1783245171296833000,7.5038330078125,-0.0038500691298395395,-0.009535275399684906,0.007524239365011454
1783245171306845000,7.513844970703125,0.002126382663846016,-0.00440038088709116,0.018051370978355408
1783245171316856800,7.52385693359375,0.001278165727853775,-0.006044084206223488,0.026744727045297623
1783245171326868000,7.533867919921875,-0.004362190142273903,-0.018205996602773666,0.0364375002682209
1783245171336879900,7.5438798828125,-0.00885440967977047,-0.024813033640384674,0.04244319349527359
1783245171346891800,7.553891845703125,-0.0058171749114990234,-0.020149415358901024,0.0452195443212986
1783245171356904000,7.563904052734375,-0.004576674662530422,-0.023697545751929283,0.04021759703755379
1783245171366915000,7.5739150390625,-0.00358044751919806,-0.02349865809082985,0.03663814812898636
1783245171376927000,7.583927001953125,0.0004060382489115,-0.002180585404857993,0.030770670622587204
1783245171386939100,7.593939208984375,0.004050835035741329,0.028655361384153366,0.027072221040725708
1783245171396951000,7.603950927734375,0.007135041989386082,0.043316327035427094,0.022073201835155487
1783245171406962000,7.6139619140625,0.01291356235742569,0.038347672671079636,0.01329024787992239
1783245171416974000,7.62397412109375,0.0077504925429821014,0.030199730768799782,0.0040067341178655624
1783245171426986000,7.633986083984375,-0.0003754489589482546,0.013209986500442028,-0.008198380470275879
1783245171436996900,7.643996826171875,-0.00715612294152379,-0.0011761428322643042,-0.013530028983950615
1783245171447008800,7.6540087890625,-0.0059241969138383865,-0.0023551781196147203,-0.004716220777481794
1783245171457021200,7.664021240234375,-0.0016117400955408812,-0.0019612961914390326,0.013834028504788876
1783245171467033000,7.674033203125,-0.004965505562722683,-0.007508451119065285,0.028180934488773346
1783245171477044200,7.684044189453125,-0.013859131373465061,-0.009208346717059612,0.03809268772602081
1783245171487056100,7.69405615234375,-0.03113289549946785,-0.014102639630436897,0.03905792906880379
1783245171497068300,7.704068359375,-0.04209286719560623,-0.029499173164367676,0.03623870387673378
1783245171507079200,7.7140791015625,-0.05042567476630211,-0.03104865923523903,0.03233044221997261
1783245171517091300,7.72409130859375,-0.051963917911052704,-0.00549323158338666,0.025843512266874313
1783245171527103200,7.734103271484375,-0.06077183410525322,-0.0009997368324548006,0.031325556337833405
1783245171537115100,7.744115234375,-0.06461691111326218,-0.01254161074757576,0.027662646025419235
1783245171547126300,7.754126220703125,-0.06192731484770775,-0.006953984033316374,0.018843213096261024
1783245171557138200,7.76413818359375,-0.058250293135643005,-0.0210809875279665,0.011057460680603981
1783245171567150000,7.774150146484375,-0.05314035341143608,-0.0433533601462841,0.003887538332492113
1783245171577162200,7.784162353515625,-0.04280808940529823,-0.041058249771595,-0.004303812049329281
1783245171587173000,7.794173095703125,-0.037388741970062256,-0.04383721575140953,-0.009678751230239868
1783245171597185000,7.80418505859375,-0.03267494961619377,-0.025998566299676895,-0.017177680507302284
1783245171607197200,7.814197265625,-0.024650271981954575,-0.0049536749720573425,-0.03043094277381897
1783245171617208300,7.824208251953125,-0.016950007528066635,0.01660807617008686,-0.037213217467069626
1783245171627220200,7.83422021484375,-0.012268159538507462,0.03902922570705414,-0.03893551602959633
1783245171637232400,7.844232421875,-0.007023862563073635,0.023837486281991005,-0.03712882846593857
1783245171647244300,7.854244384765625,-0.0012496670242398977,-0.015016745775938034,-0.033985771238803864
1783245171657255200,7.864255126953125,0.002381286583840847,-0.027127470821142197,-0.030366001650691032
1783245171667267300,7.874267333984375,0.0013377341674640775,-0.018253378570079803,-0.01732548698782921
1783245171677279200,7.884279296875,0.006879505701363087,-0.003827036591246724,0.0016002682968974113
1783245171687290000,7.8942900390625,0.019413013011217117,0.014269763603806496,0.02082790806889534
1783245171697302000,7.904302001953125,0.029501067474484444,0.02260998636484146,0.024605069309473038
1783245171707314200,7.914314208984375,0.028140120208263397,0.015766948461532593,0.02394886501133442
1783245171717326000,7.924326171875,0.01763688027858734,0.00731620704755187,0.023680152371525764
1783245171727337200,7.934337158203125,0.013622496277093887,-0.004502322990447283,0.0284191332757473
1783245171737349400,7.944349365234375,0.014086419716477394,-0.008541539311408997,0.032127585262060165
1783245171747361300,7.954361328125,0.01615813747048378,0.0006328418385237455,0.030622972175478935
1783245171757373200,7.964373291015625,0.02259046956896782,0.02016153559088707,0.025076674297451973
1783245171767384300,7.97438427734375,0.03322383388876915,0.025217704474925995,0.01653367280960083
1783245171777396200,7.984396240234375,0.04026762768626213,0.02602251246571541,0.006495952140539885
1783245171787408100,7.994408203125,0.0483662448823452,0.031290195882320404,-0.00555702019482851
1783245171797419300,8.004419189453126,0.05523427203297615,0.016327491030097008,-0.01045350730419159
1783245171807431200,8.01443115234375,0.061527226120233536,-0.004790422972291708,-0.00895175151526928
1783245171817443000,8.024443115234375,0.06360076367855072,-0.005164597183465958,-0.008057994768023491
1783245171827455200,8.034455322265625,0.05591978877782822,-0.0009524400811642408,-0.005045081488788128
1783245171837466000,8.044466064453125,0.055253200232982635,-0.0027878908440470695,0.004963344428688288
1783245171847478300,8.054478271484374,0.05738501623272896,0.008272691629827023,0.010149365290999413
1783245171857490200,8.064490234375,0.05714213475584984,0.0202619768679142,0.00953018106520176
1783245171867501300,8.074501220703125,0.0575387179851532,0.026507949456572533,0.004742185585200787
1783245171877513200,8.08451318359375,0.060346487909555435,0.02522670291364193,-0.004676882177591324
1783245171887525400,8.094525390625,0.06608717888593674,0.02440912276506424,-0.023464227095246315
1783245171897537300,8.104537353515624,0.07088406383991241,0.009290890768170357,-0.032982632517814636
1783245171907548200,8.114548095703125,0.07647053897380829,-0.019137084484100342,-0.032411348074674606
1783245171917560000,8.12456005859375,0.07782768458127975,-0.03755896911025047,-0.027099937200546265
1783245171927572200,8.134572265625,0.07269176840782166,-0.03488141670823097,-0.019306425005197525
1783245171937584000,8.144584228515624,0.06151873990893364,-0.016073642298579216,-0.009413846768438816
1783245171947595000,8.154594970703124,0.05157676339149475,0.020158488303422928,0.00571013567969203
1783245171957607200,8.164607177734375,0.03544759377837181,0.05475428327918053,0.016704997047781944
1783245171967619000,8.174619140625,0.023899374529719353,0.06600432842969894,0.025173388421535492
1783245171977630200,8.184630126953126,0.022181103006005287,0.06745442003011703,0.02450307086110115
1783245171987642400,8.194642333984374,0.0258207805454731,0.06306681782007217,0.012190323323011398
1783245171997654300,8.204654296875,0.03353249654173851,0.0319025032222271,0.0005930555053055286
1783245172007666200,8.214666259765625,0.04108400270342827,-0.005291097331792116,-0.008310462348163128
1783245172017677300,8.22467724609375,0.04831501469016075,-0.01420176774263382,-0.013266338966786861
1783245172027689200,8.234689208984374,0.055207446217536926,-0.006399882957339287,-0.012821855023503304
1783245172037701000,8.244701171875,0.0638858824968338,0.011929590255022049,-0.006804176140576601
1783245172047712300,8.254712158203125,0.07917503267526627,0.01752777025103569,0.0005596913397312164
1783245172057724200,8.26472412109375,0.08768090605735779,0.003765352535992861,0.009855721145868301
1783245172067736000,8.274736083984376,0.0901976078748703,-0.009265684522688389,0.01398138515651226
1783245172077748200,8.284748291015624,0.08419670909643173,-0.019566258415579796,0.01680300384759903
1783245172087759400,8.29475927734375,0.07690943032503128,-0.012276518158614635,0.016320619732141495
1783245172097771300,8.304771240234375,0.07497438043355942,0.01715194433927536,0.00772313866764307
1783245172107783400,8.314783447265626,0.07663809508085251,0.05159519985318184,-0.00005972292274236679
1783245172117795300,8.32479541015625,0.07818033546209335,0.06933904439210892,-0.00862791109830141
1783245172127806200,8.33480615234375,0.084307961165905,0.06622841209173203,-0.020607303828001022
1783245172137818000,8.344818115234375,0.09440533071756363,0.04507944732904434,-0.03671569749712944
1783245172147830300,8.354830322265625,0.10215264558792114,0.032062068581581116,-0.0500192753970623
1783245172157841200,8.364841064453126,0.11068808287382126,0.012944301590323448,-0.05387153849005699
1783245172167853000,8.37485302734375,0.12257833778858185,-0.0012422995641827583,-0.050704024732112885
1783245172177865200,8.384865234375,0.12805992364883423,-0.004250606521964073,-0.03836400434374809
1783245172187877000,8.394877197265625,0.12251913547515869,0.005666171200573444,-0.02278953418135643
1783245172197888300,8.40488818359375,0.1104361042380333,0.027435380965471268,-0.010378137230873108
1783245172207900200,8.414900146484374,0.09915635734796524,0.043538227677345276,0.0006148559041321278
1783245172217912300,8.424912353515625,0.08880145102739334,0.050641145557165146,0.00964403711259365
1783245172227924200,8.43492431640625,0.0824308916926384,0.04233155772089958,0.00720621831715107
1783245172237935400,8.444935302734375,0.07504488527774811,0.019138619303703308,0.000497183296829462
1783245172247947300,8.454947265625,0.0772777870297432,-0.0014696153812110424,-0.004896289668977261
1783245172257959200,8.464959228515625,0.08578525483608246,-0.01507490687072277,-0.005026784725487232
1783245172267970300,8.47497021484375,0.09475217759609222,-0.00916476920247078,-0.010026831179857254
1783245172277982200,8.484982177734375,0.09467041492462158,0.004107359796762466,-0.022069113329052925
1783245172287994000,8.494994140625,0.08220047503709793,0.010433762334287167,-0.03747233748435974
1783245172298006300,8.50500634765625,0.06038438528776169,-0.00017467373982071877,-0.06382804363965988
1783245172308017200,8.51501708984375,0.0488012433052063,-0.006528448313474655,-0.08789625018835068
1783245172318029000,8.525029052734375,0.05588551610708237,0.00020801799837499857,-0.08888880908489227
1783245172328041200,8.535041259765626,0.04772554710507393,-0.03563259541988373,-0.07572940737009048
1783245172338052400,8.54505224609375,0.03166961297392845,-0.027170401066541672,-0.0672464445233345
1783245172348064300,8.555064208984374,0.02521747164428234,0.0100253289565444,-0.06474931538105011
1783245172358076200,8.565076171875,0.016708672046661377,0.030905043706297874,-0.0497455969452858
1783245172368088300,8.57508837890625,0.01966107450425625,0.023723287507891655,-0.03416723385453224
1783245172378099200,8.58509912109375,0.02286325953900814,0.012683684937655926,-0.031898751854896545
1783245172388111000,8.595111083984374,0.02410065568983555,-0.033162254840135574,-0.051706138998270035
1783245172398123300,8.605123291015625,0.016616642475128174,-0.06171426922082901,-0.07417736202478409
1783245172408134100,8.615134033203125,-0.003694650251418352,-0.08669887483119965,-0.08000104129314423
1783245172418146000,8.62514599609375,-0.021816395223140717,-0.09892731159925461,-0.0659179836511612
1783245172428158200,8.635158203125,-0.026823945343494415,-0.10045063495635986,-0.009510482661426067
1783245172438170000,8.645170166015625,0.0096800047904253,0.04071127995848656,0.10367945581674576
1783245172448181200,8.65518115234375,0.03542105481028557,0.24557387828826904,0.14306440949440002
1783245172458192600,8.665192626953125,0.01767508126795292,0.3495141267776489,0.14072056114673615
1783245172468204500,8.67520458984375,-0.0014558474067598581,0.332243949174881,0.0773344412446022
1783245172478216700,8.685216796875,0.0032611433416604996,0.22127296030521393,-0.025967981666326523
1783245172488227600,8.6952275390625,0.032335199415683746,0.02652163989841938,-0.1236066147685051
1783245172498239500,8.705239501953125,0.05371559038758278,-0.14809757471084595,-0.18132823705673218
1783245172508251600,8.715251708984376,0.04807858169078827,-0.2669066786766052,-0.17531123757362366
1783245172518262500,8.725262451171876,0.035460785031318665,-0.3129175901412964,-0.09892672300338745
1783245172528274400,8.7352744140625,0.03270796686410904,-0.19389626383781433,0.0015694107860326767
