time,seconds_elapsed,z,y,x
1783245154327271700,0.064271728515625,0.08119797706604004,0.18401102721691132,0.12057861685752869
1783245154337283800,0.074283935546875,0.0971796065568924,0.06482284516096115,0.12614542245864868
1783245154347295700,0.084295654296875,0.09261542558670044,-0.06596611440181732,0.15387886762619019
1783245154357306600,0.094306640625,0.07844581454992294,-0.1820589005947113,0.20111241936683655
1783245154367318800,0.10431884765625,0.04822634905576706,-0.24552874267101288,0.26466068625450134
1783245154377330700,0.11433056640625,0.008152698166668415,-0.24616524577140808,0.324234277009964
1783245154387342600,0.124342529296875,-0.02657269313931465,-0.2069234400987625,0.37361007928848267
1783245154397353700,0.134353759765625,-0.05483388900756836,-0.1443474143743515,0.41265255212783813
1783245154407366000,0.144365966796875,-0.05953122302889824,-0.0727691650390625,0.43452343344688416
1783245154417377800,0.154377685546875,-0.04281775280833244,0.010239170864224434,0.42252883315086365
1783245154427388700,0.164388671875,-0.010231845080852509,0.09706168621778488,0.3673138916492462
1783245154437400800,0.17440087890625,0.01250462606549263,0.1597634106874466,0.27463430166244507
1783245154447413000,0.1844130859375,0.020437652245163918,0.18729490041732788,0.1642228215932846
1783245154457425000,0.1944248046875,0.009222013875842094,0.18718065321445465,0.05256979167461395
1783245154467435800,0.204435791015625,-0.0005803445819765329,0.166579470038414,-0.0487937405705452
1783245154477448000,0.214447998046875,0.005639734677970409,0.1294342279434204,-0.12116141617298126
1783245154487459800,0.2244599609375,0.032103344798088074,0.07768905907869339,-0.1515599936246872
1783245154497471700,0.2344716796875,0.0825824961066246,0.02737102471292019,-0.14932453632354736
1783245154507483000,0.24448291015625,0.14047223329544067,-0.006787694990634918,-0.14126059412956238
1783245154517495000,0.2544951171875,0.18143165111541748,-0.02888474240899086,-0.14008215069770813
1783245154527507000,0.2645068359375,0.19433705508708954,-0.050325848162174225,-0.1376393437385559
1783245154537517800,0.274517822265625,0.18227238953113556,-0.07458937913179398,-0.12948288023471832
1783245154547530000,0.284530029296875,0.16175025701522827,-0.07300490885972977,-0.12146303057670593
1783245154557542000,0.2945419921875,0.14458058774471283,-0.041632335633039474,-0.12029124051332474
1783245154567554000,0.304553955078125,0.13232377171516418,-0.024227675050497055,-0.11693263798952103
1783245154577565000,0.31456494140625,0.11528699100017548,-0.022130701690912247,-0.10967952013015747
1783245154587576800,0.324576904296875,0.09871227294206619,-0.017607055604457855,-0.10083436220884323
1783245154597588700,0.334588623046875,0.09379687905311584,-0.018762867897748947,-0.09241931140422821
1783245154607601000,0.344600830078125,0.09737999737262726,-0.02454182133078575,-0.08707982301712036
1783245154617611800,0.35461181640625,0.10938605666160583,-0.02663240395486355,-0.08178066462278366
1783245154627623700,0.364623779296875,0.11529114842414856,-0.023400871083140373,-0.08038154989480972
1783245154637635800,0.3746357421875,0.10422039031982422,-0.02622089348733425,-0.07402058690786362
1783245154647647000,0.38464697265625,0.09256477653980255,-0.032603416591882706,-0.06331542134284973
1783245154657659000,0.394658935546875,0.08436756581068039,-0.034092389047145844,-0.0537610687315464
1783245154667671000,0.404671142578125,0.07796268165111542,-0.03540666773915291,-0.04707697406411171
1783245154677683000,0.414682861328125,0.06515820324420929,-0.040808092802762985,-0.040430255234241486
1783245154687693800,0.42469384765625,0.05239596590399742,-0.05457327514886856,-0.029447492212057114
1783245154697706000,0.4347060546875,0.04517081007361412,-0.0686400979757309,-0.01571090705692768
1783245154707718000,0.4447177734375,0.03547890484333038,-0.06662631034851074,-0.00009536975994706154
1783245154717729800,0.454729736328125,0.02883990854024887,-0.04668882116675377,0.018491365015506744
1783245154727741000,0.464740966796875,0.02983737178146839,-0.012781615369021893,0.018720358610153198
1783245154737752800,0.4747529296875,0.029779581353068352,0.010927442461252213,0.006673016585409641
1783245154747764700,0.4847646484375,0.027754420414566994,-0.0023738278541713953,-0.007842151448130608
1783245154757777000,0.49477685546875,0.028433792293071747,-0.042165182530879974,-0.013825209811329842
1783245154767788000,0.5047880859375,0.02686959132552147,-0.07143847644329071,-0.013145354576408863
1783245154777800000,0.514800048828125,0.03180496394634247,-0.07375356554985046,-0.007231006398797035
1783245154787812000,0.52481201171875,0.03262137621641159,-0.058733176440000534,0.0023390999995172024
1783245154797823000,0.534822998046875,0.03437507152557373,-0.04401122033596039,0.013928643427789211
1783245154807835000,0.5448349609375,0.03254373371601105,-0.028835365548729897,0.025802012532949448
1783245154817846800,0.5548466796875,0.027367081493139267,-0.0020572810899466276,0.030640441924333572
1783245154827859000,0.56485888671875,0.020855918526649475,0.033749986439943314,0.035172343254089355
1783245154837869800,0.574869873046875,0.012320488691329956,0.07880028337240219,0.022701293230056763
1783245154847881700,0.5848818359375,0.008253955282270908,0.1047172099351883,-0.008182504214346409
1783245154857894000,0.594893798828125,0.004991316702216864,0.09104480594396591,-0.05032170191407204
1783245154867905000,0.604905029296875,0.004841955844312906,0.06040146201848984,-0.09208811074495316
1783245154877917000,0.6149169921875,0.006211087107658386,0.031922150403261185,-0.11949123442173004
1783245154887929000,0.62492919921875,0.007714023347944021,0.0020692849066108465,-0.12389868497848511
1783245154897941000,0.63494091796875,0.009607797488570213,-0.033755823969841,-0.09823033958673477
1783245154907951900,0.644951904296875,0.015340521931648254,-0.0690847858786583,-0.04494915157556534
1783245154917964000,0.654964111328125,0.01658368483185768,-0.08538147062063217,0.022567041218280792
1783245154927976000,0.664975830078125,0.008679153397679329,-0.07709451019763947,0.09203361719846725
1783245154937987800,0.67498779296875,-0.0027450090274214745,-0.039132747799158096,0.14413383603096008
1783245154947999000,0.6849990234375,-0.019949886947870255,0.016340315341949463,0.1674841195344925
1783245154958011000,0.695010986328125,-0.04167808219790459,0.06663943827152252,0.17241869866847992
1783245154968022800,0.705022705078125,-0.05805087089538574,0.1004192903637886,0.16206234693527222
1783245154978035000,0.715034912109375,-0.06351327896118164,0.12220394611358643,0.13973572850227356
1783245154988045800,0.7250458984375,-0.058902498334646225,0.127468541264534,0.11127205938100815
1783245154998057700,0.7350576171875,-0.04510359466075897,0.11954669654369354,0.07828827947378159
1783245155008070000,0.74506982421875,-0.021041903644800186,0.0946161150932312,0.0443449504673481
1783245155018081000,0.7550810546875,0.010668622329831123,0.061533525586128235,0.008611985482275486
1783245155028093000,0.765093017578125,0.04749147593975067,0.033973634243011475,-0.026640761643648148
1783245155038104800,0.775104736328125,0.07873781025409698,0.010573502629995346,-0.054183702915906906
1783245155048117000,0.785116943359375,0.10143843293190002,0.0010059382766485214,-0.060165587812662125
1783245155058128000,0.7951279296875,0.12098816782236099,-0.009198229759931564,-0.041818536818027496
1783245155068139800,0.805139892578125,0.14490309357643127,-0.02356385439634323,-0.01573648303747177
1783245155078152000,0.81515185546875,0.15810199081897736,-0.032249487936496735,0.009019995108246803
1783245155088163800,0.825163818359375,0.1533786654472351,-0.025518829002976418,0.027364812791347504
1783245155098174700,0.8351748046875,0.13519832491874695,-0.003911272622644901,0.03607175126671791
1783245155108187000,0.845186767578125,0.11952144652605057,0.018598945811390877,0.030672356486320496
1783245155118198800,0.85519873046875,0.10500109940767288,0.03143591433763504,0.013759155757725239
1783245155128210000,0.8652099609375,0.09998524934053421,0.035057224333286285,-0.007621956057846546
1783245155138222000,0.87522216796875,0.08890543133020401,0.032587409019470215,-0.026338918134570122
1783245155148234000,0.88523388671875,0.08048681914806366,0.018995855003595352,-0.03378446027636528
1783245155158246000,0.895245849609375,0.0788377895951271,0.005108269862830639,-0.02584104798734188
1783245155168257000,0.905257080078125,0.0726144090294838,0.0005059537943452597,-0.011902175843715668
1783245155178269000,0.91526904296875,0.0666811540722847,-0.00841696746647358,0.01222180388867855
1783245155188280800,0.92528076171875,0.06260745972394943,-0.02666344679892063,0.03843843936920166
1783245155198293000,0.93529296875,0.055165257304906845,-0.02858838066458702,0.05671704560518265
1783245155208303900,0.945303955078125,0.04233793914318085,-0.007700893096625805,0.06115056574344635
1783245155218315800,0.955315673828125,0.02856539934873581,0.013618510216474533,0.06007331609725952
1783245155228328000,0.965327880859375,0.02021319419145584,0.024169687181711197,0.046929821372032166
1783245155238339000,0.975339111328125,0.018119150772690773,0.039332397282123566,0.030188921838998795
1783245155248351000,0.98535107421875,0.0170876644551754,0.048091474920511246,0.0058279745280742645
1783245155258363000,0.99536279296875,0.017249584197998047,0.039178673177957535,-0.017214760184288025
1783245155268375000,1.005375,0.013980546966195107,0.01755673997104168,-0.03758285567164421
1783245155278386000,1.015385986328125,0.00721718231216073,-0.00392378494143486,-0.047481559216976166
1783245155288397800,1.025397705078125,0.0022401572205126286,-0.025158870965242386,-0.043052420020103455
1783245155298410000,1.035409912109375,0.004170682746917009,-0.03269428387284279,-0.030015181750059128
1783245155308422000,1.045421875,0.004684201907366514,-0.02506348118185997,-0.013604888692498207
1783245155318432800,1.055432861328125,0.003678059671074152,-0.013441446237266064,0.009372066706418991
1783245155328445000,1.06544482421875,0.0010586269199848175,-0.0002739252522587776,0.02680743858218193
1783245155338456800,1.075456787109375,-0.0009683049283921719,0.023350445553660393,0.02698799967765808
1783245155348467700,1.0854677734375,-0.01163746602833271,0.025124911218881607,0.01825830526649952
1783245155358480000,1.09547998046875,-0.031275082379579544,0.0017008110880851746,0.015594610944390297
1783245155368491800,1.10549169921875,-0.04825987666845322,-0.024159757420420647,0.01568123698234558
1783245155378503700,1.115503662109375,-0.05737560987472534,-0.0297784935683012,0.014014096930623055
1783245155388515000,1.12551513671875,-0.06278426945209503,-0.01764226146042347,0.007204708177596331
1783245155398527000,1.13552685546875,-0.07392001152038574,-0.0039038138929754496,0.008007118478417397
1783245155408539000,1.145538818359375,-0.08279772102832794,0.010856707580387592,0.018475044518709183
1783245155418551000,1.155551025390625,-0.08073589950799942,0.027336081489920616,0.030086427927017212
1783245155428562000,1.16556201171875,-0.06652718782424927,0.035321518778800964,0.04073009639978409
1783245155438574600,1.17557470703125,-0.05523112416267395,0.02344408445060253,0.04398101568222046
1783245155448586500,1.18558642578125,-0.04409436881542206,-0.001992888282984495,0.03995051607489586
1783245155458597400,1.195597412109375,-0.040698304772377014,-0.01858118735253811,0.03677070140838623
1783245155468609500,1.205609619140625,-0.0372762531042099,-0.018941614776849747,0.030715657398104668
1783245155478621400,1.215621337890625,-0.02596873976290226,-0.0033051304053515196,0.018961794674396515
1783245155488633300,1.22563330078125,-0.010296893306076527,0.013808557763695717,-0.0010305957403033972
1783245155498644500,1.23564453125,0.005524148233234882,0.018978018313646317,-0.020693514496088028
1783245155508656400,1.245656494140625,0.02043977566063404,0.007565624546259642,-0.039585553109645844
1783245155518668300,1.255668212890625,0.03096805140376091,-0.014666710048913956,-0.04701630398631096
1783245155528680400,1.265680419921875,0.04069673642516136,-0.041160207241773605,-0.04300927743315697
1783245155538691600,1.275691650390625,0.04671255126595497,-0.06577368080615997,-0.029771767556667328
1783245155548703500,1.285703369140625,0.04485892876982689,-0.07127261906862259,-0.018175723031163216
1783245155558715600,1.295715576171875,0.044836025685071945,-0.05691045895218849,-0.009315919131040573
1783245155568726500,1.3057265625,0.04124664142727852,-0.038532257080078125,0.004828189965337515
1783245155578738400,1.315738525390625,0.04228420928120613,-0.018278388306498528,0.01756502501666546
1783245155588750600,1.32575048828125,0.03853999823331833,0.0033802567049860954,0.019000601023435593
1783245155598762500,1.335762451171875,0.03167330473661423,0.01252528466284275,0.013332061469554901
1783245155608773400,1.3457734375,0.0244431272149086,0.002101999707520008,0.0025898939929902554
1783245155618785500,1.35578564453125,0.020316826179623604,-0.006521848030388355,-0.010745884850621223
1783245155628797400,1.36579736328125,0.01827106438577175,-0.010999913327395916,-0.025896631181240082
1783245155638809300,1.375809326171875,0.016849735751748085,-0.024131428450345993,-0.02858642488718033
1783245155648820500,1.385820556640625,0.015879912301898003,-0.038361918181180954,-0.017150018364191055
1783245155658832600,1.39583251953125,0.015817327424883842,-0.04223708435893059,0.00099249929189682
1783245155668844500,1.405844482421875,0.012967439368367195,-0.021288985386490822,0.008140861988067627
1783245155678855400,1.41585546875,0.005148930475115776,0.006692848168313503,0.0015308964066207409
1783245155688867600,1.42586767578125,-0.0037175386678427458,0.01290680468082428,-0.0036417371593415737
1783245155698879500,1.43587939453125,-0.00723903626203537,0.0011611988302320242,-0.005084104835987091
1783245155708891600,1.4458916015625,-0.007424449548125267,-0.0006764342542737722,-0.011599836871027946
1783245155718902500,1.455902587890625,-0.010279891081154346,0.010694997385144234,-0.025847749784588814
1783245155728914400,1.46591455078125,-0.01290099136531353,0.02146669290959835,-0.048691898584365845
1783245155738926300,1.47592626953125,-0.019864358007907867,0.008060073480010033,-0.06433317065238953
1783245155748938500,1.4859384765625,-0.027393577620387077,-0.014910709112882614,-0.05898793786764145
1783245155758949600,1.49594970703125,-0.022946098819375038,-0.02873304858803749,-0.03833512216806412
1783245155768961500,1.50596142578125,-0.01949421316385269,-0.03413191810250282,-0.011362206190824509
1783245155778973700,1.5159736328125,-0.02166096121072769,-0.0238886009901762,0.00897209346294403
1783245155788984600,1.525984619140625,-0.029277969151735306,-0.010800337418913841,0.026887454092502594
1783245155798996500,1.53599658203125,-0.03804562985897064,-0.00014050211757421494,0.03611557185649872
1783245155809008600,1.546008544921875,-0.04492303356528282,0.005681116133928299,0.03441696614027023
1783245155819020500,1.5560205078125,-0.04661360755562782,0.008322970941662788,0.023005852475762367
1783245155829031400,1.566031494140625,-0.04935833066701889,0.0010080233914777637,0.018168359994888306
1783245155839043600,1.576043701171875,-0.04717081040143967,-0.010622800327837467,0.018931087106466293
1783245155849055500,1.586055419921875,-0.0437113419175148,-0.017384309321641922,0.021154887974262238
1783245155859067400,1.5960673828125,-0.03748273849487305,-0.01579893007874489,0.023193269968032837
1783245155869078300,1.606078369140625,-0.026617642492055893,-0.003270670771598816,0.021687237545847893
1783245155879090400,1.61609033203125,-0.01752188242971897,0.011634241789579391,0.013327842578291893
1783245155889102300,1.626102294921875,-0.017141802236437798,0.02145177498459816,0.005978654138743877
1783245155899113500,1.636113525390625,-0.020440127700567245,0.017374476417899132,-0.00040947040542960167
1783245155909125600,1.646125732421875,-0.02227679453790188,0.016757791861891747,-0.008537888526916504
1783245155919137500,1.656137451171875,-0.01850389502942562,0.009203202091157436,-0.014779273420572281
1783245155929149700,1.666149658203125,-0.011532223783433437,-0.01479155570268631,-0.009922927245497704
1783245155939160600,1.67616064453125,-0.00655184593051672,-0.0347767174243927,0.005037113558501005
1783245155949172500,1.68617236328125,-0.00354054756462574,-0.033599551767110825,0.023754235357046127
1783245155959184400,1.696184326171875,0.0020957665983587503,-0.0201423317193985,0.04061497747898102
1783245155969195500,1.706195556640625,0.00016517285257577896,0.003995981998741627,0.047785792499780655
1783245155979207400,1.71620751953125,-0.003291077446192503,0.035671621561050415,0.03914276883006096
1783245155989219300,1.72621923828125,-0.0025937575846910477,0.05796771124005318,0.020382244139909744
1783245155999231500,1.7362314453125,0.002161316340789199,0.05873097479343414,-0.006042703986167908
1783245156009242600,1.74624267578125,0.012829301878809929,0.05418005585670471,-0.031397975981235504
1783245156019254500,1.756254638671875,0.023086734116077423,0.03550677001476288,-0.05069417506456375
1783245156029266700,1.7662666015625,0.03089151345193386,0.0001973489997908473,-0.05271611362695694
1783245156039278600,1.776278564453125,0.03824157267808914,-0.02207147143781185,-0.042699966579675674
1783245156049289500,1.78628955078125,0.04492775350809097,-0.018163492903113365,-0.0284810122102499
1783245156059301600,1.796301513671875,0.05012784153223038,-0.00603812001645565,-0.019099228084087372
1783245156069313500,1.8063134765625,0.05002973973751068,0.00650685653090477,-0.01799081452190876
1783245156079324400,1.816324462890625,0.04489702731370926,0.016350433230400085,-0.019171394407749176
1783245156089336300,1.82633642578125,0.03474094346165657,0.019089126959443092,-0.020121010020375252
1783245156099348500,1.836348388671875,0.022248052060604095,0.016086146235466003,-0.02204807475209236
1783245156109360400,1.8463603515625,0.018752293661236763,0.0038056657649576664,-0.018440699204802513
1783245156119371500,1.85637158203125,0.02017788402736187,-0.007837141864001751,-0.014520259574055672
1783245156129383700,1.8663837890625,0.023633699864149094,-0.015841161832213402,-0.010664274916052818
1783245156139395600,1.8763955078125,0.02595571056008339,-0.021640194579958916,-0.0017831649165600538
1783245156149407700,1.88640771484375,0.021021075546741486,-0.023985423147678375,0.01526197511702776
1783245156159418600,1.896418701171875,0.02015288546681404,-0.018151769414544106,0.031520042568445206
1783245156169430500,1.906430419921875,0.01434240024536848,-0.003965642303228378,0.04398550093173981
1783245156179442400,1.9164423828125,0.008601690642535686,0.006791664287447929,0.04893232136964798
1783245156189453600,1.92645361328125,0.005376200191676617,-0.00282811070792377,0.0406109094619751
1783245156199465500,1.936465576171875,0.006316562183201313,-0.026948094367980957,0.03164591267704964
1783245156209477400,1.946477294921875,0.007625299040228128,-0.04719099774956703,0.029054023325443268
1783245156219489500,1.956489501953125,0.010301509872078896,-0.04785732179880142,0.029325932264328003
1783245156229500400,1.96650048828125,0.009696527384221554,-0.02449941821396351,0.02519766241312027
1783245156239512300,1.97651220703125,0.008307688869535923,0.002552172401919961,0.025580093264579773
1783245156249524500,1.9865244140625,0.005878828465938568,0.011730172671377659,0.03225473314523697
1783245156259536400,1.996536376953125,0.006926782429218292,0.011776246130466461,0.042165420949459076
1783245156269547500,2.006547607421875,0.0072469571605324745,0.025939252227544785,0.04063931852579117
1783245156279559700,2.0165595703125,0.0074687981978058815,0.039545342326164246,0.02267150767147541
1783245156289571600,2.026571533203125,0.011338690295815468,0.017784973606467247,0.007842948660254478
1783245156299582500,2.03658251953125,0.021023808047175407,-0.011887168511748314,0.0016212714836001396
1783245156309594400,2.046594482421875,0.03294384106993675,-0.022247660905122757,-0.0020743650384247303
1783245156319606500,2.0566064453125,0.045182399451732635,-0.020920339971780777,-0.007124517112970352
1783245156329618400,2.066618408203125,0.047676991671323776,-0.011160125955939293,-0.011685745790600777
1783245156339629300,2.07662939453125,0.04451928287744522,-0.005531269125640392,-0.015476223081350327
1783245156349641500,2.086641357421875,0.04613203555345535,-0.0006113967392593622,-0.01745525933802128
1783245156359653400,2.0966533203125,0.05249246209859848,0.018125273287296295,-0.025496141985058784
1783245156369665500,2.10666552734375,0.056174762547016144,0.03150520846247673,-0.04338584840297699
1783245156379676700,2.1166767578125,0.05615665391087532,0.010127480141818523,-0.05633173882961273
1783245156389688600,2.1266884765625,0.053418029099702835,-0.024520356208086014,-0.05945843085646629
1783245156399700500,2.136700439453125,0.05122118443250656,-0.04363812506198883,-0.05896627902984619
1783245156409711600,2.146711669921875,0.052955370396375656,-0.053721167147159576,-0.04786890000104904
1783245156419723500,2.1567236328125,0.04949725791811943,-0.05904562771320343,-0.026595303788781166
1783245156429735400,2.1667353515625,0.037251684814691544,-0.050925761461257935,-0.007176496554166079
1783245156439746600,2.17674658203125,0.02386424131691456,-0.03370442986488342,0.0066881864331662655
1783245156449757700,2.1867578125,0.006194480694830418,-0.010668296366930008,0.012961208820343018
1783245156459769600,2.19676953125,-0.008844656869769096,0.0065109566785395145,0.01411382481455803
1783245156469781800,2.20678173828125,-0.01849983073771,0.013835552148520947,0.00898665003478527
1783245156479793700,2.216793701171875,-0.02282853238284588,0.007215200923383236,0.006330413278192282
1783245156489804500,2.226804443359375,-0.022668389603495598,-0.013244422152638435,0.005316976457834244
1783245156499816700,2.236816650390625,-0.02477787807583809,-0.03620033711194992,0.003339312970638275
1783245156509828600,2.24682861328125,-0.024253016337752342,-0.0595208965241909,0.0029584094882011414
1783245156519839500,2.256839599609375,-0.02526182122528553,-0.06642407178878784,0.009547868743538857
1783245156529851400,2.266851318359375,-0.024092596024274826,-0.05422748625278473,0.018423913046717644
1783245156539863600,2.276863525390625,-0.02502390369772911,-0.030075812712311745,0.025954533368349075
1783245156549875500,2.28687548828125,-0.026123620569705963,-0.013995755463838577,0.02906590886414051
1783245156559886300,2.29688623046875,-0.02942407689988613,-0.006151147652417421,0.02847069315612316
1783245156569898500,2.3068984375,-0.030833153054118156,-0.0008210975211113691,0.020624222233891487
1783245156579910400,2.316910400390625,-0.031112520024180412,0.0004982325481250882,0.006751017179340124
1783245156589922600,2.326922607421875,-0.031689319759607315,0.001561158918775618,-0.009969685226678848
1783245156599933700,2.33693359375,-0.029704464599490166,0.008363138884305954,-0.03170241042971611
1783245156609945600,2.346945556640625,-0.0272691510617733,0.009293214417994022,-0.05768560990691185
1783245156619957500,2.35695751953125,-0.021949753165245056,-0.005035657435655594,-0.07659405469894409
1783245156629968600,2.36696875,-0.014249707572162151,-0.016591854393482208,-0.08528893440961838
1783245156639980500,2.37698046875,-0.0011179267894476652,-0.024346981197595596,-0.08452221006155014
1783245156649992400,2.386992431640625,0.007182730827480555,-0.032942499965429306,-0.07689578086137772
1783245156660004600,2.397004638671875,0.016603130847215652,-0.02982180379331112,-0.06802718341350555
1783245156670015500,2.407015380859375,0.02777700498700142,-0.03903735429048538,-0.05737074464559555
1783245156680027400,2.41702734375,0.033951807767152786,-0.06331552565097809,-0.042293790727853775
1783245156690039600,2.42703955078125,0.03839283436536789,-0.0844336450099945,-0.01943071559071541
1783245156700051500,2.437051513671875,0.040294066071510315,-0.08940843492746353,0.011356758885085583
1783245156710062600,2.4470625,0.0387670174241066,-0.06743256002664566,0.0364098884165287
1783245156720074800,2.45707470703125,0.03203694522380829,-0.03874365985393524,0.05617773160338402
1783245156730086700,2.467086669921875,0.01779446378350258,-0.018446270376443863,0.0642448216676712
1783245156740097500,2.47709765625,0.0025979341007769108,-0.0086868517100811,0.06344693899154663
1783245156750109400,2.487109375,-0.011824943125247955,-0.004693974740803242,0.059559911489486694
1783245156760121600,2.49712158203125,-0.021382495760917664,-0.003694756655022502,0.05004017800092697
1783245156770133500,2.507133544921875,-0.017766742035746574,0.0007961406372487545,0.03665066137909889
1783245156780144400,2.517144287109375,-0.011651058681309223,0.0021671359427273273,0.018006667494773865
1783245156790156500,2.527156494140625,-0.0030082387384027243,-0.0012312757316976786,-0.0033948691561818123
1783245156800168400,2.53716845703125,-0.002810099394991994,-0.013756654225289822,-0.02068730629980564
1783245156810179600,2.5471796875,-0.004729612730443478,-0.03613615036010742,-0.019853856414556503
1783245156820191700,2.557191650390625,-0.00764604052528739,-0.05024770647287369,0.005188644863665104
1783245156830203600,2.56720361328125,-0.005619369447231293,-0.053436581045389175,0.040412262082099915
1783245156840215600,2.577215576171875,-0.007241234183311462,-0.0390097051858902,0.07695935666561127
1783245156850226700,2.587226806640625,-0.01616707071661949,-0.008702403865754604,0.09895981848239899
1783245156860238600,2.597238525390625,-0.02445802465081215,0.023557264357805252,0.10339690744876862
1783245156870250500,2.60725048828125,-0.03541954979300499,0.04915749281644821,0.08338027447462082
1783245156880262700,2.6172626953125,-0.037627577781677246,0.06844063848257065,0.04636047035455704
1783245156890273500,2.6272734375,-0.03650261089205742,0.06617648154497147,0.00567383598536253
1783245156900285400,2.637285400390625,-0.029093964025378227,0.044621385633945465,-0.031265538185834885
1783245156910297600,2.647297607421875,-0.01860678941011429,0.01975773274898529,-0.05417395383119583
1783245156920308500,2.65730859375,-0.012703624553978443,-0.0014634013641625643,-0.0634649246931076
1783245156930320400,2.6673203125,-0.012645095586776733,0.0024601833429187536,-0.06141844764351845
1783245156940332500,2.67733251953125,-0.010953722521662712,0.027463803067803383,-0.0516987107694149
1783245156950344400,2.687344482421875,-0.006731071509420872,0.03864689916372299,-0.03289177268743515
1783245156960355600,2.69735546875,-0.0006883589085191488,0.038964081555604935,-0.011812588199973106
1783245156970367700,2.70736767578125,0.010700440034270287,0.03369506821036339,0.009814716875553131
1783245156980379600,2.717379638671875,0.020329631865024567,0.021535074338316917,0.024333206936717033
1783245156990391600,2.7273916015625,0.024635622277855873,0.0070237331092357635,0.023125872015953064
1783245157000402400,2.73740234375,0.02565081976354122,-0.00016014347784221172,0.007019605487585068
1783245157010414600,2.74741455078125,0.024095075204968452,-0.004991874098777771,-0.018797751516103745
1783245157020426500,2.757426513671875,0.020788228139281273,-0.009631101042032242,-0.042858611792325974
1783245157030437400,2.767437255859375,0.021588340401649475,-0.008453873917460442,-0.06253538280725479
1783245157040449500,2.777449462890625,0.02781720831990242,-0.009938319213688374,-0.0727589949965477
1783245157050461400,2.78746142578125,0.03330710157752037,-0.016290703788399696,-0.0743527039885521
1783245157060473300,2.797473388671875,0.03564828634262085,-0.02635931596159935,-0.06966181099414825
1783245157070484700,2.807484619140625,0.031223656609654427,-0.03617418184876442,-0.05821254104375839
1783245157080496600,2.81749658203125,0.023284774273633957,-0.04922527074813843,-0.03324247524142265
1783245157090508500,2.827508544921875,0.009442728944122791,-0.053115881979465485,-0.005170895252376795
1783245157100520700,2.837520751953125,-0.010439100675284863,-0.03857395797967911,0.020591991022229195
1783245157110531600,2.847531494140625,-0.033098332583904266,-0.017044169828295708,0.0358971506357193
1783245157120543500,2.85754345703125,-0.054678723216056824,0.0021082188468426466,0.04505576193332672
1783245157130555600,2.8675556640625,-0.06965448707342148,0.010703839361667633,0.04873586446046829
1783245157140566500,2.87756640625,-0.0761488676071167,0.009548826143145561,0.049597661942243576
1783245157150578400,2.887578369140625,-0.07571040093898773,0.01052524708211422,0.04599303752183914
1783245157160590600,2.897590576171875,-0.06764715164899826,0.006868726573884487,0.03449723497033119
1783245157170602500,2.9076025390625,-0.05747232958674431,-0.0059416648000478745,0.022490985691547394
1783245157180613600,2.917613525390625,-0.04635895788669586,-0.017002571374177933,0.015867171809077263
1783245157190625800,2.927625732421875,-0.03200541436672211,-0.011104577220976353,0.003296916838735342
1783245157200637700,2.9376376953125,-0.021510429680347443,-0.007363635115325451,-0.009989593178033829
1783245157210649600,2.947649658203125,-0.01341481227427721,-0.01727122627198696,-0.013758145272731781
1783245157220660500,2.957660400390625,-0.010010226629674435,-0.02695607766509056,-0.011615099385380745
1783245157230672600,2.967672607421875,-0.008346851915121078,-0.026998749002814293,-0.012206831015646458
1783245157240684500,2.9776845703125,-0.007605693768709898,-0.019978655502200127,-0.012359431013464928
1783245157250695400,2.9876953125,-0.007515325210988522,-0.016060231253504753,-0.00721696624532342
1783245157260707600,2.99770751953125,-0.0021746226120740175,-0.015935063362121582,0.003078281879425049
1783245157270719500,3.007719482421875,0.002407788299024105,-0.0114267123863101,0.018772801384329796
1783245157280731400,3.0177314453125,0.013255110010504723,-0.004769874736666679,0.03130084276199341
1783245157290742500,3.027742431640625,0.023323435336351395,-0.002743466990068555,0.033720917999744415
1783245157300754400,3.03775439453125,0.026803655549883842,-0.006499323062598705,0.03147507458925247
1783245157310766300,3.047766357421875,0.033005308359861374,-0.023264775052666664,0.025677446275949478
1783245157320778500,3.057778564453125,0.04427926614880562,-0.03402980417013168,0.016560114920139313
1783245157330789600,3.06778955078125,0.0528239868581295,-0.02844495140016079,0.005199356935918331
1783245157340801500,3.077801513671875,0.056593157351017,-0.025054214522242546,-0.0031464574858546257
1783245157350813700,3.087813720703125,0.059119950979948044,-0.020111382007598877,-0.007610274013131857
1783245157360824600,3.097824462890625,0.05864005163311958,-0.006156684830784798,-0.014568581245839596
1783245157370836500,3.10783642578125,0.055103849619627,0.0005443101981654763,-0.022042516618967056
1783245157380848600,3.1178486328125,0.05117648467421532,-0.00010203896090388298,-0.021303489804267883
1783245157390860500,3.127860595703125,0.052795641124248505,-0.0017583153676241636,-0.01976771652698517
1783245157400871400,3.137871337890625,0.05524148792028427,-0.0038230642676353455,-0.016793232411146164
1783245157410883600,3.147883544921875,0.06083347648382187,-0.010148705914616585,-0.005756109021604061
1783245157420895500,3.1578955078125,0.06322658807039261,-0.02028869278728962,0.0036584315821528435
1783245157430907400,3.167907470703125,0.06123317778110504,-0.02140967547893524,0.01012995932251215
1783245157440919300,3.177919189453125,0.04996240884065628,-0.01730228215456009,0.019325055181980133
1783245157450931200,3.18793115234375,0.037641290575265884,-0.015598123893141747,0.027335993945598602
1783245157460943400,3.197943359375,0.02685309201478958,-0.009005468338727951,0.03470948711037636
1783245157470954500,3.20795458984375,0.011787056922912598,-0.005106600001454353,0.03734947741031647
1783245157480966400,3.21796630859375,0.005521171726286411,-0.010071265511214733,0.04061238467693329
1783245157490978600,3.227978515625,0.0011249349918216467,-0.007350740488618612,0.04263501986861229
1783245157500990500,3.237990478515625,0.006248057819902897,0.005877446383237839,0.037549447268247604
1783245157511001300,3.24800146484375,0.011218863539397717,0.014618734829127789,0.02571217715740204
1783245157521013500,3.258013427734375,0.016176870092749596,0.019306965172290802,0.012287981808185577
1783245157531025400,3.268025390625,0.014056616462767124,0.024703754112124443,0.0016831853426992893
1783245157541037300,3.278037353515625,0.012110644020140171,0.02973872795701027,-0.007786216679960489
1783245157551048200,3.288048095703125,0.012286296114325523,0.031982336193323135,-0.013487450778484344
1783245157561060400,3.298060302734375,0.01427727472037077,0.021670576184988022,-0.01634502224624157
1783245157571072300,3.308072265625,0.012128995731472969,0.009271811693906784,-0.015762442722916603
1783245157581083400,3.31808349609375,0.01339452899992466,0.00771466176956892,-0.00997193157672882
1783245157591095600,3.328095458984375,0.019340580329298973,0.006561773829162121,-0.0082715367898345
1783245157601107500,3.338107421875,0.023694848641753197,-0.005194750614464283,-0.0006354553624987602
1783245157611119400,3.348119384765625,0.026357002556324005,-0.009501563385128975,0.005999852437525988
1783245157621130500,3.358130615234375,0.02686646394431591,-0.007780895102769136,0.011084359139204025
1783245157631142400,3.368142333984375,0.033458415418863297,-0.01545494794845581,0.019151750952005386
1783245157641154300,3.378154296875,0.03811148926615715,-0.02591664344072342,0.027269862592220306
1783245157651166500,3.38816650390625,0.04148850589990616,-0.03447062149643898,0.03915998339653015
1783245157661177300,3.39817724609375,0.03595792129635811,-0.04829296097159386,0.05028533935546875
1783245157671189200,3.408189208984375,0.026254231110215187,-0.05234536528587341,0.0603024959564209
1783245157681201400,3.418201416015625,0.011767702177166939,-0.03634163364768028,0.060404494404792786
1783245157691212300,3.42821240234375,-0.001073828199878335,-0.012823588214814663,0.055490054190158844
1783245157701224400,3.438224365234375,-0.0058470116928219795,0.005819871090352535,0.045579634606838226
1783245157711236400,3.448236328125,-0.003597653703764081,0.004410047084093094,0.03432823717594147
1783245157721248500,3.45824853515625,0.003871713997796178,-0.007850347086787224,0.019011862576007843
1783245157731259400,3.46825927734375,0.008195793256163597,-0.012904605828225613,0.003600007388740778
1783245157741271600,3.478271484375,0.009675445966422558,-0.022505568340420723,-0.00913309771567583
1783245157751283500,3.488283447265625,0.01221624854952097,-0.02881203405559063,-0.016260186210274696
1783245157761295400,3.49829541015625,0.014484729617834091,-0.024212222546339035,-0.018484991043806076
1783245157771306200,3.50830615234375,0.021180666983127594,-0.01144108921289444,-0.018842192366719246
1783245157781318400,3.518318359375,0.017230667173862457,-0.013179069384932518,-0.011591203510761261
1783245157791330300,3.528330322265625,0.006520770490169525,-0.028858164325356483,0.004017969127744436
1783245157801341200,3.538341064453125,-0.005656533408910036,-0.03311096876859665,0.02083769626915455
1783245157811353300,3.548353271484375,-0.0064390795305371284,-0.024135688319802284,0.03333621099591255
1783245157821365200,3.558365234375,-0.005175676196813583,-0.0036384020932018757,0.03309892490506172
1783245157831377200,3.568377197265625,-0.004240269307047129,0.01582382060587406,0.023514052852988243
1783245157841388500,3.578388427734375,0.0021065762266516685,0.017703745514154434,0.008824324235320091
1783245157851400400,3.588400390625,0.00866667740046978,-0.0002502694260329008,-0.0032982775010168552
1783245157861412400,3.598412353515625,0.019833311438560486,-0.019766978919506073,-0.013731743209064007
1783245157871424500,3.608424560546875,0.03127313405275345,-0.0355188325047493,-0.019950946792960167
1783245157881435400,3.618435302734375,0.03608386963605881,-0.04301296919584274,-0.013098367489874363
1783245157891447300,3.628447265625,0.040457893162965775,-0.03989328444004059,-0.010476410388946533
1783245157901459500,3.63845947265625,0.041667498648166656,-0.03302978351712227,-0.008818859234452248
1783245157911470300,3.64847021484375,0.03726819157600403,-0.012065444141626358,-0.013865003362298012
1783245157921482200,3.658482177734375,0.030641980469226837,0.0053694723173975945,-0.015091387555003166
1783245157931494400,3.668494384765625,0.030534807592630386,0.005776566453278065,-0.01677512377500534
1783245157941506300,3.67850634765625,0.03336974233388901,0.006101205479353666,-0.024311602115631104
1783245157951517400,3.688517333984375,0.036024246364831924,0.0003249845467507839,-0.038437698036432266
1783245157961529600,3.698529541015625,0.03276346996426582,-0.012476830743253231,-0.056780487298965454
1783245157971541500,3.70854150390625,0.02543097734451294,-0.01334615983068943,-0.07489840686321259
1783245157981553400,3.718553466796875,0.00987731758505106,-0.002357690827921033,-0.08072859793901443
1783245157991564300,3.728564208984375,-0.010532375425100327,0.00813783798366785,-0.0695660188794136
1783245158001576400,3.738576416015625,-0.026526788249611855,0.03302188217639923,-0.04645058140158653
1783245158011588400,3.74858837890625,-0.042888592928647995,0.06117692217230797,-0.015543866902589798
1783245158021599200,3.75859912109375,-0.054562561213970184,0.08573631942272186,0.014677684754133224
1783245158031611400,3.768611328125,-0.06020399555563927,0.10434750467538834,0.039898309856653214
1783245158041623300,3.778623291015625,-0.059774693101644516,0.12730449438095093,0.04796156287193298
1783245158051635500,3.788635498046875,-0.054112061858177185,0.1494038850069046,0.04785937815904617
1783245158061646300,3.798646240234375,-0.0494062565267086,0.1631617695093155,0.04170827567577362
1783245158071658500,3.808658447265625,-0.04228309541940689,0.18021425604820251,0.024617820978164673
1783245158081670400,3.81867041015625,-0.0302413497120142,0.17225460708141327,0.003036895766854286
1783245158091682600,3.8286826171875,-0.018383562564849854,0.1398860663175583,-0.01910765841603279
1783245158101693400,3.838693359375,-0.007675524335354567,0.09978843480348587,-0.03060266003012657
1783245158111705300,3.848705322265625,0.0037715155631303787,0.06774289906024933,-0.037859831005334854
1783245158121717500,3.858717529296875,0.018198125064373016,0.045397378504276276,-0.04385540634393692
1783245158131728400,3.868728271484375,0.03805023431777954,0.04767795279622078,-0.06945785880088806
1783245158141740300,3.878740234375,0.054502442479133606,0.05592283234000206,-0.11421680450439453
1783245158151752400,3.88875244140625,0.06401089578866959,0.03758685663342476,-0.1564541459083557
1783245158161764400,3.898764404296875,0.06291261315345764,0.0006722469115629792,-0.1805613487958908
1783245158171775200,3.908775146484375,0.05848372355103493,-0.02387096732854843,-0.1714916080236435
1783245158181787400,3.918787353515625,0.050339777022600174,-0.0362061932682991,-0.13165178894996643
1783245158191799300,3.92879931640625,0.04283185303211212,-0.04755600541830063,-0.06783297657966614
1783245158201811200,3.938811279296875,0.02964787557721138,-0.046917110681533813,0.0015897764824330807
1783245158211822300,3.948822265625,0.0031580599024891853,-0.022917136549949646,0.06150764971971512
1783245158221834500,3.95883447265625,-0.024001920595765114,0.014691758900880814,0.098268061876297
1783245158231846400,3.968846435546875,-0.05066758394241333,0.042701348662376404,0.10549771785736084
1783245158241857300,3.978857177734375,-0.06816775351762772,0.04293064773082733,0.09383466839790344
1783245158251869400,3.988869384765625,-0.068415068089962,0.02778802625834942,0.07768194377422333
1783245158261881300,3.99888134765625,-0.056006062775850296,-0.003015692811459303,0.07305283099412918
1783245158271893500,4.0088935546875,-0.04029461741447449,-0.0257645845413208,0.07463759183883667
1783245158281904400,4.018904296875,-0.026868022978305817,-0.022224444895982742,0.08226168900728226
1783245158291916300,4.028916259765625,-0.013249367475509644,-0.01310918852686882,0.08842749893665314
1783245158301928200,4.03892822265625,-0.005349632352590561,0.004893779754638672,0.09461721777915955
1783245158311940400,4.0489404296875,-0.0072565702721476555,0.024811726063489914,0.09632209688425064
1783245158321951500,4.058951416015625,-0.010846511460840702,0.04814474284648895,0.09707017987966537
1783245158331963400,4.06896337890625,-0.013317796401679516,0.05781770870089531,0.09760870784521103
1783245158341975600,4.0789755859375,-0.01244135107845068,0.05554283782839775,0.1042833924293518
1783245158351986400,4.088986328125,-0.007404527626931667,0.05369114503264427,0.11544527113437653
1783245158361998300,4.098998291015625,-0.002460103016346693,0.04809797555208206,0.12868039309978485
1783245158372010500,4.109010498046875,0.0014198563294485211,0.046432700008153915,0.13544881343841553
1783245158382022400,4.1190224609375,0.0010914886370301247,0.042644087225198746,0.13102877140045166
1783245158392033300,4.129033203125,0.006546873599290848,0.014124720357358456,0.11839180439710617
1783245158402045400,4.13904541015625,0.008799907751381397,-0.01692906953394413,0.10197101533412933
1783245158412057300,4.149057373046875,0.013198792934417725,-0.04087045416235924,0.08554218709468842
1783245158422069200,4.1590693359375,0.01275164820253849,-0.05185359716415405,0.06990144401788712
1783245158432080400,4.169080322265625,0.006583390757441521,-0.044067416340112686,0.05563252791762352
1783245158442092500,4.179092529296875,0.0010155201889574528,-0.02447773702442646,0.04274948686361313
1783245158452104400,4.1891044921875,-0.0034392999950796366,-0.0015382308047264814,0.03375527635216713
1783245158462115600,4.199115478515625,-0.001989208860322833,0.01615421287715435,0.030841246247291565
1783245158472127500,4.20912744140625,-0.000018198508769273758,0.01766182668507099,0.03645610436797142
1783245158482139600,4.2191396484375,0.0022343031596392393,0.010896598920226097,0.044321753084659576
1783245158492151600,4.229151611328125,0.0016575672198086977,-0.005664960015565157,0.04425927996635437
1783245158502162400,4.239162353515625,-0.005040549207478762,-0.0323418453335762,0.03761895373463631
1783245158512174600,4.249174560546875,-0.012656875886023045,-0.05927886441349983,0.02945750206708908
1783245158522186500,4.2591865234375,-0.021039176732301712,-0.07497633248567581,0.025465955957770348
1783245158532198400,4.269198486328125,-0.03214353695511818,-0.07114037126302719,0.031891413033008575
1783245158542209500,4.27920947265625,-0.039101310074329376,-0.05446179583668709,0.04700085520744324
1783245158552221400,4.289221435546875,-0.04515596851706505,-0.03314286470413208,0.06367580592632294
1783245158562233300,4.2992333984375,-0.05664964020252228,-0.01611408032476902,0.0715707466006279
1783245158572244500,4.309244384765625,-0.0700392946600914,-0.024743903428316116,0.07262557744979858
1783245158582256600,4.319256591796875,-0.08114760369062424,-0.044291507452726364,0.06803135573863983
1783245158592268500,4.3292685546875,-0.08223850280046463,-0.05316254496574402,0.055679455399513245
1783245158602280700,4.33928076171875,-0.07968612760305405,-0.05706967040896416,0.04369336739182472
1783245158612291600,4.34929150390625,-0.07512746006250381,-0.05773662030696869,0.03615245968103409
1783245158622303500,4.359303466796875,-0.07235297560691833,-0.05110561475157738,0.0320674367249012
1783245158632315400,4.3693154296875,-0.06765946745872498,-0.03784286603331566,0.028378084301948547
1783245158642327600,4.37932763671875,-0.06459975987672806,-0.019341353327035904,0.023743651807308197
1783245158652338400,4.38933837890625,-0.061636149883270264,-0.007058529183268547,0.016881823539733887
1783245158662350300,4.399350341796875,-0.05512019246816635,-0.010301460511982441,0.0073676807805895805
1783245158672362500,4.409362548828125,-0.04960940033197403,-0.038275688886642456,-0.0007318202406167984
1783245158682374400,4.41937451171875,-0.043255362659692764,-0.07331010699272156,-0.000962183577939868
1783245158692385500,4.429385498046875,-0.040902458131313324,-0.09870893508195877,0.007395733613520861
1783245158702397700,4.439397705078125,-0.036646194756031036,-0.11108571290969849,0.027340680360794067
1783245158712409600,4.44940966796875,-0.03919116407632828,-0.1060505285859108,0.05245676264166832
1783245158722420500,4.45942041015625,-0.045955590903759,-0.06596355885267258,0.06997556984424591
1783245158732432600,4.4694326171875,-0.05033015459775925,-0.018857888877391815,0.06860160082578659
1783245158742444500,4.479444580078125,-0.05769512802362442,0.013504311442375183,0.054673537611961365
1783245158752456400,4.48945654296875,-0.06236790120601654,0.030177028849720955,0.02793031372129917
1783245158762467600,4.499467529296875,-0.061621420085430145,0.024900509044528008,-0.006207416765391827
1783245158772479500,4.5094794921875,-0.058140985667705536,-0.009389076381921768,-0.037264857441186905
1783245158782491400,4.519491455078125,-0.050071075558662415,-0.04870239272713661,-0.05277377739548683
1783245158792503600,4.529503662109375,-0.03632188215851784,-0.07980187982320786,-0.054976724088191986
1783245158802514400,4.539514404296875,-0.025312641635537148,-0.09251953661441803,-0.045646339654922485
1783245158812526600,4.549526611328125,-0.01907593198120594,-0.09158705919981003,-0.034954607486724854
1783245158822538500,4.55953857421875,-0.021153463050723076,-0.08659683167934418,-0.02259434573352337
1783245158832549600,4.569549560546875,-0.03508765995502472,-0.07592101395130157,-0.014467297121882439
1783245158842561500,4.5795615234375,-0.050894320011138916,-0.054813601076602936,-0.0007003529462963343
1783245158852573400,4.589573486328125,-0.06469940394163132,-0.03023853711783886,0.011912722140550613
1783245158862585600,4.599585693359375,-0.06739345192909241,-0.008718329481780529,0.018824158236384392
1783245158872596500,4.609596435546875,-0.07359711825847626,-0.00554687948897481,0.019752545282244682
1783245158882608400,4.6196083984375,-0.07208418101072311,-0.011936069466173649,0.009831471368670464
1783245158892620500,4.62962060546875,-0.06389304995536804,-0.02609311044216156,0.0013167602010071278
1783245158902632400,4.639632568359375,-0.0578780323266983,-0.036285027861595154,-0.00635900255292654
1783245158912643300,4.649643310546875,-0.061513274908065796,-0.04057856276631355,-0.00925831962376833
1783245158922655500,4.659655517578125,-0.06489948183298111,-0.03742804378271103,-0.007179989013820887
1783245158932667400,4.66966748046875,-0.07486709207296371,-0.03324364498257637,-0.000311040785163641
1783245158942678500,4.679678466796875,-0.08261289447546005,-0.03064573183655739,0.014516109600663185
1783245158952690700,4.689690673828125,-0.09129925817251205,-0.034283291548490524,0.03650756925344467
1783245158962702600,4.69970263671875,-0.09168994426727295,-0.02968960627913475,0.060887739062309265
1783245158972714500,4.709714599609375,-0.08739812672138214,-0.018889255821704865,0.07519394159317017
1783245158982725600,4.7197255859375,-0.08524016290903091,-0.019802186638116837,0.08155437558889389
1783245158992737500,4.729737548828125,-0.08030159771442413,-0.03247856721282005,0.08303268998861313
1783245159002749400,4.73974951171875,-0.07517687976360321,-0.05034012347459793,0.0775577649474144
1783245159012761600,4.74976171875,-0.0674700066447258,-0.06676255911588669,0.072421133518219
1783245159022772500,4.7597724609375,-0.06029971316456795,-0.07261538505554199,0.07067729532718658
1783245159032784400,4.769784423828125,-0.053463466465473175,-0.059197962284088135,0.07058898359537125
1783245159042796500,4.779796630859375,-0.04632992297410965,-0.03923996910452843,0.06543390452861786
1783245159052807700,4.7898076171875,-0.04671410843729973,-0.022064071148633957,0.05427137017250061
1783245159062819600,4.799819580078125,-0.0475119911134243,-0.011086254380643368,0.03681861236691475
1783245159072831700,4.809831787109375,-0.0476943664252758,-0.006499439477920532,0.014686068519949913
1783245159082843600,4.81984375,-0.05079561471939087,-0.003476484911516309,-0.011939149349927902
1783245159092854500,4.8298544921875,-0.0517687052488327,-0.002354695927351713,-0.03507283329963684
1783245159102866400,4.839866455078125,-0.04940728098154068,-0.01068932469934225,-0.0504310168325901
1783245159112878600,4.849878662109375,-0.04617850109934807,-0.026570884510874748,-0.05361773818731308
1783245159122890500,4.859890380859375,-0.04328843578696251,-0.04181348532438278,-0.03910457715392113
1783245159132901400,4.8699013671875,-0.04048056900501251,-0.05334220081567764,-0.010224319994449615
1783245159142913500,4.87991357421875,-0.04864449054002762,-0.060388658195734024,0.028432263061404228
1783245159152925400,4.889925537109375,-0.0673346072435379,-0.03965866565704346,0.05807982757687569
1783245159162936600,4.8999365234375,-0.08980023115873337,-0.0038404823280870914,0.07098817825317383
1783245159172948500,4.909948486328125,-0.10948105156421661,0.029079865664243698,0.07139958441257477
1783245159182960400,4.91996044921875,-0.12156221270561218,0.05172179639339447,0.056121569126844406
1783245159192972500,4.92997265625,-0.12839458882808685,0.05490661412477493,0.032884351909160614
1783245159202983700,4.939983642578125,-0.12867555022239685,0.03394700214266777,0.008600583299994469
1783245159212995600,4.94999560546875,-0.12178292870521545,0.01333424262702465,-0.015824753791093826
1783245159223007500,4.960007568359375,-0.10738721489906311,-0.0019903844222426414,-0.04503217339515686
1783245159233019600,4.97001953125,-0.08952870219945908,-0.014745432883501053,-0.06800030171871185
1783245159243030500,4.980030517578125,-0.06566064804792404,-0.022339437156915665,-0.08393266052007675
1783245159253042400,4.99004248046875,-0.05085689201951027,-0.031227678060531616,-0.09620694816112518
1783245159263054600,5.0000546875,-0.05416027829051018,-0.03179093450307846,-0.09538376331329346
1783245159273065500,5.0100654296875,-0.06536462157964706,-0.05470253899693489,-0.07399303466081619
1783245159283077400,5.020077392578125,-0.0770106241106987,-0.06310108304023743,-0.04382660612463951
1783245159293089500,5.030089599609375,-0.09357637166976929,-0.06278321146965027,-0.00475299684330821
1783245159303101400,5.040101318359375,-0.11382065713405609,-0.04009627923369408,0.041657913476228714
1783245159313112600,5.050112548828125,-0.129191592335701,-0.014180725440382957,0.07795027643442154
1783245159323124500,5.06012451171875,-0.13547904789447784,0.006457175128161907,0.08983542770147324
1783245159333136600,5.07013671875,-0.13382968306541443,0.026288175955414772,0.07742052525281906
1783245159343148500,5.0801484375,-0.12744128704071045,0.030712218955159187,0.050365470349788666
1783245159353159400,5.090159423828125,-0.11375737935304642,0.024705512449145317,0.02294216863811016
1783245159363171600,5.100171630859375,-0.09231813251972198,0.01780339889228344,-0.00041162315756082535
1783245159373183500,5.11018359375,-0.06806930899620056,0.005658532492816448,-0.016609011217951775
1783245159383194400,5.1201943359375,-0.045660942792892456,-0.01527258288115263,-0.022803524509072304
1783245159393206500,5.13020654296875,-0.02956532873213291,-0.02732897736132145,-0.020648494362831116
1783245159403218400,5.140218505859375,-0.02035079151391983,-0.025752652436494827,-0.014346124604344368
1783245159413230300,5.150230224609375,-0.011769939213991165,-0.0182570219039917,-0.0021905924659222364
1783245159423241700,5.16024169921875,-0.003225453896448016,-0.011595389805734158,0.010667948052287102
1783245159433253600,5.170253662109375,0.003844514489173889,0.0008663845947012305,0.01952907256782055
1783245159443265300,5.180265380859375,0.009608659893274307,0.015529217198491096,0.01370074413716793
1783245159453277200,5.190277099609375,0.010556794703006744,0.016980960965156555,-0.0010493726003915071
1783245159463288000,5.2002880859375,0.0012543733464553952,0.008035669103264809,-0.019570592790842056
1783245159473300200,5.21030029296875,-0.003829036373645067,-0.006963458843529224,-0.03336125612258911
1783245159483312000,5.22031201171875,-0.00568392826244235,-0.014467181637883186,-0.04089454188942909
1783245159493323000,5.230322998046875,-0.0034673677291721106,-0.01152705680578947,-0.03817495331168175
1783245159503335200,5.240335205078125,-0.0023517694789916277,-0.014426172710955143,-0.026591001078486443
1783245159513347000,5.25034716796875,-0.011981979012489319,-0.004575083963572979,-0.010617023333907127
1783245159523359000,5.26035888671875,-0.026030421257019043,0.015815941616892815,0.002698248717933893
1783245159533370000,5.2703701171875,-0.041527293622493744,0.03197818249464035,0.011709479615092278
1783245159543382300,5.28038232421875,-0.06159447878599167,0.046266041696071625,0.014780636876821518
1783245159553394200,5.290394287109375,-0.07300081104040146,0.048809099942445755,0.01980886608362198
1783245159563406300,5.30040625,-0.07723364233970642,0.02879597805440426,0.02517247200012207
1783245159573417200,5.310417236328125,-0.0724734365940094,0.011299586854875088,0.034420426934957504
1783245159583429000,5.32042919921875,-0.06774632632732391,0.01005109678953886,0.03765643388032913
1783245159593441300,5.330441162109375,-0.0644761472940445,0.0047107781283557415,0.03472500294446945
1783245159603453200,5.340453125,-0.05946381390094757,-0.009430074132978916,0.027346983551979065
1783245159613464000,5.350464111328125,-0.050701458007097244,-0.006543217226862907,0.012118576094508171
1783245159623476000,5.36047607421875,-0.03995347023010254,-0.020353570580482483,0.0008057346567511559
1783245159633488100,5.370488037109375,-0.03041253052651882,-0.040784649550914764,-0.0007191840559244156
1783245159643499000,5.3804990234375,-0.01782856322824955,-0.05340723693370819,0.0003924192860722542
1783245159653511200,5.39051123046875,-0.012250796891748905,-0.052385859191417694,0.0030448795296251774
1783245159663523000,5.400523193359375,-0.00902570877224207,-0.03465107083320618,0.008713417686522007
1783245159673535200,5.41053515625,-0.010453006252646446,-0.010556756518781185,0.017467264086008072
1783245159683546000,5.420546142578125,-0.009111039340496063,0.022519968450069427,0.03087121993303299
1783245159693558300,5.430558349609375,-0.007615183480083942,0.04826362431049347,0.04875892400741577
1783245159703570200,5.440570068359375,-0.004340561106801033,0.058405205607414246,0.057924725115299225
1783245159713582000,5.45058203125,-0.001037186710163951,0.061302199959754944,0.05583763122558594
1783245159723593200,5.46059326171875,0.005930707789957523,0.043442241847515106,0.04772457852959633
1783245159733605000,5.470605224609375,0.013445783406496048,0.01160457357764244,0.03428494185209274
1783245159743617000,5.480616943359375,0.019506871700286865,-0.01120060682296753,0.02271989919245243
1783245159753628200,5.490628173828125,0.029811659827828407,-0.028867008164525032,0.012334832921624184
1783245159763640000,5.50064013671875,0.03468897193670273,-0.03244736045598984,0.0155002661049366
1783245159773652000,5.51065185546875,0.03356060013175011,-0.0248325876891613,0.02603677287697792
1783245159783664000,5.5206640625,0.033960871398448944,-0.011057918891310692,0.03709661588072777
1783245159793675300,5.53067529296875,0.03287263959646225,0.004101542755961418,0.04795350506901741
1783245159803687200,5.540687255859375,0.032664649188518524,0.0006580757908523083,0.0634046345949173
1783245159813699300,5.55069921875,0.03390353173017502,-0.004746002610772848,0.07561194896697998
1783245159823711200,5.560711181640625,0.03625883534550667,0.0014152207877486944,0.07657228410243988
1783245159833722000,5.57072216796875,0.04073359817266464,0.007859904319047928,0.06423059105873108
1783245159843734000,5.580734130859375,0.04114372655749321,-0.0001948270946741104,0.047234829515218735
1783245159853746200,5.59074609375,0.03838900476694107,-0.01733727566897869,0.02780524641275406
1783245159863757000,5.600757080078125,0.036420661956071854,-0.0309420358389616,0.015810903161764145
1783245159873769000,5.61076904296875,0.036655817180871964,-0.03820953145623207,0.013942308723926544
1783245159883781000,5.620781005859375,0.039972785860300064,-0.041360050439834595,0.024952882900834084
1783245159893793000,5.63079296875,0.043610237538814545,-0.047069765627384186,0.042209599167108536
1783245159903804200,5.64080419921875,0.04793175309896469,-0.04125501960515976,0.05770253762602806
1783245159913816300,5.65081640625,0.052014321088790894,-0.03030841238796711,0.06119336560368538
1783245159923828200,5.660828125,0.050872888416051865,-0.014697495847940445,0.050572413951158524
1783245159933840100,5.670840087890625,0.048877011984586716,-0.004494234453886747,0.02727922983467579
1783245159943851300,5.680851318359375,0.048141445964574814,0.009182961657643318,-0.008320308290421963
1783245159953863200,5.69086328125,0.04857326298952103,0.006469835992902517,-0.04674525558948517
1783245159963875000,5.700875,0.04011666029691696,-0.013809069991111755,-0.07920679450035095
1783245159973886200,5.71088623046875,0.035354968160390854,-0.04077058658003807,-0.09524798393249512
1783245159983898000,5.720898193359375,0.03702690079808235,-0.06409721821546555,-0.09495183825492859
1783245159993910000,5.730909912109375,0.03309043496847153,-0.06239258125424385,-0.08317781239748001
1783245160003922200,5.740922119140625,0.016238484531641006,-0.05797998979687691,-0.05777044966816902
1783245160013933000,5.75093310546875,-0.004408702254295349,-0.05316812917590141,-0.026624679565429688
1783245160023945200,5.7609453125,-0.02203776314854622,-0.026872877031564713,-0.005570525769144297
1783245160033957000,5.77095703125,-0.03397525101900101,-0.005851118825376034,0.0007101777009665966
1783245160043969300,5.78096923828125,-0.04337301477789879,-0.005319817923009396,-0.006646538153290749
1783245160053980200,5.790980224609375,-0.050012052059173584,-0.02645871415734291,-0.020553916692733765
1783245160063992000,5.800991943359375,-0.05765266343951225,-0.04991157725453377,-0.03568946197628975
1783245160074004200,5.811004150390625,-0.06054834648966789,-0.05928482860326767,-0.03713560476899147
1783245160084015000,5.82101513671875,-0.0647798478603363,-0.051968857645988464,-0.02472926676273346
1783245160094027000,5.831027099609375,-0.06561803817749023,-0.03203973174095154,-0.0010793274268507957
1783245160104039200,5.8410390625,-0.06513680517673492,-0.004899193998426199,0.029271921142935753
1783245160114051000,5.851051025390625,-0.06872077286243439,0.023519767448306084,0.05908503010869026
1783245160124062000,5.86106201171875,-0.07765727490186691,0.047721244394779205,0.07612819224596024
1783245160134074000,5.87107421875,-0.08272913098335266,0.055417682975530624,0.07529324293136597
1783245160144086000,5.8810859375,-0.08353739976882935,0.044532544910907745,0.0666627362370491
1783245160154098000,5.891097900390625,-0.08130698651075363,0.023506345227360725,0.05934525653719902
1783245160164109300,5.901109375,-0.07192227244377136,0.005038123112171888,0.05925070866942406
1783245160174121200,5.911121337890625,-0.05332423374056816,-0.0009738598018884659,0.0652366355061531
1783245160184133000,5.921133056640625,-0.034032028168439865,-0.0009964965283870697,0.0743851289153099
1783245160194144300,5.931144287109375,-0.01615161821246147,0.013592513278126717,0.08266858011484146
1783245160204156200,5.94115625,-0.005057157017290592,0.029098236933350563,0.08217350393533707
1783245160214168000,5.95116796875,-0.0006783914286643267,0.043010324239730835,0.06732146441936493
1783245160224180200,5.96118017578125,0.005677775014191866,0.0817159116268158,0.03608178719878197
1783245160234191000,5.971191162109375,0.016718171536922455,0.10493335127830505,-0.010888241231441498
1783245160244203000,5.981203125,0.030176721513271332,0.07540395855903625,-0.063422292470932
1783245160254215200,5.991215087890625,0.03472157195210457,0.0024268387351185083,-0.09898719191551208
1783245160264227000,6.00122705078125,0.046671975404024124,-0.07897214591503143,-0.0880405381321907
1783245160274238200,6.01123828125,0.04961854964494705,-0.1373448520898819,-0.028298990800976753
1783245160284250000,6.02125,0.05418001115322113,-0.16188481450080872,0.06656306982040405
1783245160294262300,6.03126220703125,0.05929529666900635,-0.1499270647764206,0.171457439661026
1783245160304274200,6.041274169921875,0.060317687690258026,-0.10435425490140915,0.2515493631362915
1783245160314285000,6.05128515625,0.044279176741838455,-0.03621663898229599,0.29167768359184265
1783245160324297200,6.061297119140625,0.02246149629354477,0.04410030320286751,0.2780478894710541
1783245160334309000,6.07130908203125,0.010343100875616074,0.09692362695932388,0.21592052280902863
1783245160344320000,6.081320068359375,0.011539392173290253,0.08390609174966812,0.1326189637184143
1783245160354332200,6.091332275390625,0.029943956062197685,0.016192296519875526,0.048642877489328384
1783245160364344000,6.101343994140625,0.06924927979707718,-0.06790394335985184,-0.012326465919613838
1783245160374356000,6.11135595703125,0.12110581994056702,-0.1479649543762207,-0.04597390815615654
1783245160384367000,6.1213671875,0.1674906313419342,-0.19577749073505402,-0.055680062621831894
1783245160394379300,6.131379150390625,0.1975046694278717,-0.18961071968078613,-0.04797067120671272
1783245160404391200,6.14139111328125,0.2077314704656601,-0.12709540128707886,-0.04604360833764076
1783245160414403300,6.1514033203125,0.20165708661079407,-0.047977425158023834,-0.05490237474441528
1783245160424414200,6.161414306640625,0.16535793244838715,0.01417649257928133,-0.07241106033325195
1783245160434426000,6.171426025390625,0.12173527479171753,0.04039767012000084,-0.09488944709300995
1783245160444439300,6.181439208984375,0.08351225405931473,0.016722699627280235,-0.11076322197914124
1783245160454450400,6.191450439453125,0.0595533661544323,-0.03749160096049309,-0.10681948065757751
1783245160464462300,6.20146240234375,0.04898327961564064,-0.08182870596647263,-0.08586199581623077
1783245160474474200,6.21147412109375,0.05228022113442421,-0.10573888570070267,-0.04926076531410217
1783245160484486400,6.221486328125,0.05584113299846649,-0.10267838090658188,-0.003972647245973349
1783245160494497300,6.231497314453125,0.05683470144867897,-0.06904377043247223,0.03430439159274101
1783245160504509200,6.24150927734375,0.055652257055044174,-0.023225687444210052,0.0516359768807888
1783245160514521300,6.251521240234375,0.04800599813461304,0.01721569336950779,0.040826164186000824
1783245160524533200,6.261533203125,0.03385423123836517,0.026268577203154564,0.007859159260988235
1783245160534544100,6.271544189453125,0.016144590452313423,0.012348603457212448,-0.03576188161969185
1783245160544556300,6.281556396484375,0.0063761156052351,-0.007342809811234474,-0.07603766769170761
1783245160554568200,6.291568115234375,0.0011269653914496303,-0.03269721940159798,-0.09981293231248856
1783245160564579300,6.301579345703125,0.009851214475929737,-0.04470381140708923,-0.10984452813863754
1783245160574591200,6.31159130859375,0.026633866131305695,-0.039675019681453705,-0.10343354940414429
1783245160584603400,6.321603271484375,0.04692502319812775,-0.023960238322615623,-0.08611900359392166
1783245160594615300,6.331615234375,0.05777521803975105,-0.01804221421480179,-0.05972312390804291
1783245160604626200,6.341626220703125,0.06440142542123795,-0.013828293420374393,-0.03435864299535751
1783245160614638300,6.351638427734375,0.059795551002025604,-0.02248990722000599,-0.012399507686495781
1783245160624650200,6.361650146484375,0.054558172821998596,-0.041360799223184586,0.0055976021103560925
1783245160634662100,6.371662109375,0.04750436171889305,-0.06236317381262779,0.02105751261115074
1783245160644673300,6.38167333984375,0.04695841297507286,-0.0796702653169632,0.030151143670082092
1783245160654685200,6.391685302734375,0.04969583824276924,-0.07752568274736404,0.03200806677341461
1783245160664697000,6.401697021484375,0.04726650193333626,-0.06948373466730118,0.031548939645290375
1783245160674708500,6.41170849609375,0.031101536005735397,-0.06599269807338715,0.04115499556064606
1783245160684720400,6.421720458984375,0.0216840673238039,-0.0574793703854084,0.06239290162920952
1783245160694732300,6.431732177734375,0.01758657582104206,-0.03592608869075775,0.08221621066331863
1783245160704744400,6.441744384765625,0.01357558835297823,-0.010321125388145447,0.09212849289178848
1783245160714755300,6.45175537109375,0.00751480832695961,0.023726381361484528,0.08599758893251419
1783245160724767200,6.461767333984375,-0.001382812624797225,0.055908553302288055,0.06079156696796417
1783245160734779400,6.471779296875,-0.0074975863099098206,0.07531750947237015,0.02308649756014347
1783245160744791300,6.481791259765625,-0.009305073879659176,0.07860704511404037,-0.01970277726650238
1783245160754802200,6.49180224609375,-0.005354907363653183,0.0709783136844635,-0.06452297419309616
1783245160764814300,6.501814453125,-0.002901869360357523,0.05918077379465103,-0.09415436536073685
1783245160774826200,6.511826171875,0.007216544821858406,0.04196556657552719,-0.11152856796979904
1783245160784838100,6.521838134765625,0.016056641936302185,0.020562276244163513,-0.10829734802246094
1783245160794849300,6.531849365234375,0.020213628187775612,0.007488070521503687,-0.08612596243619919
1783245160804861200,6.541861083984375,0.026370588690042496,0.015336406417191029,-0.05689723417162895
1783245160814873300,6.551873291015625,0.035585176199674606,0.04076032713055611,-0.03559654951095581
1783245160824884200,6.56188427734375,0.03458329662680626,0.05925517901778221,-0.023882372304797173
1783245160834896400,6.571896484375,0.024868404492735863,0.06912598013877869,-0.020740453153848648
1783245160844908300,6.581908203125,0.007625767961144447,0.05789382755756378,-0.02224673703312874
1783245160854920200,6.591920166015625,-0.0034658696968108416,0.03601265698671341,-0.028624318540096283
1783245160864931300,6.601931396484375,-0.003412074176594615,0.022280598059296608,-0.03280734643340111
1783245160874943200,6.611943115234375,0.0036442375276237726,-0.012628383003175259,-0.02715771459043026
1783245160884955100,6.621955078125,0.02584994211792946,-0.02391059882938862,-0.01874398998916149
1783245160894967300,6.63196728515625,0.05252356454730034,-0.009344751946628094,-0.01834772527217865
1783245160904978200,6.641978271484375,0.05023670569062233,0.01964535564184189,-0.030521299690008163
1783245160914990000,6.651989990234375,0.02001168578863144,0.06361760944128036,-0.04817391186952591
1783245160925002200,6.662002197265625,-0.007643111515790224,0.09754601120948792,-0.061578668653964996
1783245160935013400,6.672013427734375,-0.022654477506875992,0.1041344553232193,-0.06109437718987465
1783245160945025300,6.682025390625,-0.02054258994758129,0.06672503054141998,-0.0394790954887867
1783245160955037400,6.692037353515625,-0.0019848861265927553,0.015019756741821766,-0.009417334571480751
1783245160965049300,6.70204931640625,0.012527476996183395,-0.010033931583166122,0.037076931446790695
1783245160975060200,6.712060302734375,0.010547788813710213,0.008731341920793056,0.08865422010421753
1783245160985072400,6.722072265625,-0.0030463174916803837,0.06073089316487312,0.13716556131839752
1783245160995084300,6.732084228515625,-0.016787340864539146,0.10992038995027542,0.16896186769008636
1783245161005096200,6.74209619140625,-0.02673131786286831,0.13792859017848969,0.17138268053531647
1783245161015107000,6.752107177734375,-0.0379958339035511,0.13891804218292236,0.1347448229789734
1783245161025119200,6.762119140625,-0.04828602075576782,0.10049290210008621,0.0633406788110733
1783245161035131100,6.772131103515625,-0.05688764899969101,0.04114818572998047,-0.02171434834599495
1783245161045142300,6.782142333984375,-0.059142813086509705,0.00381413078866899,-0.0820770263671875
1783245161055154400,6.792154541015625,-0.05115653574466705,0.0009360562544316053,-0.1007767766714096
1783245161065166300,6.802166259765625,-0.035040415823459625,0.00311638624407351,-0.07122500985860825
1783245161075178200,6.81217822265625,0.0037973765283823013,0.015553983859717846,-0.018541881814599037
1783245161085189400,6.822189453125,0.031928081065416336,0.01341599877923727,0.025463661178946495
1783245161095201300,6.832201171875,0.04153797775506973,-0.0009071154054254293,0.04111126810312271
1783245161105213200,6.842213134765625,0.029160400852560997,-0.0009963312186300755,0.024473171681165695
1783245161115225300,6.852225341796875,0.013688282109797001,-0.006477059796452522,0.0017373040318489075
1783245161125236200,6.862236328125,0.005177352111786604,-0.0030913837254047394,-0.014772164635360241
1783245161135248100,6.872248046875,0.007256339304149151,0.0064271194860339165,-0.022627368569374084
1783245161145260300,6.88226025390625,0.01967492513358593,-0.001304037170484662,-0.027160335332155228
1783245161155272200,6.892272216796875,0.03026384860277176,-0.007433613762259483,-0.039570532739162445
1783245161165283300,6.902283447265625,0.03337841480970383,-0.0019379144068807364,-0.06575020402669907
1783245161175295200,6.912295166015625,0.029317110776901245,-0.0012289881706237793,-0.08949752897024155
1783245161185307400,6.922307373046875,0.034493230283260345,-0.01736960932612419,-0.09915894269943237
1783245161195318300,6.932318359375,0.05366818979382515,-0.03145591542124748,-0.09946201741695404
1783245161205330400,6.942330322265625,0.07355906814336777,-0.03524026647210121,-0.09740951657295227
1783245161215342300,6.95234228515625,0.0856904685497284,-0.03519749641418457,-0.10633642971515656
1783245161225354200,6.962354248046875,0.07748740166425705,-0.03880288451910019,-0.1146518811583519
1783245161235365000,6.972365234375,0.06691379100084305,-0.05891459807753563,-0.1125568151473999
1783245161245377300,6.982377197265625,0.05523077771067619,-0.07795513421297073,-0.0952550545334816
1783245161255389200,6.99238916015625,0.05226849019527435,-0.0845387876033783,-0.0690060704946518
1783245161265401300,7.0024013671875,0.041207581758499146,-0.06376373767852783,-0.04208150878548622
1783245161275412200,7.012412109375,0.02852519042789936,-0.030042419210076332,-0.019683709368109703
1783245161285424000,7.022424072265625,0.02202947437763214,0.0008140300633385777,-0.008017465472221375
1783245161295436000,7.03243603515625,0.020430073142051697,0.024251822382211685,-0.012114329263567924
1783245161305447400,7.042447509765625,0.0242967177182436,0.02946602553129196,-0.02640964463353157
1783245161315459300,7.052459228515625,0.033040422946214676,0.013070269487798214,-0.04759420081973076
1783245161325471200,7.06247119140625,0.04310743883252144,-0.02326829731464386,-0.059903066605329514
1783245161335483400,7.0724833984375,0.05027848109602928,-0.0651010200381279,-0.07341347634792328
1783245161345494300,7.082494384765625,0.04749947041273117,-0.08346511423587799,-0.07912435382604599
1783245161355506200,7.092506103515625,0.0286214929074049,-0.0727313980460167,-0.07484588027000427
1783245161365518300,7.102518310546875,0.008939666673541069,-0.057535938918590546,-0.06062858924269676
1783245161375530200,7.1125302734375,-0.0015869531780481339,-0.04384137690067291,-0.04125857725739479
1783245161385541000,7.122541015625,0.005485869944095612,-0.015441162511706352,-0.018970049917697906
1783245161395553300,7.13255322265625,0.014245103113353252,0.0050833988934755325,0.0015558707527816296
1783245161405565200,7.142565185546875,0.019153308123350143,0.021093523129820824,0.014380855485796928
1783245161415576300,7.152576416015625,0.02302827313542366,0.03321761265397072,0.009119530208408833
1783245161425588500,7.16258837890625,0.022945981472730637,0.02673281729221344,-0.005824532359838486
1783245161435600400,7.172600341796875,0.023745402693748474,0.004091369453817606,-0.01787496730685234
1783245161445610800,7.18261083984375,0.026743322610855103,-0.014042360708117485,-0.032225675880908966
1783245161455621600,7.19262158203125,0.030425503849983215,-0.0229494571685791,-0.04284835234284401
1783245161465633800,7.2026337890625,0.030180759727954865,-0.02986994758248329,-0.04477434977889061
1783245161475645700,7.212645751953125,0.02292531356215477,-0.027051478624343872,-0.03386377543210983
1783245161485657600,7.22265771484375,0.020919688045978546,-0.024897247552871704,-0.016256287693977356
1783245161495669000,7.2326689453125,0.015982186421751976,-0.020202094689011574,0.003314749337732792
1783245161505681000,7.242680908203125,0.011153076775372028,-0.004133911803364754,0.01753602921962738
1783245161515692800,7.25269287109375,0.0036478121764957905,0.0033046151511371136,0.03185109421610832
1783245161525704000,7.262703857421875,-0.0035610985942184925,0.009021090343594551,0.0426131971180439
1783245161535715800,7.2727158203125,-0.004539927467703819,0.01827121153473854,0.04692624509334564
1783245161545727700,7.282727783203125,0.003253547241911292,0.012396277859807014,0.03536839038133621
1783245161555740000,7.292739990234375,0.013929998502135277,-0.0033253193832933903,0.015860317274928093
1783245161565750800,7.302750732421875,0.019859259948134422,-0.021162904798984528,0.0021058903075754642
1783245161575762700,7.3127626953125,0.02167995274066925,-0.03900245949625969,-0.005507785361260176
1783245161585774800,7.32277490234375,0.02118859998881817,-0.05163569748401642,-0.009111308492720127
1783245161595786800,7.332786865234375,0.01997765526175499,-0.06900936365127563,-0.0029659150168299675
1783245161605798000,7.3427978515625,0.015446287579834461,-0.08887015283107758,0.010254815220832825
1783245161615809800,7.352809814453125,0.008028393611311913,-0.10871598869562149,0.025319771841168404
1783245161625822000,7.362822021484375,0.003565201535820961,-0.11243429034948349,0.033393941819667816
1783245161635833900,7.372833740234375,-0.00942055694758892,-0.12499789148569107,0.035320524126291275
1783245161645844700,7.3828447265625,-0.019558412954211235,-0.10509929060935974,0.04017999395728111
1783245161655857000,7.39285693359375,-0.018016425892710686,-0.09112169593572617,0.038492970168590546
1783245161665868800,7.402868896484375,-0.017998848110437393,-0.07448732852935791,0.03177647665143013
1783245161675879700,7.412879638671875,-0.009549329057335854,-0.07284564524888992,0.06450215727090836
1783245161685891800,7.422891845703125,0.049832768738269806,0.04036399722099304,0.13750766217708588
1783245161695903700,7.43290380859375,0.09415751695632935,0.24635672569274902,0.14820562303066254
1783245161705915600,7.44291552734375,0.08902666717767715,0.34621942043304443,0.13810159265995026
1783245161715926800,7.4529267578125,0.051769621670246124,0.3102146089076996,0.08436187356710434
1783245161725938700,7.462938720703125,0.028901323676109314,0.18799389898777008,-0.013531130738556385
1783245161735950600,7.47295068359375,0.018824264407157898,0.038382332772016525,-0.11543966829776764
1783245161745962800,7.482962646484375,0.024086669087409973,-0.1274106353521347,-0.206192746758461
1783245161755974000,7.492973876953125,0.02317792922258377,-0.2594994604587555,-0.2519412040710449
1783245161765985800,7.50298583984375,0.03130429983139038,-0.34175172448158264,-0.22374336421489716
1783245161775998000,7.512998046875,0.05314435809850693,-0.32971876859664917,-0.1223716288805008
