time,seconds_elapsed,z,y,x
1783244095245966000,0.083966064453125,-0.37144378715157506,-0.22465046690702437,0.2604165576193482
1783244095255978000,0.09397802734375,-0.527468461599946,-0.1809305676460266,0.3069879738539457
1783244095265989000,0.103989013671875,-0.6554407615184784,-0.15261165113449096,0.2955033425643109
1783244095276001000,0.1140009765625,-0.6567670416861772,-0.1601905619561672,0.238280640591681
1783244095286012200,0.12401220703125,-0.5945137068688869,-0.1946212393462658,0.12599246947923676
1783244095296024000,0.134024169921875,-0.5178717812150716,-0.22171032180190084,0.08924531357400119
1783244095306035000,0.144034912109375,-0.4332020319283008,-0.1636813266813755,0.11147716525681316
1783244095316046000,0.154046142578125,-0.33138299492001533,-0.04202010960578918,0.12807590642347932
1783244095326058200,0.164058349609375,-0.24154782569408415,0.0701566552877426,0.11796243562288582
1783244095336069000,0.174069091796875,-0.16472995895147322,0.10579612394571304,0.0638674554830417
1783244095346081000,0.1840810546875,-0.08124152840375899,0.08590309047400951,-0.004436082751303911
1783244095356092000,0.194091796875,-0.012062778237462043,0.0756383015692234,-0.05901541234198957
1783244095366103300,0.204103271484375,0.07101064176857472,0.10623860701620579,-0.09567362958844751
1783244095376115200,0.214115234375,0.09506547109484673,0.12319032633900642,-0.11454765874333679
1783244095386126000,0.2241259765625,0.10154255815446377,0.12458733365535736,-0.13995368348285556
1783244095396138200,0.23413818359375,0.08059037101864815,0.1163718784958124,-0.15311410249760374
1783244095406149000,0.244149169921875,0.04777414308786392,0.13726736700832842,-0.12417485299748368
1783244095416160000,0.254159912109375,0.038784780946373935,0.13060498650968075,-0.0684935261148028
1783244095426172000,0.264171875,0.025889059016108513,0.10080722961723804,-0.02222094669630751
1783244095436183300,0.274183349609375,0.014331307691335678,0.08354688273668288,0.0038496520323213186
1783244095446195200,0.2841953125,-0.03871113118827343,0.09961305139660835,0.032498266289103774
1783244095456206000,0.2942060546875,-0.0965560019135475,0.1015273605853319,0.06540790812438353
1783244095466218000,0.304218017578125,-0.11990180618762969,0.11077508140206337,0.08458946885848417
1783244095476232700,0.314232666015625,-0.12968845618665217,0.11972411153316496,0.04523849626355804
1783244095486243800,0.324243896484375,-0.12737608759105204,0.1071960538715124,0.015246522840112447
1783244095496255700,0.334255859375,-0.12026654784679412,0.1009656350493431,-0.008565839499793946
1783244095506267000,0.344266845703125,-0.0914765066921711,0.11526830116808413,0.013369349057693034
1783244095516278800,0.35427880859375,-0.0017956512451171875,0.137460259231925,0.06680459578032605
1783244095526289700,0.36428955078125,0.09742810857295989,0.11527823804020881,0.07206342049082741
1783244095536301600,0.374301513671875,0.15914777490496634,0.06010638591647148,0.04940214614849538
1783244095546312700,0.384312744140625,0.15632511869966983,0.02404956862926483,0.032553640604997054
1783244095556323800,0.39432373046875,0.13615443733036517,-0.021603344520926476,0.04158472299636341
1783244095566335700,0.404335693359375,0.11386486411094665,-0.014729951620101928,0.06517797182602808
1783244095576346600,0.4143466796875,0.08291326100826263,0.004474515065550804,0.10863572215265593
1783244095586358800,0.42435888671875,0.033493104279041286,0.0137421096265316,0.14694091202169657
1783244095596369700,0.43436962890625,0.005325578936934471,0.010941665253043175,0.14169852698934263
1783244095606380800,0.444380859375,-0.05498363607525825,0.0058820437759161,0.14757406795923597
1783244095616392700,0.454392822265625,-0.13969371737241745,-0.006811433580517769,0.18818554374296217
1783244095626403800,0.46440380859375,-0.2196422833561897,-0.01648059467971325,0.21369479139493777
1783244095636415700,0.474415771484375,-0.22834639881551264,0.023589549902081487,0.20635631999932227
1783244095646426600,0.484426513671875,-0.21795184605121612,0.07398585818707942,0.1600811102323234
1783244095656438800,0.494438720703125,-0.25276304719150067,0.061246203601360315,0.07573946038875728
1783244095666449700,0.50444970703125,-0.21489421204626558,0.06292670403420925,-0.029577136411704123
1783244095676460800,0.514460693359375,-0.14953472790718078,0.09828326409757136,-0.09678190135760233
1783244095686472700,0.52447265625,-0.10693652615249157,0.09211363555192947,-0.10676400999664329
1783244095696483600,0.534483642578125,-0.11404781946241854,0.054448798546195026,-0.08910796006307936
1783244095706495700,0.544495849609375,-0.06659867054522037,0.05830898110568523,-0.061014093612227586
1783244095716506600,0.554506591796875,0.00039396775364875793,0.088617610129714,-0.006373005630634724
1783244095726517800,0.564517822265625,0.03431786466538906,0.06384031174778938,0.01477772715142928
1783244095736530000,0.574530029296875,-0.05777589714229107,0.026088965502381323,0.01132734923553653
1783244095746540800,0.584540771484375,-0.10481997238993644,0.042855975908041,0.017510083857923745
1783244095756552700,0.594552734375,-0.10296937608718872,0.09981880310177803,0.04080940950862132
1783244095766563600,0.6045634765625,-0.09961188235282897,0.08825520655810833,0.06443442344972863
1783244095776575700,0.61457568359375,-0.14885668251514433,-0.007146949145197868,0.058142419766588134
1783244095786587000,0.6245869140625,-0.16031389607489108,-0.024113281515240666,0.0867009993860498
1783244095796597800,0.63459765625,-0.10494681363999843,0.04600537984967232,0.1358971107015852
1783244095806609700,0.644609619140625,-0.026730770537257195,0.07626724712252617,0.155962313269265
1783244095816620800,0.654620849609375,-0.02158697790801525,0.03380406992435455,0.09156453203549608
1783244095826632700,0.6646328125,-0.09128186090290547,0.014297989943623543,-0.0070032024261076
1783244095836643600,0.6746435546875,-0.1545622006803751,0.04549216963052749,-0.010503419966250658
1783244095846654700,0.68465478515625,-0.167598792386055,0.10284253483712673,0.015450502713304013
1783244095856667000,0.6946669921875,-0.14362287351489067,0.08064356251060963,0.029890376212494445
1783244095866677800,0.704677734375,-0.13648703028559683,0.0011532616883516312,0.013356124249938874
1783244095876689700,0.714689697265625,-0.14773323144316672,0.01374386319220066,0.02905087491474114
1783244095886700500,0.724700439453125,-0.1281622695326805,0.10127426260709763,0.08104137532231398
1783244095896712700,0.734712646484375,-0.08292495144605636,0.12415595650076866,0.1414420132113155
1783244095906723800,0.744723876953125,-0.09763210671246052,0.056369537475705146,0.1318173123083543
1783244095916734700,0.754734619140625,-0.11166589276194572,0.022123569002747534,0.1147703707164619
1783244095926746600,0.76474658203125,-0.08763853596448898,0.04950958857834339,0.10903912445493041
1783244095936757800,0.7747578125,-0.023191490495204924,0.0799561647683382,0.08488703616610728
1783244095946769700,0.784769775390625,-0.007853051587939261,0.0737953040510416,0.03797884399150498
1783244095956780800,0.79478076171875,-0.02971241669654846,0.05659867005646228,-0.0117602059611585
1783244095966791700,0.804791748046875,-0.06479892764687538,0.034980712488293646,-0.03194172838488594
1783244095976803800,0.814803955078125,-0.07223346156179905,0.03579495148062706,-0.010239727528765797
1783244095986814700,0.824814697265625,-0.05400339286625385,0.04220481852293014,0.03414392373743467
1783244095996826600,0.83482666015625,-0.027635610422492025,0.08588964647054671,0.02997315912512131
1783244096006837500,0.84483740234375,-0.045052609169483185,0.10159165799319743,0.011078671704092994
1783244096016849700,0.854849609375,-0.04822656303048133,0.10464870747625828,-0.016042340259766204
1783244096026860800,0.86486083984375,-0.05423778614401817,0.100160163885355,-0.04756720407260582
1783244096036871700,0.87487158203125,-0.03952010948359966,0.0551864651709795,-0.06816014770828187
1783244096046883800,0.8848837890625,-0.0575695609152317,0.033407764083147044,-0.08634957386618479
1783244096056894700,0.894894775390625,-0.06236731658577919,0.0520014053940773,-0.08164818210904486
1783244096066906600,0.90490673828125,-0.10477964037954807,0.07735796496868133,-0.055891654298268256
1783244096076917800,0.914917724609375,-0.15598492695987223,0.08814356287717819,-0.019005802308395502
1783244096086928600,0.9249287109375,-0.1693809996277094,0.09966273575723171,0.00331735352021642
1783244096096940800,0.93494091796875,-0.16925240481197834,0.10337269619107246,0.03499465881525539
1783244096106951700,0.94495166015625,-0.15843407367765902,0.0700222152531147,0.05736387314214371
1783244096116963600,0.954963623046875,-0.15239946968853474,0.06629822629392147,0.10288471174472942
1783244096126974700,0.964974609375,-0.10908347505331038,0.08511690853238105,0.13188354594497942
1783244096136986600,0.974986572265625,-0.05567746355831623,0.08633972832560538,0.14907349447044543
1783244096146997800,0.984997802734375,-0.05382862082123756,0.06069149232804775,0.13395967636560088
1783244096157008600,0.995008544921875,-0.03819032218456268,-0.0010129764348268508,0.11860950135476886
1783244096167020800,1.005020751953125,0.016034604477882384,-0.04736497776508331,0.12571336941006592
1783244096177031700,1.01503173828125,0.08869125988781451,-0.06943243266642093,0.11211686053299344
1783244096187043600,1.025043701171875,0.06663900255560874,-0.06115852531790733,0.11730334152649156
1783244096197054700,1.0350546875,0.013539280530810355,-0.04777355856597423,0.12366357900709844
1783244096207067000,1.04506689453125,-0.03417641036808491,-0.012658406043052673,0.11184439113400876
1783244096217077800,1.055077880859375,-0.034385084682703015,-0.002595277190208435,0.10322437376156449
1783244096227088600,1.065088623046875,-0.060548868986964224,-0.008019640326499938,0.08632342564477585
1783244096237100500,1.0751005859375,-0.09684475572705269,-0.003618775019049644,0.08376779547836631
1783244096247111700,1.085111572265625,-0.08948562513589858,0.007234627428650856,0.09426004559663125
1783244096257123600,1.09512353515625,-0.0903477949231863,0.03151332863867283,0.09195286463280208
1783244096267134700,1.105134765625,-0.09671265377998352,0.07760697129368782,0.09111151843783445
1783244096277145600,1.1151455078125,-0.11259586708843708,0.09067804979085922,0.055943147023487835
1783244096287157800,1.12515771484375,-0.11920622513890265,0.0665361267030239,-0.01218674254384823
1783244096297168600,1.135168701171875,-0.05337035565972328,0.0768581987529993,-0.03350309595009312
1783244096307180500,1.1451806640625,0.006145078626275062,0.08257599187791347,-0.03354747394793667
1783244096317192000,1.15519189453125,0.03337327729165554,0.06196925717890262,-0.05994698497052304
1783244096327202800,1.165202880859375,0.040330841344594956,0.06498480560779571,-0.08826259528012015
1783244096337214700,1.175214599609375,0.052371992272138596,0.05558627814352512,-0.07535379467257299
1783244096347225600,1.1852255859375,0.030489830809831617,0.04931961896419525,-0.057598494748771184
1783244096357237800,1.19523779296875,-0.041702129697799684,0.03939677536487579,-0.03895621025683358
1783244096367249000,1.205248779296875,-0.04300736707746982,0.06996727019548415,-0.018824618788901716
1783244096377260800,1.2152607421875,-0.03846913912594318,0.11581599817872047,0.020530180597770956
1783244096387271700,1.225271728515625,-0.05628478180170059,0.08650339445471764,0.05170102507486008
1783244096397282800,1.23528271484375,-0.012632687079906463,0.05911036061644554,0.024891727674985303
1783244096407294700,1.245294677734375,0.031952889099717136,0.05988485212028026,-0.018644019791297612
1783244096417305600,1.2553056640625,0.03888298062384128,0.02979483428299427,-0.012146620596013962
1783244096427317500,1.2653173828125,0.0033317747712135314,0.0027361469656229016,0.004574596172850579
1783244096437329000,1.275328857421875,0.008393734335899353,-0.004146013763546943,0.0385318747643847
1783244096447339800,1.28533984375,0.0018155249893665312,-0.0042120647370815275,0.059086797077767546
1783244096457351700,1.2953515625,-0.06185059923529625,0.0020499182671308517,0.05774753869748674
1783244096467362600,1.305362548828125,-0.17324644288420676,0.02997077537178993,0.03902111045289784
1783244096477371100,1.31537109375,-0.20394728609621524,0.038867783054709434,0.025365272604022174
1783244096487382300,1.32538232421875,-0.11300327884554863,0.06405073962807654,0.046377957755420356
1783244096497394400,1.33539453125,-0.042839609295129776,0.035331425622105596,0.027965061572566625
1783244096507405300,1.3454052734375,-0.05034487035870552,-0.031114684709906575,0.026183265322865915
1783244096517416200,1.355416259765625,-0.08687690394222736,-0.07350538119375705,0.05025137425581924
1783244096527428000,1.365427978515625,-0.09227963976860046,-0.058580199262499806,0.11833619170556775
1783244096537439200,1.375439208984375,-0.07232756958603859,-0.012099603116512299,0.17542685566321015
1783244096547451100,1.385451171875,-0.027603461718559263,-0.005676292070746421,0.15362322106352075
1783244096557462300,1.395462158203125,-0.04074351379871368,-0.010528992798924445,0.10708836484649217
1783244096567473200,1.40547314453125,-0.017872925820946694,-0.014126725029945372,0.07008111496665514
1783244096577485300,1.4154853515625,0.027062778970599173,-0.03820084357857704,0.034100888313306495
1783244096587496200,1.42549609375,0.056627311629056924,-0.07463760009407996,-0.01059055939358659
1783244096597508000,1.435508056640625,0.10667524486780167,-0.07594049938619137,0.04240320890555158
1783244096607519200,1.445519287109375,0.09018997401297092,-0.051288288688659665,0.10384721836764364
1783244096617530400,1.4555302734375,0.06598433803915978,-0.03869885622859001,0.14045057275486178
1783244096627542300,1.465542236328125,0.018044190734624863,-0.018513561812043187,0.1298366233525332
1783244096637553200,1.47555322265625,-0.053693011742830275,-0.01322889940738678,0.08763345793057233
1783244096647565300,1.4855654296875,-0.06736205613315105,-0.02111468422114849,0.04922487161913886
1783244096657576400,1.495576416015625,-0.007430442261695862,-0.011702712753415107,-0.017366245807288214
1783244096667588400,1.50558837890625,0.03301671893894672,-0.018137714236974717,-0.10790904271276668
1783244096677599200,1.51559912109375,0.07703004818856715,-0.021081366473436353,-0.15078006092631258
1783244096687610000,1.525610107421875,0.09717208798527717,-0.01648176372349262,-0.16018069814927874
1783244096697622300,1.535622314453125,0.0768412476181984,-0.027789924201369283,-0.16112471926743163
1783244096707633200,1.545633056640625,0.02627425894141197,-0.02599193486869335,-0.08201042128386907
1783244096717645000,1.55564501953125,0.0022205986589193343,0.024586159723997116,0.004982126660970971
1783244096727656400,1.565656494140625,-0.03344166635274887,0.07946341281533241,0.06536069884863682
1783244096737667300,1.575667236328125,-0.06394201855659484,0.09425006305873393,0.04461707642958499
1783244096747679200,1.58567919921875,-0.14566168586611747,0.08121230230927468,-0.025264122917642816
1783244096757690000,1.595690185546875,-0.15001403585672377,0.07167056698203086,-0.05132511356770992
1783244096767702300,1.605702392578125,-0.11372983955442904,0.07130114914774895,-0.04778302964721806
1783244096777713400,1.61571337890625,-0.07375263395309448,0.08206862687766552,-0.029384262454416603
1783244096787725300,1.625725341796875,-0.07987550074756145,0.06615852556228638,0.01792689363104291
1783244096797736200,1.635736083984375,-0.031710897037386894,0.049991234615445135,0.05609126852359622
1783244096807747300,1.645747314453125,0.05334989739358425,0.06134323423504829,0.05546203070934862
1783244096817759200,1.65575927734375,0.13460136266946793,0.021546645897626875,-0.010838204878568649
1783244096827770000,1.66577001953125,0.11513269208967684,-0.04525076209008693,-0.10914627462383358
1783244096837782300,1.6757822265625,0.046503392499685284,-0.10770984861254691,-0.15078216155185364
1783244096847793400,1.68579345703125,-0.009184592452645302,-0.07899871791303158,-0.06223075765930116
1783244096857804300,1.69580419921875,-0.010260697251558303,-0.015419687449932098,0.059774706276692444
1783244096867816200,1.705816162109375,0.0029039047479629517,0.010337269619107246,0.16951182293314485
1783244096877827000,1.7158271484375,-0.04077507798075676,-0.011675240224599837,0.2719072715898976
1783244096887839200,1.725839111328125,-0.07401917593479156,-0.025662264522910115,0.3261355592532083
1783244096897850400,1.735850341796875,-0.08365560380816459,-0.04392565096616745,0.29219949697963893
1783244096907861200,1.745861328125,-0.07539338689744472,-0.028387305572628974,0.21759625581288708
1783244096917873200,1.755873046875,-0.13515432037711142,-0.006495207238197327,0.11427433996098116
1783244096927884300,1.76588427734375,-0.1605272465646267,0.03310089009106159,0.02698039791677147
1783244096937896200,1.775896240234375,-0.10702478895783424,0.0687409432709217,-0.07385733643658458
1783244096947907300,1.7859072265625,-0.050990182524919506,0.0845569365620613,-0.16273936965614555
1783244096957919200,1.795919189453125,-0.04897825818061828,0.08481120358407497,-0.200622890913859
1783244096967930400,1.805930419921875,-0.0957850175410509,0.07827975598871707,-0.1517431977368891
1783244096977941200,1.815941162109375,-0.13763620032072066,0.08625964882671833,-0.05223095809994265
1783244096987953200,1.825953125,-0.1447708745062351,0.0819341868430376,0.021098007080983368
1783244096997964000,1.835964111328125,-0.16509586965441703,0.0799737004250288,0.0646393075052183
1783244097007976200,1.84597607421875,-0.22945874397158622,0.0541927779585123,0.07150818862770683
1783244097017987300,1.8559873046875,-0.24252923794686793,0.06228606804311275,0.05559075338924303
1783244097027998200,1.865998291015625,-0.10411796160042286,0.05464870503246784,0.026670436918456105
1783244097038010400,1.87601025390625,0.026196517530083653,0.030447160711884497,-0.007885730014834553
1783244097048021200,1.886021240234375,0.1214309154510498,-0.024548165801167487,-0.03403552232636139
1783244097058033200,1.896033203125,0.2125496947467327,-0.06275076294541358,-0.010824331616843118
1783244097068044300,1.906044189453125,0.258114929613471,-0.03847966051995754,0.039881088283099234
1783244097078055200,1.91605517578125,0.22860300392508506,-0.019622984358668327,0.12525333241657352
1783244097088067300,1.9260673828125,0.10480769743025302,-0.018248773396015164,0.16860055330712348
1783244097098078200,1.936078125,-0.06644727937579155,-0.019703063857555388,0.16553608770258724
1783244097108090000,1.946090087890625,-0.17023147897720337,0.012080898416042327,0.1876213339889422
1783244097118101200,1.956101318359375,-0.22324293819665908,0.055901919963955875,0.15531824321206658
1783244097128113200,1.966113037109375,-0.22481179494857786,0.056658875811100004,0.09281854155142791
1783244097138124300,1.976124267578125,-0.17807459369301795,0.018125439277291298,0.03210690148449503
1783244097148135200,1.98613525390625,-0.12363807010650633,-0.027086744368076322,-0.01614815698810853
1783244097158147300,1.996147216796875,-0.053014966350793835,-0.04087269313633442,-0.02045495080393739
1783244097168158200,2.006158203125,-0.0037602293163537977,-0.030356559818983078,0.04122695906725712
1783244097178170000,2.016170166015625,0.02101706906557083,-0.022881693893671035,0.094059472390078
1783244097188181200,2.02618115234375,0.039842765566706656,0.021293547919392586,0.15106507927961646
1783244097198192400,2.0361923828125,0.04627776705026626,0.031631402060389516,0.16789881651224567
1783244097208204300,2.046204345703125,0.029918752923607825,-0.014773790761828422,0.10187183577460236
1783244097218215200,2.056215087890625,-0.016596330013871192,-0.007528057417273521,0.07037137575065716
1783244097228227300,2.066227294921875,-0.09314414764344692,0.012180851659178734,0.05071143864877522
1783244097238238200,2.07623828125,-0.11502455554008484,0.00851239227950573,0.027347212802013382
1783244097248250400,2.08625048828125,-0.11167875224351882,0.015372925698757171,0.005584750462928787
1783244097258261200,2.09626123046875,-0.09146949242949486,0.004687281033396721,0.020889424097910524
1783244097268272000,2.106272216796875,-0.08575579095780848,-0.006990297278761863,0.008838646825496108
1783244097278284300,2.1162841796875,-0.07454992181062697,-0.00941080242395401,-0.01623560694269836
1783244097288295200,2.126295166015625,-0.03644143269062042,0.010917699855566024,-0.00023033815715461968
1783244097298307000,2.13630712890625,-0.022144027268886566,0.03472936807572841,0.005937947814771905
1783244097308318500,2.146318359375,0.022094342908263204,0.01620002417266369,0.0005007799958344549
1783244097318329300,2.156329345703125,0.046997898018360136,0.014254735323786735,-0.02397597367009148
1783244097328341200,2.16634130859375,0.05203530766367912,-0.0015261866539716719,-0.03901601415267214
1783244097338352000,2.17635205078125,0.06860942584574223,0.00868833336830139,-0.05615361143639311
1783244097348364300,2.1863642578125,0.02296761861145496,0.008683072671294211,-0.04603907205672003
1783244097358375400,2.19637548828125,-0.038487259304523465,0.004379822519421577,-0.031475270783761514
1783244097368386300,2.20638623046875,-0.05578443106412887,0.006319266149401664,0.007007321478798985
1783244097378398200,2.216398193359375,-0.06337503232359885,0.03642331251204014,0.01561045164852403
1783244097388409300,2.226409423828125,-0.07500818697214126,0.08223346205055714,0.03579697904093191
1783244097398421200,2.236421142578125,-0.10004150594174861,0.09642682257592677,0.004310775871202349
1783244097408432000,2.24643212890625,-0.06291209098696708,0.11067863529026507,-0.0088629044839181
1783244097418444000,2.256444091796875,-0.05180675960481167,0.10877893914878367,-0.025752317426539956
1783244097428455400,2.266455322265625,0.02970890956521034,0.1029436571240425,-0.016368366476893423
1783244097438466300,2.27646630859375,0.03533960892856121,0.10619184526503085,0.009524701994052157
1783244097448478200,2.286478271484375,0.05086626388430595,0.08241057218313216,0.06005694815102033
1783244097458489000,2.296489013671875,0.09155132549405097,0.04182897094786167,0.09834237387366593
1783244097468501200,2.306501220703125,0.14150105905532837,-0.00445814845263958,0.09920431533209048
1783244097478512000,2.31651220703125,0.15186755476891994,-0.00421849447786808,0.08364952112725003
1783244097488523000,2.32652294921875,0.139015671980381,-0.004561608827114105,0.06319360220893286
1783244097498535000,2.336534912109375,0.14881751954853534,-0.03634557110071182,0.04544006498395465
1783244097508545800,2.3465458984375,0.15543372281789777,-0.03333002267181873,0.03572594136502594
1783244097518558000,2.356557861328125,0.11357318768799304,-0.021367197677493094,0.03138072436810471
1783244097528569000,2.366569091796875,0.024028525841236114,-0.016571195572614668,0.07212766309976577
1783244097538581000,2.3765810546875,-0.06745382606983184,-0.03420797455012798,0.0946588995879516
1783244097548591900,2.386591796875,-0.1156231059551239,0.024671499919891357,0.12634504577657207
1783244097558603000,2.39660302734375,-0.14586334591805933,0.06507832911014556,0.13443829932855442
1783244097568615000,2.406614990234375,-0.2124152547121048,0.07682955718040466,0.09561709536192937
1783244097578625800,2.416625732421875,-0.23494155929684638,0.020189970591664313,0.030306930257286875
1783244097588638000,2.426637939453125,-0.20736147845387456,-0.016970424023270606,-0.05701063012452796
1783244097598649000,2.436649169921875,-0.12954583284556864,0.005644143366813659,-0.10461009249892085
1783244097608660000,2.446659912109375,-0.10569909331202507,0.0509206244200468,-0.1313872594611719
1783244097618671900,2.456671875,-0.09649871876835822,0.05224982719719409,-0.12101722008362412
1783244097628682800,2.466682861328125,-0.08800853832066059,0.03991290819346904,-0.1060058577062562
1783244097638695000,2.47669482421875,-0.04489595730304718,0.023255203381180763,-0.07300937783773988
1783244097648706000,2.4867060546875,-0.02510755324959755,0.04036240552663803,-0.006797423321474343
1783244097658717000,2.496717041015625,-0.044411388656497,0.058898179170489305,0.0615269202388823
1783244097668729000,2.50672900390625,-0.04917115040421485,0.05994155074357986,0.12311236573196947
1783244097678740000,2.516739990234375,0.021156769797205925,0.038511224702000614,0.11924520544242113
1783244097688751900,2.526751953125,0.09399287342727183,-0.009776128605008125,0.07652536833574995
1783244097698763000,2.536762939453125,0.07480243526697158,-0.05148936421871185,0.0519973502734676
1783244097708774000,2.54677392578125,0.04295008393228054,-0.06731178725063801,0.06640618018042296
1783244097718786000,2.5567861328125,0.04922609546184539,-0.07414251005351542,0.08320986933466047
1783244097728797000,2.566796875,0.04856967737972736,-0.055311552855372426,0.12093849229160696
1783244097738808800,2.576808837890625,-0.023538696497678754,-0.03482289157807827,0.14585494341589508
1783244097748820000,2.586820068359375,-0.12050269469022751,-0.010982581785321235,0.17230717100640758
1783244097758831900,2.596831787109375,-0.11468027214705943,0.03041910366117954,0.16915973982615395
1783244097768843000,2.606843017578125,-0.09317454278171063,0.029746318966150282,0.15217521421229466
1783244097778854000,2.61685400390625,-0.07252104633152484,0.011982114216685295,0.09420584032451733
1783244097788866000,2.626865966796875,-0.10936229199469089,0.003745616269111633,0.0565707408699207
1783244097798877000,2.636876953125,-0.09310323111116886,0.0019978958189487456,0.0567932062478736
1783244097808888800,2.646888916015625,-0.07153495790362357,0.0070674541682004925,0.01949263597726822
1783244097818900000,2.65689990234375,-0.09745791918933391,-0.006698036333918571,0.011977456307876855
1783244097828911000,2.6669111328125,-0.14829378793537615,0.0007277297526597976,-0.0024893508640117944
1783244097838923000,2.676923095703125,-0.13293664432764052,0.07817045039534569,0.013293817869760095
1783244097848934000,2.686933837890625,-0.09679682493209839,0.11654957315027713,0.02624994648406282
1783244097858946000,2.696946044921875,-0.08247837672233581,0.0918593685299158,0.01117987618939951
1783244097868957000,2.70695703125,-0.08340484391748905,0.038898178192973136,-0.03209262636397034
1783244097878968800,2.71696875,-0.11590543002784251,0.010299275696277617,-0.05669204742833971
1783244097888980000,2.72697998046875,-0.16334581111669538,0.03177285635769367,-0.04002690822826698
1783244097898990800,2.736990966796875,-0.18629530954957008,0.08916589166224002,-0.0006641812634654343
1783244097909003000,2.7470029296875,-0.21475275774896144,0.1130213990241289,0.004487411079742014
1783244097919014000,2.757013916015625,-0.18315058178305624,0.11560264768898486,-0.020775003938004372
1783244097929025800,2.76702587890625,-0.1171305879086256,0.10744856732785701,-0.017928236204758287
1783244097939037200,2.777037109375,-0.03129121032059193,0.07421908242106437,-0.024100823892466722
1783244097949048000,2.787048095703125,0.04050327530205249,0.03947743938565254,-0.021722112062387167
1783244097959060000,2.79706005859375,0.06814356189966202,0.027682372173666953,0.01301443467279896
1783244097969070800,2.80707080078125,0.06638298196792602,0.041028175958991046,0.043121604574285446
1783244097979083000,2.8170830078125,0.0076888009369373315,0.10570026235580443,0.03887185644162819
1783244097989094100,2.82709423828125,-0.11060849266350269,0.11183715767562388,0.06480742148058488
1783244097999105000,2.83710498046875,-0.1518435893714428,0.10023673625290393,0.09845034602647647
1783244098009117000,2.847116943359375,-0.16848375852704048,0.07472644742131233,0.09462516171513125
1783244098019128000,2.857128173828125,-0.21271628348529337,-0.012795184165239334,0.10079723794618621
1783244098029140000,2.867139892578125,-0.2051291893571615,-0.018258710268139838,0.0956392158621922
1783244098039150800,2.87715087890625,-0.1792670183479786,0.025766309419274328,0.10871033089198172
1783244098049162800,2.887162841796875,-0.1695668775886297,0.05666998172700405,0.11394575646058655
1783244098059174100,2.897174072265625,-0.13289514327347277,0.050685646620392794,0.12032656180518679
1783244098069185000,2.90718505859375,-0.051475920215249056,-0.0028559739530086515,0.12072280371431261
1783244098079197000,2.917197021484375,0.009695464584231376,-0.017352701339125632,0.11228977854764088
1783244098089207800,2.927207763671875,0.02308101585805416,0.024013328272104263,0.16816110244393348
1783244098099220000,2.937219970703125,0.02061491800546646,0.02373334228694439,0.20985095718204974
1783244098109231000,2.947231201171875,0.018166940331459044,0.04235854777991772,0.21540380553621796
1783244098119242000,2.957241943359375,0.005482815325260162,0.051931847289204594,0.2030677450490184
1783244098129254000,2.96725390625,-0.03599310440123081,0.04462415462434292,0.16715214459709823
1783244098139265000,2.97726513671875,-0.033494273322820664,0.047451487004756925,0.14693903059186414
1783244098149277000,2.98727685546875,-0.004594342052936554,0.03923427827954292,0.11756172760119661
1783244098159287800,2.997287841796875,0.034795419049263,0.019342413851618764,0.06495482146148569
1783244098169300000,3.007300048828125,-0.012125322079658508,0.023773089775443075,0.023862612956110387
1783244098179311000,3.01731103515625,-0.04142155919075012,0.017005495336651803,-0.015363472883822395
1783244098189322000,3.027322021484375,-0.0887181478947401,0.038653263521194456,-0.024208960442058742
1783244098199334000,3.037333984375,-0.12188742704689502,0.06143383512794971,-0.01027370286360383
1783244098209344800,3.0473447265625,-0.18457096997499464,0.09511807806491851,0.007878094697650521
1783244098219357000,3.05735693359375,-0.2336164481729269,0.08829203143715858,0.039267413364164526
1783244098229368000,3.0673681640625,-0.23621406345069407,0.07847147916853428,0.05803971744393929
1783244098239379000,3.07737890625,-0.2109422595500946,0.09200257639288902,0.07047630656301043
1783244098249391000,3.08739111328125,-0.19367197579741477,0.11426175447404384,0.08167140772100538
1783244098259402000,3.097402099609375,-0.19114684123396872,0.1113356378942728,0.053867400195356456
1783244098269414000,3.107413818359375,-0.2222708782941103,0.08458733170032501,-0.05223374371207319
1783244098279425000,3.117425048828125,-0.2072083337187767,0.09611001171171665,-0.10066407655319198
1783244098289436000,3.127435791015625,-0.177654906976223,0.14154431367516518,-0.13171886603571473
1783244098299448000,3.137447998046875,-0.14674422040581703,0.1450719032794237,-0.1233973932184279
1783244098309459000,3.147458984375,-0.12950316274762153,0.13748890080451964,-0.1030617670783773
1783244098319470800,3.157470947265625,-0.10836217504143714,0.10000935723781586,-0.09750367629351094
1783244098329482000,3.16748193359375,-0.1015758759021759,0.10978373227715492,-0.0415979934698902
1783244098339493000,3.1774931640625,-0.0707499450057745,0.13057342232763766,0.0029072657488286493
1783244098349505000,3.187505126953125,-0.050740591678023333,0.13708032000362871,0.03698852691305801
1783244098359516000,3.197515869140625,-0.002949497455358505,0.09214753782153129,0.06972896792758256
1783244098369528000,3.207528076171875,0.06138064363598823,0.03844283564090729,0.069761354093533
1783244098379539000,3.2175390625,0.0979027403473854,-0.00635083033144474,0.08357614536378533
1783244098389550800,3.22755078125,0.07974982854127884,-0.036978608307242394,0.08172732089301571
1783244098399562000,3.23756201171875,0.04403729464709759,-0.03129121032059193,0.0842288736514747
1783244098409573000,3.247572998046875,0.03127250562012195,-0.001031096613407135,0.09377588794203474
1783244098419585000,3.2575849609375,-0.00041501054167747495,0.02354454171657562,0.0969907035363838
1783244098429596000,3.267595947265625,-0.031848844203352926,0.008387889117002487,0.09880524214506149
1783244098439607800,3.27760791015625,-0.06369651936292647,-0.030625439888238903,0.10106436444977297
1783244098449619000,3.287618896484375,-0.07957739458382129,-0.06639525692760943,0.10845721464743838
1783244098459630000,3.297630126953125,-0.12072013683319091,-0.05290975241065025,0.11083631007000803
1783244098469642000,3.30764208984375,-0.13536591730117797,0.023205519020557404,0.16064137446358798
1783244098479654100,3.317654052734375,-0.12532324671447276,0.05855564934313297,0.16168319340040907
1783244098489666000,3.327666015625,-0.05475333445072174,0.028960137024521826,0.12907879985570908
1783244098499677000,3.337677001953125,-0.03488718898594379,-0.025262451550364492,0.05081615939857438
1783244098509687800,3.347687744140625,-0.03347907575368881,-0.05665186154842376,0.006994261067826301
1783244098519700000,3.357699951171875,-0.03173193982541561,-0.022512276059389113,0.04961365174101665
1783244098529711000,3.367711181640625,-0.08080898220539093,0.03445172017812729,0.09193941149618476
1783244098539723000,3.377722900390625,-0.1356529175490141,0.038971827951073644,0.11154107907218858
1783244098549734100,3.387734130859375,-0.1996183169811964,0.023282091388106343,0.09423011624924837
1783244098559746000,3.39774609375,-0.221215816283226,0.03978548242151737,0.045428931668587025
1783244098569757000,3.4077568359375,-0.20314590658545492,0.07787175970971584,0.0298895633617416
1783244098579768000,3.41776806640625,-0.14556582427620887,0.08858253881633281,-0.0018935951942577957
1783244098589780000,3.427780029296875,-0.09153788149058818,0.061542556199431414,-0.054444652094040064
1783244098599791000,3.437791015625,-0.020782675787806508,0.041087212669849396,-0.10501229835795238
1783244098609803000,3.447802978515625,0.02634966226518154,-0.002362052956223488,-0.0895291902829893
1783244098619814000,3.45781396484375,0.019817045626044274,-0.019205051207542418,-0.02655911289793439
1783244098629825000,3.467824951171875,0.019143676409125326,-0.006346738678216934,0.01536165538607165
1783244098639837000,3.4778369140625,0.0015437223106622695,0.019990064105391503,0.08289548788955435
1783244098649848000,3.48784814453125,0.008155249404907226,0.031232173609733578,0.1409860678710509
1783244098659860000,3.49785986328125,-0.002982230681180954,0.010959785431623459,0.12212464246940799
1783244098669871000,3.50787109375,-0.03223053699731827,-0.015769231539964675,0.09918073352710344
1783244098679883000,3.517883056640625,-0.04519289442300796,-0.030069559571146962,0.07450483142673038
1783244098689894000,3.527893798828125,-0.031548399952054024,-0.05256546901762485,0.046017974469764154
1783244098699905000,3.537905029296875,-0.05809504609405994,-0.049288639304041856,0.03374546247175895
1783244098709917200,3.547917236328125,-0.06903145065009593,-0.06409340972602368,0.02637029406125657
1783244098719928000,3.557927978515625,-0.06983633729219436,-0.04044306954741478,0.028397269844217223
1783244098729940000,3.56793994140625,-0.06525602376461029,-0.004843348377943039,0.015011965165566653
1783244098739950800,3.577950927734375,-0.050827685439586635,-0.007281973701715469,0.02458701824052259
1783244098749962000,3.5879619140625,-0.030654665982723234,0.00034369887113571166,0.036931088504241774
1783244098759974000,3.597973876953125,-0.027277883026003837,0.009052490505576133,0.0711789155741455
1783244098769985000,3.607985107421875,0.01116319904923439,0.006657704323530197,0.06094801067265216
1783244098779997200,3.6179970703125,0.05324468345344066,0.0004991816937923431,0.044948317677946756
1783244098790008000,3.628008056640625,0.05097381591200828,0.02381868248283863,0.05315669464273378
1783244098800019000,3.63801904296875,0.010885551151633262,0.021564181554317472,0.05134537090444937
1783244098810030800,3.64803076171875,-0.011446692165732382,0.016926000359654424,0.0644232170691248
1783244098820042000,3.6580419921875,-0.013935001850128173,0.020906594428420064,0.12494745393833145
1783244098830054100,3.66805419921875,0.011723755541443824,0.0034960254222154616,0.154114055054076
1783244098840065000,3.67806494140625,0.061737201988697046,-0.022517536756396294,0.13009837042810393
1783244098850077000,3.688076904296875,0.12074001057744026,-0.03717266957461834,0.07813132396135479
1783244098860088000,3.698088134765625,0.18493746519982815,-0.0579097526550293,0.030939280193939336
1783244098870099000,3.708098876953125,0.18694997406601904,-0.055993105378746987,-0.0011298993644842995
1783244098880111000,3.718111083984375,0.16470833164155482,-0.04104278900623321,0.013229171118733937
1783244098890122000,3.7281220703125,0.13271160340011118,-0.04561199661791324,0.04124662731552962
1783244098900134100,3.738134033203125,0.04859013564586639,-0.02985094838440418,0.0671642000400694
1783244098910145000,3.74814501953125,-0.04993219790458679,-0.0008937339693307876,0.12264871200928464
1783244098920156000,3.758156005859375,-0.12849544700980187,0.01078501338660717,0.15381057859547434
1783244098930167800,3.768167724609375,-0.18041385029554366,-0.0018517653465270996,0.1484940871472936
1783244098940179200,3.77817919921875,-0.27352877184450625,-0.004285714495182037,0.12863647204884326
1783244098950191000,3.788191162109375,-0.28400808028280733,0.03205284234285354,0.06291132380198687
1783244098960202000,3.798201904296875,-0.2578156544059515,0.06857669261991978,0.007744035972224082
1783244098970212900,3.808212890625,-0.2128589068263769,0.06670563805103302,-0.08211405518827959
1783244098980225000,3.81822509765625,-0.16157938596606253,0.055025137129426,-0.1598891130578704
1783244098990236200,3.828236083984375,-0.10620353570282459,0.03231587719321251,-0.1885069211844355
1783244099000248000,3.838248046875,-0.07677519664466381,0.02161445043683052,-0.15830471167694776
1783244099010259000,3.848259033203125,-0.0617132365912199,0.041509237474203105,-0.08629363329471089
1783244099020271000,3.85827099609375,-0.08350479716062545,0.06066986501812935,-0.005628626137273386
1783244099030282000,3.868281982421875,-0.07883271369636058,0.05683890855312347,0.0802027873400133
1783244099040292900,3.87829296875,-0.04093348341286182,0.04076689467430115,0.10250668134572916
1783244099050305000,3.888304931640625,-0.024438860207796096,-0.012332242828607558,0.07694462579428218
1783244099060316200,3.898316162109375,0.002611643803119659,-0.049941550254821776,0.08878560537407174
1783244099070328000,3.908328125,0.04849135144650936,-0.05681085150241851,0.11676816607071086
1783244099080339000,3.9183388671875,0.09260229585170746,-0.051985038781166074,0.14433783511752263
1783244099090349800,3.928349853515625,0.12893968364596367,-0.020332009410858155,0.1819635274229571
1783244099100362000,3.938362060546875,0.13015081300139428,0.014206804528832434,0.21685663469303398
1783244099110373000,3.948373046875,0.14206921433210373,0.026777532288432118,0.19530377825032919
1783244099120385000,3.958385009765625,0.13524316770434378,0.0177244572609663,0.16286250284546985
1783244099130396200,3.968396240234375,0.08779752591848373,0.011509236007928848,0.1417361190533731
1783244099140407000,3.978406982421875,0.006419803914427757,0.02111585326492786,0.11769490726049989
1783244099150419000,3.9884189453125,-0.05094342077374458,0.034249475604295726,0.1251398164389655
1783244099160430000,3.99843017578125,-0.08810264634490013,0.07793781068325042,0.13363914830749854
1783244099170442000,4.00844189453125,-0.11827332820296287,0.06982640042006968,0.0929026853040792
1783244099180453000,4.018453125,-0.14536474874615668,0.07230418871045112,0.020524572840891778
1783244099190465000,4.028465087890625,-0.13312602941989898,0.066754153367877,-0.025403743734175803
1783244099200476000,4.038475830078125,-0.05702361747026443,0.04282616529166698,-0.04654178828131407
1783244099210487000,4.048487060546875,0.017736147698760033,0.023374445846676827,-0.06992605226910673
1783244099220499000,4.0584990234375,0.019554595297574997,0.013699439528584479,-0.061659935501404105
1783244099230510000,4.068510009765625,0.0030231472134590147,0.04038578640222549,-0.030601163963507858
1783244099240522000,4.07852197265625,-0.01514203955233097,0.0633645109295845,0.0337798076993553
1783244099250533000,4.088533203125,-0.03567453997135162,0.06908873379528523,0.04817411132403649
1783244099260544000,4.0985439453125,-0.017837854507565497,0.06601064152419567,0.011237723306880798
1783244099270556000,4.108555908203125,-0.04301847299337387,0.06476502537727355,-0.014801085194130427
1783244099280567000,4.118567138671875,-0.04366846133470535,0.05427694911062717,-0.04575265176419634
1783244099290579200,4.1285791015625,-0.05897825866937637,0.03034428485929966,-0.03627972562315408
1783244099300590000,4.138590087890625,-0.05992284604310989,0.03466974684298038,-0.003514280314825009
1783244099310601000,4.14860107421875,-0.0780693281084299,0.05627601397335529,0.04420836319795344
1783244099320612900,4.15861279296875,-0.06596855594813823,0.05532207424938678,0.0744754866012372
1783244099330624000,4.1686240234375,-0.044105099186301226,0.047557869988679884,0.07882455778936855
1783244099340636000,4.178635986328125,-0.007837269496917725,0.04292436496913433,0.07496936193224973
1783244099350647000,4.18864697265625,0.010597966381907463,0.020451836398243904,0.08091718268706463
1783244099360659200,4.1986591796875,0.06540449232459068,0.004545826736092567,0.07693251523138024
1783244099370670000,4.208670166015625,0.06776011554002762,-0.001277180328965187,0.07619132777552586
1783244099380681000,4.218680908203125,0.028145898032188414,-0.015952186891436577,0.11533517412552609
1783244099390692900,4.22869287109375,0.00024608371555805207,0.02093523600101471,0.13219818311841228
1783244099400704000,4.2387041015625,0.001432078629732132,0.033954292050004005,0.12411522263158112
1783244099410716200,4.248716064453125,-0.02494622520804405,0.03237783651351928,0.09937382668009959
1783244099420727000,4.25872705078125,-0.06874035874903202,-0.003969488152861595,0.07718845362067223
1783244099430738000,4.268738037109375,-0.12893909912407397,-0.009431845211982726,0.04225493214181624
1783244099440750000,4.27875,-0.14574936414957046,0.0385901351571083,0.03770109562920406
1783244099450761000,4.288760986328125,-0.12380407432317733,0.06227788473665714,0.06930433104103431
1783244099460772900,4.29877294921875,-0.1271954703271389,0.07009528048932552,0.07929423939404077
1783244099470784000,4.308783935546875,-0.11065876154601573,0.03521919741928577,0.04209703359978739
1783244099480794400,4.31879443359375,-0.08883505227267742,0.019907646518945693,0.008099281433969735
1783244099490806300,4.32880615234375,-0.08725625864863396,0.04342003953158855,0.00724942770556081
1783244099500817400,4.3388173828125,-0.1305330903172493,0.08499357441365718,0.046922965052048675
1783244099510829600,4.34882958984375,-0.1303325993090868,0.10052022936940193,0.12830465541174635
1783244099520840400,4.35884033203125,-0.0869008693397045,0.10757774666547774,0.16287505179978906
1783244099530851300,4.368851318359375,-0.006450199052691459,0.10076046786606312,0.18399718867503106
1783244099540863200,4.37886328125,0.026453707161545752,0.0714513712733984,0.14013694022842682
1783244099550874400,4.388874267578125,0.08581365862488746,0.036222236981987954,0.06527076010943855
1783244099560886300,4.39888623046875,0.13440730140209198,0.03686579558253288,0.008031650424702092
1783244099570897400,4.4088974609375,0.16327508396804333,0.02780629081428051,-0.03395130550847389
1783244099580909600,4.41890966796875,0.1539256563425064,0.018568506869673727,-0.03627157428273931
1783244099590920400,4.42892041015625,0.0714507867515087,0.01903553985953331,-0.005282525246497243
1783244099600931300,4.438931396484375,0.021228665989637373,0.04867313775420189,0.05536930179144255
1783244099610943200,4.448943115234375,-0.029850363862514495,0.07955284466445446,0.11869663164895027
1783244099620954400,4.458954345703125,-0.0894634133040905,0.08338438565135002,0.10500015126243233
1783244099630966500,4.468966552734375,-0.14459902507066727,0.07798457243442534,0.0729054288394982
1783244099640977400,4.478977294921875,-0.14505612118840217,0.08624094412624836,0.02762848656196147
1783244099650988300,4.48898828125,-0.16737901215553283,0.0939642318546772,-0.041574429931212215
1783244099661000400,4.49900048828125,-0.20854221267104148,0.09543430440723895,-0.1133842592534609
1783244099671011300,4.50901123046875,-0.23102234002649782,0.07656476876437664,-0.13257783921891822
1783244099681023200,4.519023193359375,-0.21227496945858002,0.07487900763452053,-0.07380039121811277
1783244099691034400,4.529034423828125,-0.21226386354267596,0.088940266212821,-0.03046884282073006
1783244099701045200,4.539045166015625,-0.20528408765792847,0.10505202758014201,0.0017784717814531177
1783244099711057400,4.549057373046875,-0.16985796948969364,0.08145020271837711,0.015828998903185128
1783244099721068300,4.559068359375,-0.14625906723737717,0.05993804361224174,0.004813172435387969
1783244099731080200,4.569080078125,-0.12363514749705791,0.0562929651081562,0.021834961319714782
1783244099741091600,4.579091552734375,-0.07992050893306732,0.0713461573332548,0.07535512811313383
1783244099751103500,4.589103515625,-0.011968085691332817,0.06854746652543545,0.13284520318452267
1783244099761114400,4.5991142578125,0.041430911540985105,0.06484802748560906,0.14570517794797197
1783244099771125200,4.609125244140625,0.11948036590516567,0.05236380896568298,0.12889723274372517
1783244099781137400,4.619137451171875,0.18921032021343706,0.02811901002526283,0.09265135915782302
1783244099791148500,4.6291484375,0.21353402960896492,0.02320084284543991,0.08530957242711447
1783244099801160400,4.639160400390625,0.17296294976770876,-0.010066635984182358,0.07390348626640625
1783244099811171300,4.64917138671875,0.1314566349029541,-0.02109948665201664,0.09440965580092743
1783244099821182500,4.659182373046875,0.08312251984477043,0.006792144358158111,0.14969389139111153
1783244099831194400,4.6691943359375,0.00800911893248558,0.027461422899365425,0.2270424766100943
1783244099841205200,4.679205322265625,-0.08361118014454841,0.03838789058327675,0.24676347798313944
1783244099851217200,4.689217041015625,-0.12753449302315711,0.02441957098543644,0.20963499461011958
1783244099861228500,4.699228515625,-0.16332652189433575,-0.0012046996146440505,0.15114662008322774
1783244099871239400,4.709239501953125,-0.1997965961575508,-0.021686346629261968,0.11786582511430606
1783244099881251300,4.719251220703125,-0.26084055518507954,-0.04484159676730633,0.10389238181677646
1783244099891262200,4.72926220703125,-0.2809457701027393,-0.05034603940248489,0.10428596597793512
1783244099901274400,4.7392744140625,-0.2867296142011881,-0.055801382198929786,0.12339076254824176
1783244099911285500,4.749285400390625,-0.2983995937287807,-0.026711481314897537,0.10904744475870393
1783244099921297400,4.75929736328125,-0.23786650683283805,0.0022287819653749466,0.10452612227620556
1783244099931308300,4.769308349609375,-0.16705167989730835,0.022267945909500122,0.045108796336129305
1783244099941319400,4.7793193359375,-0.09998831444978713,0.006036357554793357,-0.024892677523056045
1783244099951331300,4.789331298828125,-0.06891279270648956,-0.03361000865697861,-0.10271521866302936
1783244099961342200,4.79934228515625,-0.06104629711508751,-0.04692307921648025,-0.1501262275269255
1783244099971354400,4.809354248046875,-0.06857201644480228,-0.007096680262684822,-0.11378904066206887
1783244099981365500,4.819365478515625,-0.09710895962119102,0.03769932379722595,-0.045145876943506295
1783244099991376400,4.82937646484375,-0.11510931121408939,0.047049920466542244,-0.009903152518160641
1783244100001388300,4.83938818359375,-0.10721592761576175,0.04405775291323662,0.008685008900053798
1783244100011399200,4.849399169921875,-0.09028934273421764,0.00850888514816761,-0.012322981809917836
1783244100021411300,4.859411376953125,-0.08581248958110808,0.019840426501631734,-0.02224598980601877
1783244100031422500,4.86942236328125,-0.10391805511415005,0.036598084557056425,-0.02469340122444555
1783244100041433300,4.879433349609375,-0.14367138883173464,0.03253156577050686,-0.03127352853342891
1783244100051445500,4.889445556640625,-0.1484960325092077,0.04122282174825668,-0.02124052082421258
1783244100061456400,4.899456298828125,-0.1366752463340759,0.0535392824858427,0.0013931896577589213
1783244100071468300,4.90946826171875,-0.14423486793339252,0.042019525083899494,-0.003582461596652865
1783244100081479400,4.9194794921875,-0.09366378760337829,0.056065001571178434,-0.010001059934683143
1783244100091491600,4.92949169921875,-0.029838088902831076,0.07986673291921616,-0.05491084483368322
1783244100101502500,4.93950244140625,0.022428689429163932,0.0608288549721241,-0.0882333600524813
1783244100111513300,4.949513427734375,0.06257014568150043,0.049580315726995464,-0.11256382798235863
1783244100121525200,4.959525146484375,0.0768541070997715,0.0422545028835535,-0.12289985549245029
1783244100131536400,4.969536376953125,0.05433130964636802,0.044411388656497,-0.110528193968907
1783244100141548300,4.97954833984375,0.027060440883040427,0.05054536136686802,-0.045736810307670385
1783244100151559400,4.989559326171875,0.015540098959207533,0.07925707658827304,0.014296583437826483
1783244100161570300,4.9995703125,-0.012887538623809813,0.07153729599118232,0.08495176283223554
1783244100171582500,5.00958251953125,-0.048616439130902286,0.06523088932335376,0.12415031221127137
1783244100181593300,5.01959326171875,-0.0882347482919693,0.03928922333717346,0.11841339426077901
1783244100191605200,5.029605224609375,-0.1253214931488037,0.029320202508568764,0.12365248222434892
1783244100201616400,5.039616455078125,-0.1882335841357708,0.03296235840320587,0.10480071970019489
1783244100211627500,5.04962744140625,-0.18431319582164288,0.03555997368097305,0.10289357090461998
1783244100221639400,5.059639404296875,-0.11724690776467322,0.07654957119524479,0.10445698429644107
1783244100231650300,5.069650390625,-0.041915480187535284,0.07515665553212166,0.050780302633903915
1783244100241662500,5.079662353515625,0.03921148192584514,0.03686170392930507,-0.01085928419921547
1783244100251673300,5.08967333984375,0.10076222143173218,-0.013987024298310278,-0.04974756205268204
1783244100261685200,5.099685302734375,0.12028174541592597,-0.06810849058628082,-0.09558565904404967
1783244100271696400,5.1096962890625,0.1136579433619976,-0.08292144431471825,-0.052019817833602426
1783244100281707300,5.119707275390625,0.04522328956127167,-0.03712999947667121,0.021170615659467876
1783244100291719400,5.129719482421875,-0.03692892394661903,0.031948212924599644,0.07223421048047021
1783244100301730300,5.139730224609375,-0.13860066143870353,0.07092354800701141,0.11825414857845752
1783244100311742200,5.1497421875,-0.210837045609951,0.06309095468521118,0.07774606923712417
1783244100321753600,5.159753662109375,-0.2497936759918928,0.03720306471288204,0.04120528609156608
1783244100331764500,5.169764404296875,-0.2440945875674486,0.040864509829878805,-0.021383454692550003
1783244100341776400,5.1797763671875,-0.23196634287834167,0.0791238055974245,-0.05194315413450822
1783244100351787300,5.189787353515625,-0.19402561154067516,0.10315817665755748,-0.0816209196427837
1783244100361799400,5.19979931640625,-0.13048165239095688,0.1115489883840084,-0.13376094805626199
1783244100371810600,5.209810546875,-0.10842354983985424,0.1268868427693844,-0.18368335521919651
1783244100381821400,5.219821533203125,-0.04359890322983265,0.1313216103464365,-0.21678420877764001
1783244100391833300,5.229833251953125,-0.000800210466980934,0.11713292599618434,-0.20870220727203412
1783244100401844500,5.239844482421875,0.014212649747729301,0.0927221228390932,-0.18055532285915687
1783244100411856400,5.2498564453125,0.0033434652090072628,0.11180617801547049,-0.11952155643207951
1783244100421867300,5.2598671875,-0.053420624542236325,0.10285773240625858,-0.010752499356493353
1783244100431878400,5.26987841796875,-0.0657259793639183,0.10034954897761345,0.0524152103593573
1783244100441890600,5.279890625,-0.05380465542376041,0.08002689191699028,0.06305347221903503
1783244100451901400,5.2899013671875,-0.01590659418404102,0.04571370342671871,0.06962271280782296
1783244100461913300,5.299913330078125,0.025032734447717666,0.015358312651515006,0.06656692370008677
1783244100471924200,5.30992431640625,0.08237959252297877,0.009845102187991141,0.06148163805874064
1783244100481936100,5.31993603515625,0.16122048952579499,0.004299743020534515,0.06665569796208291
1783244100491947300,5.329947265625,0.17155366749167442,-0.047260932868719095,0.08317657898641191
1783244100501958400,5.33995849609375,0.1294914723098278,-0.07363105340003967,0.12760711073479614
1783244100511970300,5.34997021484375,0.055959787631034846,-0.048262218865752216,0.19170586335621773
1783244100521981200,5.359981201171875,-0.018774258574843404,-0.0009247136294841766,0.2312821965390816
1783244100531993000,5.3699931640625,-0.09749240598082543,0.008052958074212075,0.21816284018708393
1783244100542004200,5.380004150390625,-0.1688917548060417,0.011359598404169082,0.1722644826421514
1783244100552015400,5.390015380859375,-0.2113771438360214,0.0011783961296081542,0.11527208229405805
1783244100562027300,5.40002734375,-0.19750760843753815,-0.012616320466995238,0.07001994109763764
1783244100572038100,5.4100380859375,-0.1691407611310482,-0.02391279050707817,0.04992754912893287
1783244100582050300,5.42005029296875,-0.1277495970785618,-0.03122515934705734,0.046524709282349794
1783244100592061200,5.430061279296875,-0.08443360244333743,0.030285832670331,0.058544123302120714
1783244100602072300,5.440072265625,-0.029195114824175833,0.049662733313441274,0.06883399184923619
1783244100612084200,5.450084228515625,0.011352584141492842,0.02634966226518154,0.05901711110873147
1783244100622095400,5.460095458984375,-0.013225392276048659,0.0006184241592884064,0.01319842207073234
1783244100632107300,5.470107177734375,-0.04923194068074226,-0.027092005065083503,-0.01480189347830601
1783244100642118100,5.4801181640625,-0.07472937003076076,-0.009491466444730758,0.015301614028215407
1783244100652129300,5.49012939453125,-0.08312193532288074,0.01504091726541519,-0.0011683131270110606
1783244100662141400,5.500141357421875,-0.10301204618513583,0.022826748836040495,-0.00791778738722205
1783244100672152300,5.51015234375,-0.16548282314538953,0.031202362993359566,0.012139779863273725
1783244100682164200,5.520164306640625,-0.18253508023321627,0.007670680758357047,0.0588650440858677
1783244100692175000,5.530175048828125,-0.0814420194119215,0.012474281647801398,0.07524042482543736
1783244100702187300,5.540187255859375,0.011131634867191313,0.05130114817023277,0.02896663983054459
1783244100712198100,5.5501982421875,0.047319385057687756,0.0457967055350542,-0.015812230431474745
1783244100722209300,5.560209228515625,0.006202946293354034,-0.025486323434114454,-0.08992604411346837
1783244100732221400,5.570221435546875,-0.0391349095582962,-0.042512277036905285,-0.1287389003768563
1783244100742232300,5.580232421875,-0.0880558845937252,-0.027850129956007,-0.06842756647281348
1783244100752244200,5.590244140625,-0.09767886846363544,0.04592471582889557,0.017526286074053495
1783244100762255000,5.600255126953125,-0.0238286193549633,0.10738953061699867,0.10407532803509384
1783244100772266200,5.610266357421875,-0.05432429538369178,0.056873979866504665,0.0745897514975164
1783244100782278400,5.6202783203125,-0.09667524437904357,0.009088730862736701,-0.029179634127253665
1783244100792289300,5.630289306640625,-0.038006782311201096,0.03447159392237663,-0.09940990264047868
1783244100802301200,5.64030126953125,0.005884381863474846,0.05487082335054874,-0.1345164425986819
1783244100812312300,5.650312255859375,0.022963526958227155,0.12488777790665626,-0.14565520132640375
1783244100822323200,5.6603232421875,0.03915419878065586,0.13954992498755453,-0.11695386136854066
1783244100832335400,5.67033544921875,0.11358312456011771,0.052768298113346095,-0.084444023372652
1783244100842346200,5.68034619140625,0.18221885389089584,-0.00705751729607582,-0.013379130666190758
1783244100852358400,5.6903583984375,0.23727029450535772,-0.02224398051202297,0.11637530342875979
1783244100862369300,5.700369384765625,0.17782149571478365,-0.03464110527038574,0.18213904838664455
1783244100872380200,5.710380126953125,0.06804010152518748,-0.02611702255308628,0.24280191740840673
1783244100882392000,5.72039208984375,-0.14945172579884528,-0.03452712350189686,0.2062032483294606
1783244100892403500,5.730403564453125,-0.26997312518954275,-0.01869651716351509,0.15134851759718732
1783244100902415400,5.740415283203125,-0.3219920662403106,-0.02534019296169281,0.11786679322868585
1783244100912426200,5.75042626953125,-0.29258476997017857,-0.04312310241162777,0.09172965033617801
1783244100922438100,5.760438232421875,-0.16397884832322596,-0.03761223003566265,0.11878715947661549
1783244100932449300,5.77044921875,-0.0523673160970211,-0.06139350311756134,0.14242431138008832
1783244100942460400,5.78046044921875,0.04201192629933357,-0.11438625763654708,0.16139107858603818
1783244100952472300,5.790472412109375,0.09803250420689583,-0.11700023952722549,0.13108352727424352
1783244100962483200,5.800483154296875,0.1014057800322771,-0.140022803196311,0.0578081737103872
1783244100972495400,5.810495361328125,0.10333528679013251,-0.14608020353913306,0.018472398684592918
1783244100982506200,5.82050634765625,-0.05462883128821849,-0.1444096399784088,-0.02082652406268753
1783244100992517000,5.83051708984375,-0.1592635102391243,-0.010657587614655495,0.07381241958262398
1783244101002529000,5.840529052734375,-0.20065408976972102,0.09829846166670322,0.22137692512907087
1783244101012540400,5.85054052734375,-0.20337036299109457,0.09067688074707984,0.2400432663500309
1783244101022552300,5.86055224609375,-0.17347323737740517,0.015090601626038551,0.1705420244974084
1783244101032563200,5.870563232421875,-0.1773532936811447,0.00033259295523166654,0.06257185358139686
1783244101042574000,5.880573974609375,-0.1906780546784401,0.03489946394562721,-0.023437254550354555
1783244101052586200,5.890586181640625,-0.15107786569595336,0.10455752206146716,-0.10421260848077944
1783244101062597400,5.900597412109375,-0.05247136099338531,0.1547965939581394,-0.12915142670050261
1783244101072609300,5.910609375,0.01835749446749687,0.12874737594425678,-0.13221619369913823
1783244101082620200,5.9206201171875,0.00626022943854332,0.05621522369682788,-0.17680420843102038
1783244101092631300,5.93063134765625,0.01604921752512455,0.0044137247890233995,-0.1582321213647723
1783244101102643200,5.940643310546875,0.022971710264682768,0.040163083562254905,-0.03216852287808433
1783244101112654300,5.950654296875,0.01483750364780426,0.11546353147923946,0.12323432074435986
1783244101122666200,5.960666259765625,-0.006986205625534057,0.13723054212927818,0.14992614751071667
1783244101132677400,5.970677490234375,-0.009137830701470374,0.09472060317993164,0.1161957456107717
1783244101142689300,5.980689208984375,0.040219782185554505,-0.0025409166544675824,0.05987197437239811
1783244101152700200,5.9907001953125,0.06166004509925842,-0.014331307691335678,0.027429045866569503
1783244101162711000,6.0007109375,0.056605684319138524,-0.022684710016846656,0.05150468051885254
1783244101172723200,6.01072314453125,0.043354573079943656,-0.025756957069039344,0.0722142454046756
1783244101182734300,6.020734375,-0.02328618304133415,-0.024538228929042814,0.08263468152889981
1783244101192746200,6.030746337890625,-0.07551613649427891,0.02759410936832428,0.09795441573569551
1783244101202757400,6.04075732421875,-0.09356558792591095,0.008353986847400664,0.11946562499376014
1783244101212768300,6.050768310546875,-0.11102876390218734,-0.03386310663521289,0.13231851242929696
1783244101222780200,6.0607802734375,-0.05107669176459312,-0.06650923869609833,0.15799712529880924
1783244101232791300,6.070791259765625,0.02313070021867752,-0.041620296633243556,0.18633618954923004
1783244101242803500,6.080803466796875,0.05756371569633484,-0.029139000722765922,0.21072668057065455
1783244101252814300,6.090814453125,0.09627601592838764,-0.028165771776437757,0.17796649367604403
1783244101262825200,6.1008251953125,0.10482640213072299,-0.018603578183054924,0.1264070507626515
1783244101272837000,6.110837158203125,0.018072247785329818,0.02949848168492317,0.08139629884036258
1783244101282848300,6.12084814453125,-0.06151566819250583,0.06943593979775906,0.007626366692595183
1783244101292860200,6.130860107421875,-0.09614508302509785,0.07686988919079303,-0.05975409274692647
1783244101302871300,6.140871337890625,-0.17141221319437025,0.04515139336884021,-0.13182252733958885
1783244101312882200,6.150882080078125,-0.23846856437921524,0.006321604236960411,-0.13199140849993563
1783244101322894300,6.160894287109375,-0.23330489800572393,0.03897241247296333,-0.07746332503929734
1783244101332905200,6.1709052734375,-0.22382395295500754,0.0604582680940628,-0.028583175204601137
1783244101342917000,6.180917236328125,-0.19020342290401457,0.06590659662783145,0.0020875559969339517
1783244101352928300,6.19092822265625,-0.12248714650571346,0.08508066817522049,0.04185821530865505
1783244101362939400,6.200939453125,-0.08788812681138515,0.10809446401596069,0.027534460736112668
1783244101372951300,6.210951416015625,-0.046340895414352413,0.07235095046162605,-0.002271716924803331
1783244101382962200,6.220962158203125,-0.047562546163797376,0.04273614892065525,-0.018301763958577067
1783244101392974300,6.230974365234375,-0.09839198516905308,0.020336685585975647,-0.026813608248811214
1783244101402985200,6.240985107421875,-0.14758008670806885,0.018261048355698584,-0.00722567693721503
1783244101412997000,6.2509970703125,-0.1862017860472202,0.059795420271158216,0.0064724017513450235
1783244101423008300,6.26100830078125,-0.1980453685760498,0.12750585145056248,0.04862900635153055
1783244101433019100,6.27101904296875,-0.1864519614160061,0.12287468451857567,0.06621019181744195
1783244101443031300,6.28103125,-0.12384499085545539,0.06974339831173419,0.052697991089802235
1783244101453042200,6.291042236328125,-0.07942600341439246,0.005055529823899269,0.03252026805835776
1783244101463054000,6.30105419921875,-0.02079261265993118,-0.008831541231274604,0.033802517288085074
1783244101473065500,6.3110654296875,-0.017418752312660216,-0.008052958074212075,0.05934484522575512
1783244101483076900,6.321076904296875,-0.045882045730948444,-0.00530512067079544,0.04243063576859422
1783244101493089000,6.331089111328125,-0.10893559101521968,-0.009623568391799927,0.011939033126784487
1783244101503100000,6.341099853515625,-0.16600597023665903,0.03171791130006313,0.02775928246793337
1783244101513111800,6.35111181640625,-0.16638532494306563,0.07459551451802253,0.05485178985651582
1783244101523122700,6.361122802734375,-0.12025251932144164,0.06367547657489776,0.09735160013749264
1783244101533134000,6.371134033203125,-0.05835106668174266,0.036810266003012654,0.10972593767531215
1783244101543146000,6.38114599609375,0.02689502118825912,0.023767829078435897,0.13030337321460247
1783244101553156900,6.391156982421875,0.03872574423551559,0.02549392221868038,0.1581879716957919
1783244101563169000,6.4011689453125,0.017594693401455877,0.05687339534461498,0.13386045377482658
1783244101573180000,6.411179931640625,0.04071721031367779,0.08117956908345222,0.11592207063538953
1783244101583191000,6.42119091796875,0.052479544299840926,0.09334580769538879,0.10021750182947144
1783244101593203000,6.431202880859375,0.02740530879795551,0.08245031967163086,0.07135366478627547
1783244101603213800,6.4412138671875,0.011795651733875274,0.07249766545593739,0.02448945788387209
1783244101613226000,6.45122607421875,0.05676058261990547,0.03981880016922951,-0.0024513934738002716
1783244101623236900,6.46123681640625,0.09038461980223655,0.036404607811570164,-0.02490595712973736
1783244101633247700,6.471247802734375,0.1090659393966198,-0.006433832439780235,-0.04697617024374194
1783244101643260000,6.481260009765625,0.04850830258131027,-0.03260872265994549,-0.04166798996618017
1783244101653271000,6.49127099609375,-0.0577004938185215,-0.01746960571706295,0.008307115498371423
1783244101663283000,6.501282958984375,-0.16146949585080145,0.0272054023116827,0.09231494854399934
1783244101673293800,6.5112939453125,-0.23838556227087973,0.0737169781178236,0.13477781521491705
1783244101683306000,6.521305908203125,-0.3090063279390335,0.09097031073570251,0.13017658676346763
1783244101693316900,6.53131689453125,-0.332646146723628,0.0640571693688631,0.11643210251675919
1783244101703328000,6.541327880859375,-0.35666941186785694,0.06731295629441737,0.04922480768705718
1783244101713340000,6.55133984375,-0.3332780148863792,0.0759820004403591,-0.015191038926364853
1783244101723351000,6.56135107421875,-0.27139351338148116,0.08270750930309295,-0.0784632045305334
1783244101733363000,6.571363037109375,-0.19912790311574935,0.09516367077231407,-0.1168261981345713
1783244101743373800,6.581373779296875,-0.10654665005207062,0.07540566185712815,-0.14245741906524634
1783244101753384700,6.591384765625,-0.03989654158055782,0.06622749914526939,-0.1213732852459885
1783244101763396900,6.60139697265625,-0.04498480463027954,0.031904373782873155,-0.09163105793306603
1783244101773408000,6.611407958984375,-0.10429682529866695,0.015084756407141684,-0.03730815992201678
1783244101783420000,6.621419921875,-0.1477729789316654,0.04288461748063564,0.02337153237038292
1783244101793430800,6.6314306640625,-0.14428513681590557,0.10510814168155193,0.07113448734395206
1783244101803442000,6.64144189453125,-0.11847849538624286,0.12167290751338004,0.09895803982028738
1783244101813453800,6.651453857421875,-0.04903612584769725,0.07263736618757248,0.09741841829600743
1783244101823465000,6.66146484375,0.0775251382291317,0.034138416445255275,0.09357066595982759
1783244101833476900,6.671476806640625,0.1438783095806837,-0.009343582406640053,0.10766659399271011
1783244101843488000,6.681488037109375,0.1913864952087402,-0.03548457035720348,0.10077572936727665
1783244101853499000,6.691498779296875,0.18363398138582707,-0.006623217532038688,0.11197394493096507
1783244101863510800,6.7015107421875,0.14659458280205725,0.010828852528333663,0.12559971643513998
1783244101873522000,6.71152197265625,0.0567331100910902,-0.01125379994213581,0.10340652539543807
1783244101883534000,6.7215341796875,-0.06296469795703888,-0.0761912592768669,0.10100591226080433
1783244101893545000,6.731544921875,-0.19068799155056476,-0.10599076973497867,0.07832119311080314
1783244101903555800,6.741555908203125,-0.26323709493279457,-0.00022270283997058866,0.015210209417715668
1783244101913567700,6.751567626953125,-0.2779255454987287,0.26708850966393943,0.08616542207146995
1783244101923579000,6.761578857421875,-0.30117841079235075,0.35625440132617947,0.2108809212842956
1783244101933590800,6.7715908203125,-0.19277064304351804,0.08855915794074534,0.048396028712717816
1783244101943602000,6.781601806640625,0.010225041416287422,-0.19870354022383688,-0.2796813396574929
1783244101953612800,6.79161279296875,0.09234101456701754,-0.10307575907111168,-0.19128336362782863
1783244101963625000,6.801625,0.037567806372046465,0.25444880832135675,0.1338680799588561
1783244101973635800,6.8116357421875,-0.0403723423987627,0.3260504017204046,0.298633274620492
1783244101983647700,6.821647705078125,-0.15007248804569243,0.15748831726014614,0.19949218811718747
1783244101993659000,6.831658935546875,-0.3049719578564167,0.05701601868569851,0.013769746552128344
1783244102003671000,6.841671142578125,-0.500187071442604,0.25005203466713427,-0.06527268263846635
