time,seconds_elapsed,z,y,x
1783244190270870500,0.05787060546875,0.18724574214220047,0.14559884976297616,-0.16859562140367923
1783244190280881400,0.06788134765625,0.03232055336833,0.11650894887894392,-0.08489771282374858
1783244190290893300,0.077893310546875,-0.07262684479355812,0.0996519221022725,0.03755633512996137
1783244190300904400,0.087904541015625,-0.14849369442164898,0.11258256921544671,0.06388276265002786
1783244190310915600,0.09791552734375,-0.2287701771855354,0.08846548830792307,0.07545081617310642
1783244190320926500,0.107926513671875,-0.31535189757347104,0.0398559173092246,0.1696823206618428
1783244190330938400,0.1179384765625,-0.37398937998116016,0.027021570177376268,0.23733334980420767
1783244190340949500,0.127949462890625,-0.4753367078244686,0.02968479803726077,0.2805501218486577
1783244190350960400,0.13796044921875,-0.4445177911907434,0.04351648564338684,0.3266748172290623
1783244190360972300,0.14797216796875,-0.3066968819528818,0.057775751011818643,0.2669819805495441
1783244190370983400,0.1579833984375,-0.20363222879767418,0.018104981011152266,0.16184760844819246
1783244190380994300,0.167994384765625,0.04847030865848064,-0.06898468889892101,0.09677293259985745
1783244190391005400,0.17800537109375,0.19472002354562282,-0.09142463037446141,0.019431115048378706
1783244190401017300,0.188017333984375,0.09831482827961445,-0.04249094198793173,0.014733166490495204
1783244190411028500,0.198028564453125,0.07271276951134205,0.04309811410084367,0.09287855550982058
1783244190421039400,0.208039306640625,0.07179156301319599,0.11308934969380498,0.0801120859824121
1783244190431050500,0.218050537109375,-0.013358078745007515,0.16773951603099702,0.012575184739008545
1783244190441062400,0.2280625,0.08412263679802418,0.21035715313851833,-0.07409114519245923
1783244190451073500,0.238073486328125,0.2577414201259613,0.17849369588792324,-0.14807539594434202
1783244190461084400,0.24808447265625,0.30361060637533666,0.08223580013811588,-0.23760449489578603
1783244190471096600,0.2580966796875,0.26301439209282396,0.006370411814749241,-0.3001755904253572
1783244190481107500,0.268107421875,0.2949514991015196,-0.018721067082881928,-0.267692759167403
1783244190491118300,0.278118408203125,0.3046680064737797,-0.05340922636538744,-0.16299524411335586
1783244190501129500,0.28812939453125,0.23492168555259704,-0.017894260869920253,-0.08398096330501138
1783244190511141600,0.2981416015625,0.2039092921733856,0.13195055589973925,-0.0291948956284672
1783244190521152500,0.308152587890625,0.10133037670850753,0.19421821150332688,0.11438355422280728
1783244190531163400,0.318163330078125,-0.14493570967912672,0.15497048922032117,0.2763759049039334
1783244190541174500,0.328174560546875,-0.29676527052521706,0.14017974732369184,0.2660738527286798
1783244190551186400,0.3381865234375,-0.31753333326578137,0.08398702771961689,0.1262085051164031
1783244190561197600,0.348197509765625,-0.2878361141383648,-0.006616787791252136,-0.01949745828285813
1783244190571208700,0.358208740234375,-0.219856218367815,-0.0332312384724617,-0.12931618880815804
1783244190581219600,0.368219482421875,-0.15353636476397514,0.014937164629995822,-0.21443879642896352
1783244190591231500,0.3782314453125,-0.10416063169836998,0.04387362851798534,-0.2367098841436207
1783244190601243000,0.388242919921875,-0.10050561632215976,0.05429653059393167,-0.2502452922169119
1783244190611253800,0.398253662109375,-0.0655909548074007,0.04104863422513008,-0.24182730022259055
1783244190621265700,0.408265625,-0.011599836900830269,0.01886164459735155,-0.20154051721543073
1783244190631276500,0.418276611328125,-0.005566401955485344,-0.05246610029637813,-0.1611052656482905
1783244190641287700,0.42828759765625,0.09894552739858627,-0.0881172593921423,-0.04494352277182043
1783244190651298800,0.438298828125,0.2318418397158384,-0.08859978221207856,-0.0251619137853384
1783244190661310700,0.448310791015625,0.27204408624470233,-0.08917407496869563,-0.02871566074416041
1783244190671321600,0.458321533203125,0.2767220149278641,-0.06603694500923156,-0.0187161717120558
1783244190681332500,0.46833251953125,0.14797230089604854,-0.04223346009552478,-0.08007730692997575
1783244190691344000,0.47834375,-0.09013619799911975,-0.02350654779374599,-0.10709792725928127
1783244190701355800,0.488355712890625,-0.22142741320729253,0.0027142273947596547,-0.05249605704322457
1783244190711366700,0.49836669921875,-0.28551380867063997,-0.05643558844923973,0.014916341037675737
1783244190721377500,0.50837744140625,-0.35375615476965905,-0.14129910674244164,0.056685179296135896
1783244190731388700,0.518388671875,-0.3244733616620302,-0.18103841193467377,0.08822393463701009
1783244190741400800,0.52840087890625,-0.19256839846968649,-0.19238427407443523,0.04876227734237909
1783244190751411700,0.53841162109375,-0.028002105647325515,-0.18401947357207535,0.023210049065202472
1783244190761422600,0.548422607421875,0.09934417132735252,-0.18931027345657347,-0.03611921499893069
1783244190771434800,0.558434814453125,0.16380407627820967,-0.20383388884961604,-0.07876352091766893
1783244190781445600,0.568445556640625,0.1253477966338396,-0.19715309591144323,-0.02228913482800126
1783244190791456800,0.578456787109375,0.061275429695844645,-0.14033523014634847,0.052973392231389874
1783244190801467600,0.588467529296875,0.0011795651733875275,-0.11428455082774161,0.06648826897330581
1783244190811479600,0.5984794921875,-0.0632774171680212,-0.08401420798748731,0.03886464124955237
1783244190821490700,0.60849072265625,-0.04600245724022388,-0.06560936724692583,-0.010518325274437666
1783244190831501800,0.618501708984375,-0.037491234004497526,-0.03305266703516245,-0.053238619038835165
1783244190841512700,0.6285126953125,-0.029602526581287383,-0.03431961823105812,-0.07049363215714692
1783244190851524600,0.638524658203125,0.0005085340440273285,-0.06660451576411723,-0.041300563159584996
1783244190861535700,0.64853564453125,0.06483867513537407,-0.07228402270525694,-0.015888254809752107
1783244190871546600,0.658546630859375,0.1081026473224163,-0.05746200888752937,-0.024211481192708013
1783244190881557800,0.668557861328125,0.0679915862083435,-0.037037352757155896,-0.030329744877293705
1783244190891569700,0.678569580078125,-0.015218611919879912,-0.02648351777791977,-0.011030512580275535
1783244190901580500,0.68858056640625,-0.09181903651952743,-0.024165303963422775,0.03170359051376581
1783244190911591700,0.698591796875,-0.16103344252109528,0.01157791732996702,0.10862250647805631
1783244190921603600,0.708603515625,-0.13778057722747325,0.08061959711313248,0.11079648951627313
1783244190931614700,0.71861474609375,-0.1316775841772556,0.1086433300703764,0.07512406843677162
1783244190941625600,0.72862548828125,-0.07166998246014118,0.08773878146857023,-0.019637085949257015
1783244190951636700,0.73863671875,-0.02842763758301735,0.07023410443812608,-0.08472812841050327
1783244190961648600,0.748648681640625,-0.004330722680687904,0.016915478965640066,-0.1547735053434968
1783244190971659800,0.75865966796875,0.0023246435552835465,-0.0020984335839748383,-0.18087153093516825
1783244190981670700,0.768670654296875,0.007032382854819297,-0.0007312368839979171,-0.1341015964537859
1783244190991681500,0.778681640625,0.0017746084570884704,0.006135726276040077,-0.10730557866059243
1783244191001693700,0.788693603515625,-0.008866028022766113,-0.00007072714865207672,-0.01996317609846592
1783244191011704600,0.79870458984375,0.0025309797823429105,0.02730857042521238,0.020476751643791792
1783244191021715700,0.8087158203125,0.019002222111821173,0.02842968340963125,-0.02219159273765981
1783244191031727900,0.818727783203125,-0.031200609427690505,0.007929039433598517,-0.05643924171105027
1783244191041738800,0.82873876953125,-0.06113631348609924,-0.03491290794909,-0.08115560368597508
1783244191051749600,0.83874951171875,-0.03118599638044834,-0.021214052942395208,-0.07181443243212997
1783244191061760800,0.8487607421875,-0.0309872589379549,0.02173544646799564,-0.044902898500487204
1783244191071772700,0.858772705078125,-0.13354863874614237,0.07712737108319997,-0.008065744490548967
1783244191081783800,0.86878369140625,-0.21570260581970213,0.16850538583695887,0.036273382647335525
1783244191091794700,0.878794677734375,-0.24472470216453074,0.16270692869126796,0.06752922939360141
1783244191101805600,0.8888056640625,-0.18588672874867915,0.08897709109187125,0.05179609208032489
1783244191111817500,0.8988173828125,-0.059628247010707854,0.030138240893185137,0.032200141859054565
1783244191121828900,0.908828857421875,0.11170914738178253,0.016535247476398944,0.03231193167045712
1783244191131839700,0.91883984375,0.2477332363307476,-0.01331774673461914,0.010461261324957012
1783244191141850600,0.9288505859375,0.3498404426306486,-0.02348053656965494,-0.049098304363712666
1783244191151862500,0.938862548828125,0.40890053436458107,-0.04176993423700332,-0.08873604887761175
1783244191161873700,0.948873779296875,0.3983212726831436,-0.04399433228820562,-0.09767411922328173
1783244191171884800,0.958884765625,0.28670740236937997,-0.050671325834095476,-0.045516208093240855
1783244191181896700,0.968896728515625,0.11054302621185778,-0.041465398332476616,0.02392528466247022
1783244191191907600,0.978907470703125,-0.01639817709326744,0.018002981941401958,0.009516235559806227
1783244191201918700,0.988918701171875,-0.18733458946943282,0.0073357497155666345,0.0019369594119489192
1783244191211929900,0.998929931640625,-0.3420072647869587,-0.027837854996323585,-0.02580452253781259
1783244191221941800,1.008941650390625,-0.44717561222314833,-0.03521042959094047,-0.03595357610844076
1783244191231952600,1.01895263671875,-0.5343114593625068,-0.038818975476920606,-0.019676175850629807
1783244191241963500,1.028963623046875,-0.5197656321376561,-0.021348492977023122,-0.003019713147357106
1783244191251974700,1.038974609375,-0.36861294763982294,0.0025619594424962995,-0.010547624434158206
1783244191261986800,1.04898681640625,-0.19892858115136622,-0.013396949450671672,-0.07448745103366673
1783244191271997700,1.058997802734375,-0.08963643178343772,-0.03305266703516245,-0.12534626226387918
1783244191282008600,1.069008544921875,0.021753566646575927,-0.04235884004086256,-0.12900076618343592
1783244191292019700,1.079019775390625,0.13897007927298546,-0.010800795477628708,-0.1183126373000443
1783244191302032000,1.089031982421875,0.15028233140408992,-0.0036751813814044,-0.06737009330913424
1783244191312042800,1.099042724609375,0.1600204660862684,-0.03260726135522127,-0.042231633464619514
1783244191322053600,1.1090537109375,0.1266454352289438,-0.03599018179178238,-0.008111118002235889
1783244191332065500,1.1190654296875,0.07833236295878887,-0.032715982426702976,0.023375103433802724
1783244191342076700,1.12907666015625,0.05992284604310989,-0.004608078317344188,0.011958806406334042
1783244191352087800,1.139087890625,0.013046528577804565,0.01644610788822174,-0.016191694735735652
1783244191362098700,1.1490986328125,0.015192892956733702,0.003968026848137378,-0.030508973901718854
1783244191372110600,1.159110595703125,-0.0167746091902256,-0.012461714427173138,-0.01633775214292109
1783244191382121700,1.169121826171875,-0.06221475637257099,-0.018525544510781766,0.03337159679122269
1783244191392132900,1.1791328125,-0.04574351404309272,-0.00022796353697776794,0.055661973728239535
1783244191402143700,1.189143798828125,-0.044160044243931766,-0.00042173254340887066,0.06427095825001597
1783244191412155600,1.19915576171875,-0.0002437456279993057,-0.014181085565686225,0.0749854636836797
1783244191422166500,1.20916650390625,0.08108136940598487,-0.017462591454386712,0.05724186333082616
1783244191432177700,1.219177734375,0.14816227051019668,-0.014442366850376129,-0.021457798570394513
1783244191442188800,1.229188720703125,0.15377601873874663,-0.03047258741408586,-0.05602788443118333
1783244191452200700,1.23920068359375,0.1049351232022047,-0.04541881213337183,-0.02266571305543184
1783244191462211600,1.249211669921875,0.05808686278760433,-0.017648469415307046,-0.006993731344863772
1783244191472222500,1.259222412109375,-0.022637363743782044,-0.012440379378199577,0.0012844868525862692
1783244191482234600,1.269234619140625,-0.16105565435290337,-0.02293985382169485,-0.000129252402856946
1783244191492245800,1.279245849609375,-0.3125602210283279,-0.028416531667113304,0.03396569022685289
1783244191502256600,1.289256591796875,-0.3746130648374557,0.01535071386694908,0.05172982191108167
1783244191512267500,1.299267578125,-0.38117373852729797,0.042021278649568554,0.020603812089562416
1783244191522279700,1.30927978515625,-0.3352139513850212,0.04513327319025993,-0.07767791763804853
1783244191532290800,1.319290771484375,-0.24087153386771679,0.030528116993606087,-0.13239793434105812
1783244191542301700,1.3293017578125,-0.096648356372118,0.02776128262877464,-0.1498393368769437
1783244191552312600,1.3393125,0.06758709706068039,0.002236088488996029,-0.1669203816678375
1783244191562324700,1.34932470703125,0.17189619731903075,0.0011976853519678114,-0.14335399344563482
1783244191572335600,1.359335693359375,0.20482348440885542,0.03495762387365103,-0.09765672969706356
1783244191582346800,1.3693466796875,0.20230477958619594,0.05476181001812219,-0.09170593153387308
1783244191592357600,1.379357666015625,0.13255202892422677,0.07010492510050535,-0.0664982789106667
1783244191602369800,1.389369873046875,0.037761867639422415,0.04827303252071142,-0.014823913513869046
1783244191612380700,1.399380615234375,-0.01589139661490917,0.0379521295145154,0.015842004515230653
1783244191622391800,1.409391845703125,-0.028013796085119246,0.02499240243732929,-0.00031958734318614
1783244191632403700,1.41940380859375,-0.05753975029885768,-0.0029120880544185636,-0.01739931695982814
1783244191642414800,1.429414794921875,-0.10647416933774947,-0.03636924423724413,0.03004245236851275
1783244191652425700,1.43942578125,-0.1480389363914728,-0.04792758008390665,0.064433163074404
1783244191662436600,1.4494365234375,-0.16828092943131923,-0.025716040536761284,0.05816993796117603
1783244191672448500,1.459448486328125,-0.15708791976571082,-0.03972235405743122,0.0472967348344624
1783244191682460000,1.4694599609375,-0.14050737184286116,-0.06897007585167884,0.04090418425314128
1783244191692470800,1.479470703125,-0.10429507173299789,-0.046726387600600716,0.02668262054659426
1783244191702481700,1.489481689453125,-0.07691372833251953,-0.017808336152136325,0.018216624692082403
1783244191712493600,1.49949365234375,-0.027287819898128507,0.01231733752042055,-0.007251213237270712
1783244191722504700,1.509504638671875,-0.005327917024493217,0.014215864618122577,0.029511195036023855
1783244191732515800,1.519515869140625,-0.0073988780796527855,0.008526420804858208,0.03811104640327394
1783244191742526700,1.529526611328125,0.0474959106683731,0.02887538135051727,0.01916691115424037
1783244191752538600,1.53953857421875,0.07890987058579921,0.027521920914947984,-0.0186405491925776
1783244191762549800,1.5495498046875,0.1369201610058546,0.008678981018066407,-0.045457755904272194
1783244191772561000,1.559560791015625,0.21355682596266268,-0.0016273089408874511,-0.05562551417537033
1783244191782572800,1.56957275390625,0.2702472659558058,-0.005459434449672698,-0.06302417305931449
1783244191792583700,1.579583740234375,0.2756166840344667,0.0036000703185796734,-0.06371843893378973
1783244191802594600,1.589594482421875,0.24311025270521638,0.01704787317365408,-0.06973484967909753
1783244191812605700,1.599605712890625,0.1144207444280386,-0.004988894328474998,-0.059419061239436265
1783244191822617900,1.609617919921875,-0.013095628416538238,-0.009479483745992183,-0.003964373586326837
1783244191832628700,1.619628662109375,-0.11184826359152793,-0.030992227374017238,0.041656317794695495
1783244191842639600,1.6296396484375,-0.2307838550955057,-0.006780746181309223,0.07445807880870997
1783244191852650800,1.639650634765625,-0.2939315084040165,0.022577450250089167,0.03848126795515418
1783244191862663000,1.649662841796875,-0.3090840693503618,0.02953939821720123,-0.0373492682505399
1783244191872673800,1.659673828125,-0.2896235820770264,-0.01158756194114685,-0.0779518392086029
1783244191882684700,1.6696845703125,-0.234666249486804,-0.026253216153383253,-0.031400662044435736
1783244191892695600,1.679695556640625,-0.1654109269529581,0.01516425138413906,-0.015427359299734234
1783244191902707700,1.689707763671875,-0.0954109235316515,0.023877719193696974,-0.11785714861750601
1783244191912718800,1.69971875,-0.008844985234737396,0.022685294538736342,-0.23277459052130578
1783244191922729700,1.709729736328125,0.04835983402132988,0.0359957347497344,-0.24354754814393817
1783244191932741600,1.71974169921875,0.0077729720890522,0.04317863199114799,-0.18088439041674137
1783244191942752800,1.729752685546875,-0.01231996786892414,0.06175678347200155,-0.10267382720671593
1783244191952764000,1.739763916015625,-0.053903439623117444,0.07737287027686834,-0.06679324326924979
1783244191962774800,1.74977490234375,-0.08458791622221469,0.09414894077181815,-0.08001746650151909
1783244191972786700,1.75978662109375,-0.0686848291695118,0.05958879178315401,-0.1133216971449554
1783244191982797600,1.769797607421875,-0.042075639185309405,0.0581643119379878,-0.11225384871773421
1783244191992808700,1.77980859375,-0.0005529577076435089,0.03893909472525119,-0.1086305436540395
1783244192002819800,1.78981982421875,-0.0037029461711645126,0.014442366850376129,-0.08643617443740367
1783244192012831700,1.799831787109375,-0.00035363574326038356,0.030065175656974315,-0.04333089994341135
1783244192022842600,1.809842529296875,0.023065233767032622,0.025034488013386726,0.021020210870727897
1783244192032853800,1.819853759765625,0.01607785909771919,0.01178016190379858,0.050323023853078484
1783244192042865000,1.829864990234375,0.01282499478161335,0.028461832113564012,0.059374783706292504
1783244192052876800,1.839876708984375,0.03602233049571514,0.03558949203640222,0.03956584832146764
1783244192062887700,1.8498876953125,0.025810148561000824,0.027640578858554362,0.006491480911150574
1783244192072898600,1.859898681640625,-0.004940963533520699,-0.001282148765027523,-0.010764189794287084
1783244192082910700,1.86991064453125,-0.028369185394048688,-0.029223756396770474,-0.01331869658268988
1783244192092921900,1.879921875,-0.06422375810742378,-0.008260171084105967,0.007186477437987923
1783244192102932700,1.8899326171875,-0.069747489964962,0.02067979993522167,0.015273849238455295
1783244192112943600,1.899943603515625,-0.030019875210523603,0.03542699495106935,0.014315014143660664
1783244192122955800,1.909955810546875,-0.0052425768285989756,0.0493868389815092,-0.00070486033372581
1783244192132966700,1.919966552734375,-0.006554828470945358,0.060066930688917636,-0.022329832164570688
1783244192142977800,1.929977783203125,-0.016571195572614668,0.0654234892860055,-0.06296725524030626
1783244192152988700,1.93998876953125,-0.014650456643104553,0.07039864735007285,-0.07385952839367091
1783244192163000800,1.950000732421875,-0.05164660060703754,0.07892039197981357,-0.07747428482472896
1783244192173011700,1.96001171875,-0.07319616911411285,0.059502282543480396,-0.028765783496201038
1783244192183022800,1.97002294921875,-0.0464940401494503,0.04741290856003761,-0.038017449835687875
1783244192193033700,1.98003369140625,-0.05118365927040577,0.03351297802329063,-0.0564805966347456
1783244192203045600,1.990045654296875,-0.057929041877388954,0.0007324059277772903,-0.012143880649656057
1783244192213056800,2.000056884765625,-0.07279810970723628,0.009632920742034912,-0.00630998686440289
1783244192223067600,2.010067626953125,-0.017380758389830588,0.002765080799162388,-0.03346139396652579
1783244192233079600,2.02007958984375,0.005070142871141433,-0.06128244395852089,-0.06435637151114643
1783244192243090700,2.030090576171875,0.0053045361489057535,-0.03240647808611393,-0.06216967512182891
1783244192253101800,2.040101806640625,-0.05504208826422691,0.04895166243463754,-0.020624270355701444
1783244192263112700,2.05011279296875,-0.06874912657737732,0.05743307505398988,-0.016504487011954186
1783244192273124600,2.06012451171875,-0.04648351875543594,-0.02347323004603386,-0.08618081143684685
1783244192283135700,2.0701357421875,-0.05994271978735923,-0.10537526818513869,-0.15515183713659644
1783244192293146600,2.080146728515625,-0.05106617037057876,-0.09914981779903173,-0.17418671940900385
1783244192303157800,2.09015771484375,0.00850362445116043,-0.07810323037803173,-0.10705459957420825
1783244192313169700,2.100169677734375,0.042670097947120664,-0.060840253148972984,-0.010402736070752143
1783244192323180800,2.110180908203125,0.06321078167259693,-0.061791854785382745,0.045636181211099025
1783244192333191700,2.120191650390625,0.03168926972746849,-0.05471446374505758,0.04604052422828972
1783244192343202800,2.130202880859375,-0.058656187108159064,-0.05838000051528215,0.0492612398404628
1783244192353214700,2.140214599609375,-0.10310732325315475,-0.06185176827907562,0.05344758561439812
1783244192363225600,2.1502255859375,-0.122180272513628,-0.054829322296380996,0.00014255027584731577
1783244192373236700,2.16023681640625,-0.15906944897174835,-0.05877572183459997,-0.04576017291694879
1783244192383249000,2.170248779296875,-0.1815717881590128,-0.047718028986454004,-0.03497442887797952
1783244192393259800,2.180259765625,-0.1507014335989952,-0.01624094070494175,0.016464666458219288
1783244192403270700,2.190270751953125,-0.06719663643836975,-0.00034808278530836103,0.05907265895456075
1783244192413281800,2.20028173828125,0.011388239976763725,-0.008297872745990753,0.04877791330292821
1783244192423294000,2.2102939453125,0.09477554823756218,-0.026157354563474653,-0.016153700812906027
1783244192433304800,2.220304931640625,0.15321253963708878,-0.05709522140175104,-0.08407024902366102
1783244192443315700,2.230315673828125,0.17181202616691588,-0.06113076052814722,-0.0700121322505176
1783244192453326600,2.24032666015625,0.18691957892775535,-0.047211248508095736,-0.056912119919806714
1783244192463338500,2.25033837890625,0.12905074280500411,-0.04813888474702835,-0.04678323235437274
1783244192473350000,2.260349853515625,0.03739537241458893,-0.03824000654518604,-0.020309359187632797
1783244192483360800,2.27036083984375,-0.10869710608422756,-0.02363397356569767,0.030880072236433624
1783244192493371600,2.28037158203125,-0.22869360481798648,0.008686872063577175,0.05291019080206751
1783244192503383600,2.290383544921875,-0.25838848585784435,0.011199147145450115,0.06658756462931632
1783244192513395000,2.30039501953125,-0.25011867016255857,0.018947277054190633,0.043900370394438504
1783244192523405800,2.31040576171875,-0.198550395488739,0.07609832029640674,-0.03396057566031813
1783244192533417700,2.320417724609375,-0.14316694644093514,0.08736497972011566,-0.09066723613590001
1783244192543428600,2.3304287109375,-0.03297287979722023,0.08016776169240475,-0.1403415137566626
1783244192553439700,2.340439697265625,0.05087210910320282,0.046645431318879126,-0.18727263014912604
1783244192563451000,2.350450927734375,0.028280922588706014,0.04510989231467247,-0.1972994455795735
1783244192573463000,2.360463134765625,-0.05672901843786239,0.0449602547109127,-0.08630728736072778
1783244192583474000,2.370473876953125,-0.10312485890984535,0.06722732383757829,-0.021336071886867283
1783244192593484800,2.38048486328125,-0.14558862062990666,0.06824936036169528,-0.016436974733695386
1783244192603496200,2.39049609375,-0.1154489184319973,0.054931029105186456,-0.02540975106656551
1783244192613508000,2.400508056640625,-0.09002280075252056,0.07306114455759524,-0.0739512252651155
1783244192623519000,2.41051904296875,-0.0548901125729084,0.0916264365568757,-0.07524594125077128
1783244192633529900,2.42052978515625,0.01663432393670082,0.07654547954201697,-0.06382642935290932
1783244192643542000,2.4305419921875,0.08535831607282161,0.029746903488039968,-0.0681150664575398
1783244192653553000,2.440552978515625,0.18210837925374507,0.002523088736832142,-0.05340323501601815
1783244192663564000,2.45056396484375,0.1946072108209133,0.008277999001741409,-0.014018515415117144
1783244192673575000,2.460574951171875,0.15569968027770517,0.0068348144561052315,0.03594013210497796
1783244192683587000,2.470587158203125,0.08348901506960392,-0.015109014065563678,0.05424662703759968
1783244192693598000,2.480597900390625,0.018843232157826423,-0.02481675360947847,0.07975793878249823
1783244192703609000,2.490609130859375,-0.037490064960718154,-0.01473725814372301,0.10263028032593428
1783244192713620000,2.500619873046875,-0.08128712111115455,-0.023530513191223144,0.06221921335197985
1783244192723631900,2.5106318359375,-0.09833996272087096,-0.03888590323328971,0.025157895197346805
1783244192733643000,2.52064306640625,-0.12246551919579506,-0.05103372940570116,-0.013838409607857465
1783244192743654000,2.53065380859375,-0.1384235513061285,-0.037621874646842475,-0.035220658724009986
1783244192753665000,2.5406650390625,-0.13130232112407683,-0.019472762233018873,-0.05686616188623011
1783244192763677000,2.550677001953125,-0.09854279181659222,-0.0025841712743043897,-0.04514613267183304
1783244192773688000,2.56068798828125,-0.048310149660706514,0.01102379057854414,-0.05315459401719272
1783244192783699000,2.570698974609375,-0.005257774397730827,0.009284545695781707,-0.07814845775924623
1783244192793710800,2.5807109375,-0.006117606097459793,-0.018142974933981895,-0.050129839368537064
1783244192803722000,2.590721923828125,-0.013655600386857985,0.0018041268125176429,-0.01867956602871418
1783244192813732900,2.60073291015625,-0.06354220558404922,0.020580138953030108,0.011934841008856893
1783244192823744000,2.610743896484375,-0.06277531286478043,0.014836919125914573,0.029313626637309787
1783244192833756000,2.620755859375,-0.029617724150419234,0.005579261437058449,-0.005146349912509322
1783244192843767000,2.63076708984375,-0.024295067822933194,0.011306406912207603,-0.07729111027754842
1783244192853778000,2.64077783203125,-0.01929389853477478,0.013975041599571704,-0.101885745568946
1783244192863789000,2.6507890625,0.024319033220410347,0.03104045042991638,-0.07192592998258769
1783244192873801000,2.660801025390625,0.021876316243410108,0.044639352193474764,-0.08593648128695786
1783244192883811800,2.670811767578125,-0.03553016306459904,0.05067921687960624,-0.09249839708581566
1783244192893823000,2.680822998046875,-0.08889818063676357,0.03823620715290308,-0.050775955252349375
1783244192903833900,2.690833740234375,-0.14838555787205696,0.06202011058330536,-0.03771693251915276
1783244192913846000,2.700845947265625,-0.1647661993086338,0.08474778295904398,-0.00674764762930572
1783244192923857000,2.71085693359375,-0.1656289536178112,0.07061375140547752,-0.007549392466247081
1783244192933868000,2.720867919921875,-0.11516308722794055,0.06139993285834789,-0.03678133216947317
1783244192943880200,2.730880126953125,-0.07058218722343444,0.058012043985724446,-0.12329371364824473
1783244192953891000,2.74089111328125,0.0022767127603292464,0.05174041637033224,-0.1943289784014225
1783244192963902000,2.75090185546875,0.040837037301063535,0.020882336769998074,-0.2013877378065139
1783244192973912800,2.760912841796875,0.028419454276561736,0.016953472888469694,-0.14097498935461045
1783244192983925000,2.770925048828125,0.009924597164988518,0.014221709837019442,-0.04212978052534163
1783244192993936100,2.78093603515625,-0.029411972445249557,0.023498364487290382,0.06745996354967355
1783244193003947000,2.790947021484375,-0.05226970094144344,0.038621407078206535,0.13256013916544615
1783244193013958000,2.8009580078125,-0.07223346156179905,0.06463672282248735,0.11221790062151848
1783244193023969800,2.8109697265625,-0.08672551277279854,0.04709580543488264,0.018546002776920794
1783244193033981200,2.820981201171875,-0.06385317122936249,0.012322013695538044,-0.04956066117845476
1783244193043992000,2.830991943359375,-0.021714403679966927,0.03296031257659197,-0.0751806209295988
1783244193054003000,2.8410029296875,-0.003199672824144363,0.05285977578908205,-0.0646863341178745
1783244193064014800,2.851014892578125,0.0037023616492748257,0.04685176754593849,-0.015296718657389283
1783244193074026000,2.86102587890625,0.048584290426969524,0.04418780903369188,0.009920870837941765
1783244193084037000,2.871037109375,0.12200082429349422,0.04517185163497925,0.022517171430215237
1783244193094049000,2.881049072265625,0.1460311037003994,0.017157471027970314,0.021945362891629336
1783244193104060000,2.891059814453125,0.15097849697470664,0.00005786766707897186,0.015806640940904615
1783244193114070800,2.90107080078125,0.15290858825445175,-0.00708674339056015,-0.0011199439406394957
1783244193124082200,2.911082275390625,0.06683364834487437,-0.0026458383336663244,-0.02557728965319693
1783244193134094000,2.921093994140625,-0.03472235381305218,0.0008162848189473151,-0.033033962334692475
1783244193144105000,2.93110498046875,-0.15120587598979474,0.008836217406392097,-0.034699484394118185
1783244193154115800,2.94111572265625,-0.19139935469031333,0.02970160304158926,-0.021215514247119427
1783244193164127000,2.951126953125,-0.20144553240835666,0.03604132745712995,-0.0012826602216809988
1783244193174139100,2.96113916015625,-0.21739713477790354,0.002409106968343258,-0.006563815494999289
1783244193184150000,2.97114990234375,-0.172608144980669,0.0007981646403670311,0.01656520422324538
1783244193194161000,2.981160888671875,-0.11941314588785171,-0.013020225092768668,-0.033084158151969315
1783244193204173000,2.991173095703125,-0.04658639460802078,-0.004579144483804702,-0.08681618673093616
1783244193214184000,3.001183837890625,-0.021613865914940834,0.004189560644328594,-0.1222997341748327
1783244193224195000,3.011195068359375,-0.0678133070319891,0.031823125240206716,-0.1271219666995108
1783244193234206000,3.0212060546875,-0.17213468225002287,0.04814999066293239,-0.06768127815015614
1783244193244217900,3.0312177734375,-0.19295710552632808,0.07253039868175983,-0.052938393983244895
1783244193254229000,3.04122900390625,-0.2085802065938711,0.07207271804213523,-0.06083141225539147
1783244193264240000,3.051240234375,-0.129595517206192,0.08355944995731115,-0.08568966691903769
1783244193274251000,3.0612509765625,-0.032924949002265926,0.06383738913834094,-0.11604147749766706
1783244193284263000,3.071262939453125,0.09061433690488338,0.06669803926646709,-0.1074734095081687
1783244193294274000,3.081274169921875,0.18236673792898653,0.046832186062633986,-0.08788279304914176
1783244193304285000,3.091284912109375,0.25056173775494095,0.013735679885745047,-0.038960210578516126
1783244193314297000,3.101297119140625,0.2907353427112102,-0.008083937734365464,-0.005208528428524733
1783244193324308000,3.111307861328125,0.21458149283528327,-0.02637713479399681,0.028457667395099997
1783244193334318800,3.12131884765625,0.10435761557519435,-0.03193856831341982,0.07305449562110006
1783244193344330000,3.131330078125,0.0037982232391834255,-0.06339782867729664,0.09670322836451233
1783244193354342000,3.141341796875,-0.0852589473515749,-0.06505144110321998,0.09986899891905486
1783244193364353000,3.15135302734375,-0.16233809537887572,-0.0675932345405221,0.08536306531317532
1783244193374364000,3.161364013671875,-0.19267068980038166,-0.05346913985908031,0.06906995602957904
1783244193384374800,3.171374755859375,-0.16795009004175662,-0.034171734192967415,0.0668385437157005
1783244193394387000,3.181386962890625,-0.12927052303552627,-0.03091886987686157,0.038202085687592625
1783244193404398000,3.191398193359375,-0.07398585818707942,-0.04347410780638456,0.004423807791620492
1783244193414409000,3.201408935546875,-0.01930558897256851,-0.04027706533074379,-0.031639073910191655
1783244193424419800,3.211419921875,-0.0008177461236715316,-0.04840104281455278,-0.017587094616889953
1783244193434432000,3.221431884765625,0.017837854507565497,-0.062035892674326895,-0.02457892626561224
1783244193444443000,3.23144287109375,-0.028856676650047302,-0.03468611345589161,-0.028528540674224494
1783244193454454000,3.2414541015625,-0.042162148424983024,0.0037868250623345374,-0.019680925090983507
1783244193464466000,3.2514658203125,-0.037385435542464256,0.010551204630732535,-0.0338435982171446
1783244193474477000,3.26147705078125,-0.03235504015982151,0.02384294014126062,-0.06592025982700288
1783244193484488000,3.271488037109375,-0.0615782120347023,0.009619184477627277,-0.07774952156953513
1783244193494499000,3.2814990234375,-0.11672843684852123,0.03570025893449783,-0.05891980648040771
1783244193504511000,3.291510986328125,-0.11189853247404098,0.06201689571291208,-0.05397387451082468
1783244193514522000,3.301522216796875,-0.07288578799068927,0.038166064526140686,-0.061021308804303405
1783244193524533000,3.311532958984375,-0.043480829808115955,0.017296002715826035,-0.056630745695158836
1783244193534544000,3.3215439453125,-0.018107319098711012,-0.0007514028891921043,-0.04195376637130976
1783244193544555800,3.3315556640625,0.00663315440416336,0.029521862560510634,-0.030168124574795365
1783244193554567000,3.34156689453125,0.029569208833575247,0.04775368482172489,-0.02132511210143566
1783244193564578000,3.351578125,0.0415051458209753,0.03178513131737709,-0.06519494122713804
1783244193574589200,3.361589111328125,0.03345686392188072,0.01435118143558502,-0.10417889800742268
1783244193584601000,3.37160107421875,0.00998246483206749,0.02691957110762596,-0.08509710785336792
1783244193594612200,3.3816123046875,-0.044158875200152395,0.05426993484795093,-0.07681940111257135
1783244193604623000,3.391623046875,-0.09838438638448714,0.04502893603295088,-0.05565357122607529
1783244193614635300,3.40163525390625,-0.12698738053441047,0.06461217290312052,-0.04089000959731638
1783244193624646100,3.411646240234375,-0.12853460997641086,0.0524631776869297,-0.09629347851984202
1783244193634657000,3.421656982421875,-0.11771686336398124,-0.004573007003962994,-0.13857654991075397
1783244193644668200,3.431668212890625,-0.11739070014953612,-0.026521511700749397,-0.10654285065978765
1783244193654680300,3.441680419921875,-0.0825093563824892,-0.0025309797823429105,-0.06491407845914364
1783244193664691200,3.451691162109375,-0.05385843143761158,0.03037731034606695,-0.008094020736962556
1783244193674702000,3.4617021484375,-0.012600538375973701,0.025955986772477624,-0.00864917040169239
1783244193684713200,3.471713134765625,0.03982639895379543,0.00220510882884264,-0.019538667076081036
1783244193694725400,3.481725341796875,0.044809448063373565,-0.0431719099894166,-0.02275865203589201
1783244193704736300,3.491736328125,0.027319384080171583,-0.03736322371065617,-0.038039077145606275
1783244193714747100,3.5017470703125,-0.06001753858923912,-0.02550473587363958,-0.040637350010499354
1783244193724759000,3.511759033203125,-0.12150982590615748,-0.0041167876690626146,0.07335048289299011
1783244193734770200,3.521770263671875,-0.13794482787847517,0.02269201654046774,0.15203597013838588
1783244193744781300,3.53178125,-0.10763444528877734,0.05551496647298336,0.17467472212165594
1783244193754792200,3.541792236328125,-0.02446165656149387,0.04671528168469667,0.1256522594731301
1783244193764804000,3.55180419921875,0.07522621363699436,-0.018296704190969466,0.054222223248705265
1783244193774815000,3.56181494140625,0.1914700818389654,-0.07417728910595178,0.01678790706321597
1783244193784826400,3.571826416015625,0.2656225287646055,-0.08379968845397233,0.017199410473555325
1783244193794837200,3.581837158203125,0.276690450745821,-0.07554916198104619,0.021940613651275632
1783244193804849200,3.59184912109375,0.2198819373309612,-0.07938742496967315,0.022798618720099327
1783244193814860000,3.601860107421875,0.09120879566669464,-0.08557400465011596,0.06238624048195779
1783244193824871400,3.611871337890625,-0.018644494715332985,-0.04411123666614294,0.09275624430440366
1783244193834882300,3.62188232421875,-0.15750059221982954,-0.0046498716324567795,0.16193470220975578
1783244193844894200,3.631894287109375,-0.32123861752450467,-0.01912964788377285,0.16996325649507343
1783244193854905000,3.641905029296875,-0.3675584701508283,0.009901508550345897,0.09745711547173559
1783244193864916000,3.651916015625,-0.40313656401038167,0.00938245311230421,-0.03301123904623091
1783244193874928000,3.66192822265625,-0.3290378930985927,-0.0011702128231525421,-0.1251613341510296
1783244193884939300,3.671939208984375,-0.2519201666265726,-0.005419979222118854,-0.16780578620024025
1783244193894950100,3.6819501953125,-0.16017536438703536,0.023393735069036484,-0.15093385411538182
1783244193904961000,3.6919609375,-0.08980477408766746,0.06675707597732544,-0.12685944330580531
1783244193914973200,3.70197314453125,0.003207271608710289,0.06390899306982756,-0.14265943531021474
1783244193924984300,3.711984375,0.05328969163894653,0.04390899209231138,-0.1373879977133125
1783244193934995200,3.7219951171875,0.08628595231175422,0.047402387166023255,-0.11082491189315914
1783244193945006000,3.732006103515625,0.09404489587545395,0.08069821530729532,-0.06928674058541655
1783244193955018200,3.742018310546875,0.10887304717302322,0.11987199557125568,-0.048636897397041315
1783244193965029000,3.752029052734375,0.10986030464470385,0.09381196390241384,-0.05304411938004196
1783244193975040300,3.762040283203125,0.10200549949109554,0.04498480463027954,-0.015181275584176182
1783244193985052200,3.77205224609375,0.05874737252295017,0.033812545491755004,-0.028311829183623193
1783244193995063000,3.78206298828125,0.049335401055216783,0.015379355439543723,-0.04847834583446383
1783244194005074200,3.79207421875,0.04611585448682308,0.01768003359735012,-0.044514629835262894
1783244194015085300,3.802085205078125,0.01894143183529377,0.022197511021792887,-0.025307240540161726
1783244194025097200,3.81209716796875,0.0021826047360897064,0.028548341353237628,0.0004608955100178718
1783244194035108000,3.822108154296875,-0.016778700843453405,-0.017668927681446074,0.006084288349747657
1783244194045119200,3.832119140625,-0.02879004115462303,-0.0437970561504364,0.0062338528882712125
1783244194055130400,3.84213037109375,-0.055877954566478726,-0.00980856956988573,0.023112799235805868
1783244194065142300,3.852142333984375,-0.07661562216877937,0.010149053570628166,-0.0023601532600820065
1783244194075153200,3.862153076171875,-0.05193944607377052,0.0053182724133133885,-0.07666830220408737
1783244194085164000,3.8721640625,-0.06104746615886688,-0.0038102059379220006,-0.106630309747532
1783244194095175200,3.882175048828125,-0.09531213933229446,-0.015129180070757866,-0.1424369516659528
1783244194105187000,3.89218701171875,-0.1823819354981184,0.013910451930761337,-0.10547478303685784
1783244194115198200,3.9021982421875,-0.22588965331315994,0.01816927841901779,-0.05942373741455376
1783244194125209000,3.912208984375,-0.2288327210277319,-0.002830547250807285,-0.06658456895463168
1783244194135221200,3.92222119140625,-0.17740765421688556,0.011385609628260135,-0.051307504845783114
1783244194145232100,3.932232177734375,-0.10203472558557987,0.04265519263893366,-0.025330256089568137
1783244194155243300,3.9422431640625,-0.015528993043303489,0.06032850423455238,-0.03265029677934944
1783244194165254100,3.952254150390625,0.06071779581308365,0.04201631021350622,-0.06794460526145994
1783244194175266300,3.962266357421875,0.08349135315716266,0.0060553545162081715,-0.10641067564748227
1783244194185277200,3.972277099609375,0.09003273762464523,-0.018078385265171526,-0.08215067913793027
1783244194195288000,3.9822880859375,0.09635317281782627,-0.0038809330865740774,-0.03876344589740038
1783244194205299200,3.99229931640625,0.05983925941288471,-0.00997632735222578,0.005688347834721207
1783244194215311400,4.002311279296875,0.025222704061865806,-0.005812485671043395,0.03057086015678942
1783244194225322200,4.012322265625,-0.028600656062364577,-0.005064589913189411,0.046210547032952305
1783244194235333000,4.0223330078125,-0.07032149046063423,-0.011661796221137046,0.056221580372378226
1783244194245345000,4.032344970703125,-0.10979133106172084,0.005670739112794399,0.04300312929376959
1783244194255356200,4.042356201171875,-0.13346154498457907,0.006117021575570106,0.054999564296752214
1783244194265367300,4.0523671875,-0.10829027884900569,0.02287146476060152,0.052470703406259415
1783244194275378200,4.062378173828125,-0.08244973514974117,0.034761516779661175,0.04052585246004164
1783244194285390000,4.07239013671875,-0.046477673536539074,0.03765139300227165,-0.004544584627076983
1783244194295401200,4.082401123046875,0.016393500918149947,0.005880874732136726,-0.037990781024470927
1783244194305412400,4.092412353515625,0.02485737788081169,-0.0031380057647824285,-0.06348221902512013
1783244194315423200,4.10242333984375,0.026311083820462225,0.00433569111675024,-0.08930646917670965
1783244194325435100,4.11243505859375,0.010929974815249443,0.004538812473416328,-0.06864004017971456
1783244194335446000,4.122446044921875,-0.03294599179029464,0.0345665787294507,0.0012166823133826256
1783244194345457200,4.13245703125,-0.034760347735881804,0.04232523003220558,0.054062721838057035
1783244194355468300,4.14246826171875,-0.056826049071550366,0.04363046741187572,0.0579097526550293
1783244194365480200,4.152480224609375,-0.08520049516260624,0.03501432249695063,0.03311922946535051
1783244194375491000,4.162490966796875,-0.08772153807282447,0.017620120103657246,-0.026411913846433162
1783244194385502200,4.172502197265625,-0.0895329714089632,0.004529460123181343,-0.0385009955689311
1783244194395514400,4.182514404296875,-0.07499883462190628,0.023755846379697323,-0.013293123750016093
1783244194405525200,4.192525146484375,-0.031195933252573013,0.055605567365884775,-0.0008398118250072002
1783244194415536000,4.2025361328125,-0.014961422288417816,0.0819368171915412,0.01357420571371913
1783244194425547000,4.212547119140625,0.03882219034731388,0.07556523633301257,0.019443316942825913
1783244194435559200,4.22255908203125,0.07230418871045112,0.0782245186701417,-0.005009425659850239
1783244194445570300,4.2325703125,0.11018120716214179,0.0698299075514078,-0.041949163261428474
1783244194455581200,4.242581298828125,0.1453296774327755,-0.0037038229539990424,-0.03154021664559841
1783244194465592000,4.252592041015625,0.1553372767060995,-0.041996728730201716,-0.026159327324852346
1783244194475604200,4.262604248046875,0.16254560064971446,-0.033626667530834674,-0.016119140956178307
1783244194485615400,4.272615478515625,0.10382920778691768,-0.013588964891433715,-0.004940305946394801
1783244194495626200,4.282626220703125,-0.012432780593633652,-0.011633739170432091,-0.028231019032374023
1783244194505638100,4.29263818359375,-0.11200900711119174,-0.0061240358382463455,-0.028057123770192264
1783244194515649000,4.30264892578125,-0.22606676344573495,0.007438041046261787,-0.011989639936015008
1783244194525660200,4.31266015625,-0.28037878386974335,0.03732464526593685,-0.041038478157296776
1783244194535671300,4.32267138671875,-0.27826515271663665,0.040678047347068785,-0.06387209512554108
1783244194545683200,4.33268310546875,-0.24606734894514082,0.043107028059661386,-0.0928618966359645
1783244194555694000,4.342694091796875,-0.1589542981594801,0.032195173422992225,-0.14097659678980706
1783244194565705200,4.352705322265625,-0.06639350336194039,0.038682489615678786,-0.17972915596701203
1783244194575715800,4.3627158203125,-0.023251696249842642,0.026689269483089445,-0.16938962132558225
1783244194585727700,4.372727783203125,-0.00857552064359188,0.01689794330894947,-0.12289506971947849
1783244194595739000,4.38273876953125,0.021276012262701986,-0.00371960504502058,-0.070626391691342
1783244194605749800,4.392749755859375,-0.023620529562234878,-0.00025455928295850755,-0.019916852738708257
1783244194615761700,4.40276171875,-0.06761983028650283,0.011648936739563942,0.024391586999967692
1783244194625772800,4.412772705078125,-0.05561959589123726,0.005820961238443851,0.02638071499057114
1783244194635784000,4.422783935546875,-0.06964402959048747,0.015968845765292644,0.0025430355463176963
1783244194645794800,4.432794921875,-0.05586334151923656,0.023660861572623253,-0.0029178602080792188
1783244194655806700,4.442806640625,-0.00540624295771122,0.024973113214969634,-0.03350041080266237
1783244194665817900,4.45281787109375,0.04134031064808368,-0.010246668726205825,-0.03736000884026289
1783244194675828700,4.462828857421875,0.06498714369535445,-0.057315001632273196,-0.01530979733467102
1783244194685840000,4.47283984375,0.0608896452486515,-0.0780260734885931,0.004550283715501428
1783244194695851800,4.482851806640625,0.03925999724268913,-0.05145604647099972,0.033715514858067036
1783244194705862700,4.492862548828125,-0.012954174119234085,-0.013470014686882494,0.057354383794590826
1783244194715873800,4.502873779296875,-0.07825871320068836,-0.026585516847670077,-0.013734730037674307
1783244194725885000,4.512885009765625,-0.10753975274264811,-0.03504121050387621,-0.003394757004827261
1783244194735896800,4.522896728515625,-0.12709960873723028,-0.009712415719032287,0.01838233664780855
1783244194745907700,4.53290771484375,-0.09678045831918716,-0.010305120915174484,0.041466932702437044
1783244194755918800,4.5429189453125,-0.05272855062484741,-0.04957417824715376,0.051361865381523965
1783244194765931000,4.552930908203125,-0.020419687694311142,-0.08904109623879193,0.03551861875727773
1783244194775942000,4.56294189453125,0.01582008494436741,-0.07045271562486886,0.016569880398362873
1783244194785952800,4.572952880859375,-0.019238368955254555,-0.06174187816381454,0.05703676921278238
1783244194795963600,4.582963623046875,-0.039219665232300756,0.006711480337381362,0.06588299655653536
1783244194805975800,4.592975830078125,-0.08851181166768074,0.015990180814266203,0.060191653047129506
1783244194815987000,4.602987060546875,-0.07149170328378678,-0.016328034466505048,0.0059423956610262394
1783244194825997800,4.612997802734375,-0.03995440924763679,-0.005585691177845001,-0.056538318171352145
1783244194836008700,4.6230087890625,-0.09862988557815551,0.004414601571857929,-0.031482275913283224
1783244194846020600,4.6330205078125,-0.047749008646607395,0.06623334436416625,-0.06223609142154455
1783244194856032000,4.643031982421875,-0.021972177833318708,0.06397767439186573,-0.07780585486665367
1783244194866043000,4.65304296875,0.02412321838736534,0.06010200200229883,-0.09762779586352408
1783244194876054800,4.6630546875,0.08084113090932368,0.04749328031986952,-0.11521971278600394
1783244194886065700,4.673065673828125,0.08580605984032154,0.03977203841805458,-0.10912629128172993
1783244194896076800,4.683076904296875,0.06264554900527,0.02498509591370821,-0.0865329128101468
1783244194906088000,4.693087890625,-0.024281623819470403,0.03954056774973869,-0.07594291053898632
1783244194916099800,4.703099853515625,-0.09959843834936619,0.04948445413708687,-0.05338643001168966
1783244194926110700,4.71311083984375,-0.14389292262792586,0.05366612373590469,-0.040437516589462756
1783244194936121600,4.72312158203125,-0.16957389185130595,0.0663949646666646,-0.03570471591390669
1783244194946133000,4.733133056640625,-0.13724573969841003,0.07033902611732483,-0.059086029892787335
1783244194956145000,4.743144775390625,-0.08478022392392158,0.0809127348408103,-0.06860730695389211
1783244194966155800,4.75315576171875,-0.015346037691831588,0.05910013148337602,-0.0612535101249814
1783244194976166700,4.763166748046875,0.044371056646108624,0.027547932139039038,-0.07115816048048436
1783244194986178800,4.7731787109375,0.06735796447992325,-0.01437953074723482,-0.0927531755644828
1783244194996190000,4.78318994140625,0.0634907676577568,-0.02316810961961746,-0.07485847630314528
1783244195006200800,4.793200927734375,0.02592296128571033,-0.033009120154380796,-0.0048546004243195055
1783244195016211700,4.803211669921875,-0.047211833029985426,-0.025661972261965274,0.06331102717667818
1783244195026223900,4.813223876953125,-0.13719663985967634,-0.02079524300843477,0.0977305255856365
1783244195036234800,4.82323486328125,-0.1969341924637556,-0.019757716654241083,0.10953224173411727
1783244195046246000,4.833245849609375,-0.2142144130885601,0.0017760697618126868,0.08758030297122896
1783244195056256800,4.8432568359375,-0.1683253530949354,0.014440613284707068,0.03287519157640636
1783244195066269000,4.85326904296875,-0.10258066903054713,-0.0004556348130106926,-0.016811726330220697
1783244195076279800,4.86327978515625,-0.025714286971092223,-0.014151274949312209,-0.05025872644521296
1783244195086291000,4.873291015625,0.04028758672475814,-0.00916150383800268,-0.03108662765920162
1783244195096302800,4.883302734375,0.08559504743814468,0.013798515988886356,0.02317863101363182
1783244195106313700,4.893313720703125,0.10683189673423767,0.0333224238872528,0.0703435561619699
1783244195116324900,4.903324951171875,0.15469956332445145,-0.011864333055913447,0.06390154041573405
1783244195126335700,4.913335693359375,0.16027648667395114,-0.04130670063942671,0.029057752180099487
1783244195136347600,4.92334765625,0.1694067185908556,-0.06561287437826395,-0.002995309358462691
1783244195146358800,4.93335888671875,0.1440057353526354,-0.056173138120770454,-0.011735738240182399
1783244195156370000,4.943369873046875,0.07253273676931858,-0.053957507897913454,-0.02061849820204079
1783244195166380800,4.953380859375,-0.023138299003243445,-0.043831542941927905,-0.03764306356534362
1783244195176392700,4.963392822265625,-0.1317407125413418,-0.014395897360146044,-0.031412206351757045
1783244195186403800,4.97340380859375,-0.2091290726482868,0.01390022279769182,-0.03262720816470682
1783244195196414700,4.983414794921875,-0.27332828083634375,0.0441258497133851,-0.02388634089156985
1783244195206425900,4.99342578125,-0.2515454880952835,0.06640928545296192,-0.04810286358557641
1783244195216437800,5.003437744140625,-0.19687340218722818,0.060576049254834646,-0.10019413922019302
1783244195226449000,5.013448974609375,-0.12029518941938877,0.01886164459735155,-0.14656374927237628
1783244195236459800,5.023459716796875,-0.05880231758058071,0.02236556106507778,-0.1776071223117411
1783244195246472000,5.033471923828125,-0.021790976047515866,0.060815410968661304,-0.14353314940482378
1783244195256482800,5.04348291015625,-0.01745557719171047,0.0883069367453456,-0.12087927291765808
1783244195266493700,5.05349365234375,-0.016927753925323485,0.0727037094220519,-0.10860972006171941
1783244195276504800,5.0635048828125,-0.04844400517344474,0.01626402931958437,-0.09683649935536086
1783244195286517000,5.07351708984375,-0.09240589649677276,0.03401303649991751,-0.07886237818226217
1783244195296528000,5.08352783203125,-0.11377192513048648,0.06314736104756594,-0.043395708807930346
1783244195306538800,5.093538818359375,-0.08219196099638938,0.09240443519204855,-0.03232676391340792
1783244195316550000,5.1035498046875,-0.012450316250324249,0.09451602051854133,-0.07108852931037545
1783244195326561800,5.113561767578125,0.03579612052440643,0.09545768528282642,-0.07653561573512851
1783244195336573000,5.123572998046875,0.05972352407872677,0.07278671153038739,-0.08711443902514875
1783244195346583800,5.133583740234375,0.09338146353065967,0.03997720560133457,-0.048562663117051125
1783244195356595700,5.143595703125,0.09360650445818901,0.004356733904778957,-0.018600801704078913
1783244195366606600,5.153606689453125,0.09846621944904327,-0.03831453308612108,0.0381594155896455
1783244195376618000,5.163617919921875,0.09062894995212555,-0.05494242728203535,0.05915259232297539
1783244195386628900,5.17362890625,0.057555532389879226,-0.028453356546163558,0.07704707238860428
1783244195396640800,5.183640869140625,0.025877953100204465,-0.021338556104898453,0.07631437419988214
1783244195406651600,5.193651611328125,-0.018691256466507912,-0.01218231296390295,0.07679039421379566
1783244195416662800,5.203662841796875,-0.06403203492760658,-0.025723347060382366,0.022582272555679083
1783244195426674000,5.213673828125,-0.10318623370826244,-0.04015168538540601,-0.023085326706990598
1783244195436685800,5.223685791015625,-0.15100889211297033,-0.06012713644355535,-0.042492768618836996
1783244195446696700,5.23369677734375,-0.14105214624404908,-0.021768179693818092,-0.02895882185027003
1783244195456707800,5.243707763671875,-0.1106517472833395,-0.006368950510025024,-0.011942147532477973
1783244195466719700,5.2537197265625,-0.018314239847660063,-0.02369622514694929,-0.028548122157528995
1783244195476731000,5.26373095703125,0.014535890352725981,0.00004763853400945663,-0.02516023328490555
1783244195486741800,5.27374169921875,0.02050678145587444,0.02726940745860338,-0.041643896704539655
1783244195496752600,5.283752685546875,0.02584463535249233,0.006685176852345466,-0.06508790065608919
1783244195506764800,5.293764892578125,-0.004320785808563233,-0.02497457451969385,-0.05112630305998027
1783244195516776000,5.30377587890625,-0.06924713922739029,-0.040646775425970554,-0.02439217152185738
1783244195526786800,5.313786865234375,-0.0640314504057169,-0.018719898039102553,-0.06698825438469648
1783244195536797700,5.323797607421875,-0.1172913314282894,-0.018693302293121813,-0.051513768007606264
1783244195546809900,5.333809814453125,-0.1373994689553976,0.014564531925320624,-0.040556320663541555
1783244195556821000,5.343821044921875,-0.14453765027225016,0.04781915127336979,-0.00800290838740766
1783244195566831900,5.353831787109375,-0.16409341461360455,0.0402852486371994,0.024019538817182183
1783244195576843500,5.363843505859375,-0.16306407156586647,0.048506841276586055,-0.005666720524802804
1783244195586854400,5.3738544921875,-0.11942600536942481,0.033715514858067036,-0.048040319743379946
1783244195596865500,5.383865478515625,-0.042216508960723875,0.007374035899341106,-0.05328267737627029
1783244195606876400,5.39387646484375,0.03885024739801884,-0.0350175373673439,-0.05914952358305454
1783244195616888600,5.403888671875,0.098595398786664,-0.06610884120166301,-0.06108209908083081
1783244195626899500,5.4138994140625,0.10493336963653564,-0.06905804639607667,-0.03812551332004368
1783244195636910300,5.423910400390625,0.031442016968131065,-0.02660802094042301,0.02263794826567173
1783244195646921500,5.43392138671875,-0.006748305216431617,0.04160539132505655,0.07696596997641027
1783244195656933600,5.44393359375,-0.03527063534557819,0.05236030183434486,0.039089682177081704
1783244195666944500,5.453944580078125,-0.08592354874014854,0.02219166580289602,-0.03750950031355023
1783244195676955400,5.463955322265625,-0.08993453794717789,0.019136369885504243,-0.10094678421840071
1783244195686967300,5.47396728515625,-0.09709025492072104,-0.009589958383142947,-0.14340280102342368
1783244195696978400,5.483978515625,-0.08284604099094867,-0.0253819862768054,-0.1102379788506776
1783244195706989600,5.493989501953125,-0.04503390446901321,-0.017592647574841976,-0.021857538477703928
1783244195717000400,5.50400048828125,-0.014355857610702514,0.003025193040072918,0.020508973412960766
1783244195727012400,5.514012451171875,-0.01886252138018608,-0.016058569875359533,0.04918444827720522
1783244195737023200,5.524023193359375,-0.046881578162312504,-0.03340571825653314,0.04544453109651804
1783244195747034600,5.53403466796875,-0.06338496919572353,-0.02725596345514059,0.0000010229133069515227
1783244195757045500,5.54404541015625,-0.09729016140699386,-0.02118131971657276,-0.03943250426538288
1783244195767057400,5.554057373046875,-0.099309684535861,-0.0071466568842530245,-0.03065758859217167
1783244195777068300,5.564068359375,-0.11174304965138435,0.040757834585011005,-0.033939167546108366
1783244195787079400,5.574079345703125,-0.10674655653834342,0.08256576274484395,-0.03683613109663129
1783244195797091600,5.584091552734375,-0.0333750308573246,0.07127893731594086,-0.023949469255656
1783244195807102500,5.5941025390625,0.10018471380472183,0.08659311856478452,-0.029973697981238362
1783244195817113300,5.60411328125,0.20388883390724657,0.07452361832559108,-0.04061024280786514
1783244195827124500,5.61412451171875,0.28334055628478527,0.018173370072245596,-0.06953991162888705
1783244195837136400,5.624136474609375,0.28659166703522204,-0.03752162914276123,-0.0712825905777514
1783244195847147500,5.6341474609375,0.2100140387892723,-0.07241027943342923,-0.06923004196211695
1783244195857158400,5.644158447265625,0.07740706480741501,-0.04351853147000074,-0.02013137227222323
1783244195867169300,5.654169189453125,-0.08799743240475653,0.0048012628018856045,0.048720118701085446
1783244195877181400,5.664181396484375,-0.22910335466265677,0.03218932820409536,0.07978701874651015
1783244195887192600,5.674192626953125,-0.32221710716783997,0.0419803621172905,0.048901247421652076
1783244195897203500,5.684203369140625,-0.34597207676470276,0.05521247639507055,-0.036758828076720235
1783244195907214300,5.69421435546875,-0.31984745542705056,0.06398205830603837,-0.08254830015338957
1783244195917226200,5.704226318359375,-0.21561317397058008,0.06103168406784534,-0.10194390549696981
1783244195927237600,5.714237548828125,-0.06636544631123542,0.056178691078722476,-0.1281002371471375
1783244195937248500,5.72424853515625,0.04233107525110245,0.059331894412636754,-0.13899426386617122
1783244195947260400,5.734260498046875,0.06864449715912342,0.05513736533224582,-0.13350998723618684
1783244195957271300,5.744271240234375,0.07305529933869838,0.024974866780638694,-0.10441168384999036
1783244195967282400,5.754282470703125,0.04884966336488723,0.03621522271931171,-0.0893845028489828
1783244195977293600,5.76429345703125,0.0022568390160799027,0.021424188561737535,-0.052195612791925666
1783244195987305500,5.774305419921875,-0.05300210686922073,-0.003258417274057865,-0.056408042855188245
1783244195997316400,5.78431640625,-0.05253156674802303,0.008731003466248511,-0.04574446389116347
1783244196007327200,5.7943271484375,-0.027707506614923477,0.05820493620932102,-0.018628639559075236
1783244196017338600,5.804338623046875,-0.00016600421667099,0.06090484281778335,0.02303578847683966
1783244196027350500,5.8143505859375,0.10146014056801796,0.05867167693823576,-0.01265109951943159
1783244196037361400,5.824361328125,0.06554127044677734,0.00805441937893629,-0.005799626189470291
1783244196047372300,5.834372314453125,0.01621522174179554,-0.04709025247693061,0.0430740756381303
1783244196057384400,5.844384521484375,0.0002671265035867691,-0.024302374346554276,0.06910298151634633
1783244196067395300,5.854395263671875,-0.020899580165743826,-0.030190263341367242,0.06932210415974259
1783244196077406500,5.864406494140625,-0.008682488149404526,-0.03753858027756214,0.03389854327477514
1783244196087417300,5.874417236328125,-0.0005529577076435089,-0.052831134216487406,-0.008259075105562806
1783244196097429500,5.884429443359375,0.016683423775434494,-0.0769040837213397,-0.05384622954316437
1783244196107440400,5.8944404296875,0.003584872749447822,-0.05195055198967456,-0.06589665975570679
1783244196117451500,5.904451416015625,-0.03567220188379287,-0.03988952731788158,-0.03330086964257061
1783244196127462400,5.91446240234375,-0.09404957205057143,-0.03660889821201563,-0.005411503654718399
1783244196137474600,5.924474609375,-0.10883505325019359,-0.02970014173686504,-0.02421016601845622
1783244196147485400,5.9344853515625,-0.13368366330266,-0.03909954598397016,-0.04216397505588829
1783244196157496600,5.94449658203125,-0.1509632994055748,-0.02624766319543123,-0.04652735789716243
1783244196167508500,5.954508544921875,-0.1322585989356041,-0.010052607458829878,-0.07510770182386041
1783244196177519400,5.964519287109375,-0.10077917256653308,-0.005550619864463806,-0.0734490478966385
1783244196187530500,5.974530517578125,-0.06335282049179077,-0.01296177290380001,-0.08742102075628935
1783244196197541400,5.984541259765625,-0.019672668719291686,-0.032006665113568304,-0.07595788891240954
1783244196207553300,5.99455322265625,-0.004910568395256996,-0.026413375151157378,-0.04031747040636837
1783244196217564400,6.004564453125,0.03321194925010204,-0.008593056300282478,-0.016769421558454633
1783244196227575600,6.014575439453125,0.02634790869951248,0.0033095629394054413,-0.03667706807740032
1783244196237586400,6.02458642578125,-0.002779401585459709,-0.009345043711364269,-0.03720920219272375
1783244196247598300,6.034598388671875,0.00794248343706131,-0.01345715520530939,-0.008564195531979202
1783244196257609500,6.044609375,0.010813654959201812,-0.008587795603275298,0.0017480127111077308
1783244196267620400,6.054620361328125,0.013361001354455946,-0.02039484551399946,0.006176350547373295
1783244196277632500,6.064632568359375,-0.0005284077882766723,-0.015137655638158321,-0.04655081183798611
1783244196287643400,6.074643310546875,-0.00654079994559288,0.001988251207768917,-0.09281089710108935
1783244196297654300,6.084654296875,-0.030550036564469335,0.005148468804359436,-0.07900514765381812
1783244196307665400,6.09466552734375,-0.07873977471590042,-0.014338029693067073,-0.07007964452877641
1783244196317677600,6.104677490234375,-0.1320358960956335,-0.0318628727287054,-0.04917334236130118
1783244196327688400,6.1146884765625,-0.16406418851912022,-0.013299626556038856,-0.01881992434747517
1783244196337699300,6.12469921875,-0.13870821346640586,0.00881429783552885,0.015039821286872028
1783244196347710500,6.13471044921875,-0.10669687217772006,0.014639350727200507,0.007798033465072512
1783244196357722600,6.14472265625,-0.02539104636609554,-0.013886194272339343,-0.04014912810213864
1783244196367733500,6.1547333984375,0.06702244891524314,-0.016889760002493856,-0.08573920514918863
1783244196377744400,6.164744384765625,0.11579963156580925,-0.01763414862900972,-0.11487952104620634
1783244196387756300,6.17475634765625,0.12756196555197238,-0.0004854454293847084,-0.11499912883788346
1783244196397767400,6.184767333984375,0.06851181069016456,0.0019008651852607725,-0.09924582551941274
1783244196407778600,6.194778564453125,0.034327217015624044,-0.008488134621083736,-0.03308846900090575
1783244196417789400,6.20478955078125,0.07088321599662303,-0.0009407879814505577,0.014009236130118369
1783244196427801300,6.21480126953125,-0.030035072779655454,-0.004252689008414745,0.0758901574384421
1783244196437812200,6.224812255859375,-0.07803951749205588,0.026776363244652747,0.11478972387090325
1783244196447823600,6.23482373046875,-0.12739771490097046,0.05775865374654531,0.09777553377114236
1783244196457834500,6.24483447265625,-0.18000059331953525,0.032492695064842696,0.045363428684324025
1783244196467846400,6.254846435546875,-0.14094459421634672,0.036625264824926854,0.004728416761383414
1783244196477857300,6.264857177734375,-0.10009002125859259,0.04868658175766468,-0.0014179039739072323
1783244196487868700,6.27486865234375,-0.02024842278063297,0.04168225595355034,0.0212875565700233
1783244196497880600,6.284880615234375,0.09231997177898883,0.030948972754180428,-0.0004456979408860206
1783244196507891500,6.294891357421875,0.11318506515324116,-0.008627543091773986,0.007331365801393985
1783244196517902300,6.30490234375,0.18824702813923358,-0.01434387491196394,-0.012629253013804555
1783244196527913200,6.314913330078125,0.19229425770342348,-0.014320201775431632,-0.03541618129611015
1783244196537925400,6.32492529296875,0.15443828203976154,-0.019459318229556082,-0.05412891894206404
1783244196547936500,6.3349365234375,0.09023732028603554,-0.04883768066614866,-0.09237177503146231
1783244196557947400,6.344947509765625,-0.028274492847919462,-0.043892625479400156,-0.08752301982603966
1783244196567958300,6.354958251953125,-0.15078151309788226,-0.01874620152413845,-0.0036855566449463363
1783244196577970700,6.364970703125,-0.23846681081354618,0.01753974834382534,0.02824161349162459
1783244196587981800,6.37498193359375,-0.3014928835690021,-0.010731529633700847,0.023758842054381966
1783244196597993000,6.384992919921875,-0.2862240027666092,-0.051718204538524146,-0.007987783883512019
1783244196608004900,6.3950048828125,-0.23456921885311602,-0.04863280574381351,-0.038795375405624506
1783244196618015700,6.405015625,-0.15836802270412445,-0.008221884900331497,-0.10490187851972878
1783244196628027000,6.41502685546875,-0.07857435502111912,0.0009659224227070807,-0.10966149413697421
1783244196638038000,6.4250380859375,-0.04587795407772064,-0.010432254426181316,-0.10572598131895064
1783244196648050000,6.4350498046875,-0.06150222418904304,0.0139534142896533,-0.1241467502810061
1783244196658060800,6.445060791015625,-0.09639993456900119,0.026286241640150546,-0.09264481981918216
1783244196668071700,6.45507177734375,-0.12382394806742668,0.03928893107622861,-0.06872559957131744
1783244196678082800,6.465082763671875,-0.13139175297319888,0.017293664628267286,-0.05431888855621218
1783244196688095000,6.475094970703125,-0.08062485781013966,0.026170214045047758,-0.04309117290340364
1783244196698105900,6.48510595703125,-0.013899930536746978,0.036170799055695535,-0.0014333938039839268
1783244196708116700,6.49511669921875,0.054964346852898596,0.04628624261766672,0.024902970588207243
1783244196718129000,6.50512890625,0.11348434036076069,0.06593874533176422,0.06003222470171749
1783244196728139800,6.515139892578125,0.12819967893362044,0.05509527975618839,0.07276632632948457
1783244196738151000,6.52515087890625,0.09516308625042438,0.008034253373742103,0.04940305946394801
1783244196748161800,6.535161865234375,0.08499123632609844,-0.020442191787064076,0.033861206939071416
1783244196758174000,6.545174072265625,0.056903790482878684,-0.004739888003468513,0.09514474687613546
1783244196768184800,6.555184814453125,0.007829670712351798,-0.012616028206050395,0.08367438157387078
1783244196778196000,6.565196044921875,-0.025500351959466934,-0.026547815185785292,0.060873863157629965
1783244196788206800,6.575206787109375,-0.030784429842233656,-0.025789690294861792,0.07969853674545883
1783244196798219000,6.585218994140625,0.013785364246368408,-0.054987143206596374,0.046349151786044235
1783244196808230000,6.59522998046875,0.02823006918430328,-0.059222588819265364,0.030623832453042267
1783244196818240800,6.60524072265625,-0.028936171627044677,-0.04545183762013912,0.046215515469014645
1783244196828252700,6.615252685546875,-0.06819090817272663,-0.024816169087588786,-0.010913973528519272
1783244196838263800,6.625263916015625,-0.11131342606246471,-0.025992519390583037,-0.019101590833067894
1783244196848275000,6.63527490234375,-0.0822831464111805,-0.0026519758135080335,-0.03623918811678886
1783244196858285800,6.645285888671875,-0.12036591656804084,0.0314294497475028,-0.03963898662291467
1783244196868297700,6.655297607421875,-0.058194999337196344,0.014827566775679587,-0.004030278429389
1783244196878308900,6.665308837890625,-0.061654199880361554,0.00348170463591814,0.011983794717118143
1783244196888320000,6.675320068359375,0.008940846824645996,-0.051094811943173404,0.003285159150511026
1783244196898331000,6.685330810546875,0.1179758065611124,0.04179916033148765,0.005768573464080691
1783244196908342800,6.6953427734375,0.09223287801742554,-0.011392331629991531,-0.0017645985197275876
1783244196918354000,6.70535400390625,0.08622925368845462,-0.016555998003482817,-0.0967780471663922
1783244196928364800,6.71536474609375,0.0787970578610897,-0.02475537881106138,-0.12430281762555241
1783244196938377000,6.725376953125,-0.03890636149942875,-0.013365093007683753,-0.11141915145926176
1783244196948387800,6.735387939453125,-0.0730021078467369,0.0786594029560685,-0.10451156402789055
1783244196958398700,6.745398681640625,-0.16215338646173477,0.06606032588481903,-0.10572649277560413
1783244196968409900,6.755409912109375,-0.17607845143973827,0.044561026260256764,-0.15803002292141316
1783244196978422000,6.765422119140625,-0.27009178313314913,-0.024332184962928292,-0.15199541893228888
1783244196988433000,6.775432861328125,-0.21617723759412763,0.011900573413074015,-0.15539375613369047
1783244196998443800,6.78544384765625,-0.22352760035693645,-0.013677519957721233,-0.10981040108837187
1783244197008455700,6.79545556640625,-0.14990473026335238,0.01760083088129759,-0.14103840997964143
1783244197018467000,6.805467041015625,-0.0840863964408636,0.02601677704900503,-0.20126279625259338
1783244197028478000,6.81547802734375,-0.08451075933277606,0.0310068404212594,-0.20829503297694027
1783244197038488800,6.82548876953125,-0.15529694469571112,0.005590659613907337,-0.1543855289392173
1783244197048500700,6.835500732421875,-0.21832594006061554,0.013377952489256857,-0.12267485109753906
1783244197058511600,6.84551171875,-0.2562637487888336,0.02689735927581787,-0.13759038841761648
1783244197068523000,6.85552294921875,-0.16772680267989634,0.024766192466020583,-0.15681217156425117
1783244197078534000,6.865533935546875,-0.049038463935256,0.05254384170770645,-0.1186738718278706
1783244197088545800,6.8755458984375,0.05923252569139004,0.09082447252422571,-0.09005370734743773
1783244197098556700,6.885556640625,0.06204232241511345,0.09836568168401717,-0.15554215162843466
1783244197108568000,6.895568115234375,-0.07372223881483078,0.07508037542551756,-0.18983422426544128
1783244197118579000,6.905578857421875,-0.09581775076687335,0.0537310056656599,-0.143537387188524
1783244197128590800,6.9155908203125,-0.00410392818748951,-0.042806876069307324,0.02281922311671078
1783244197138601700,6.925601806640625,0.03537818737328052,-0.02294979069381952,0.0971972954917699
1783244197148612900,6.93561279296875,-0.022476035702228545,0.008717851723730564,0.01013794765472412
1783244197158624800,6.945624755859375,-0.05856266360580921,0.12189210322201251,0.03043057490326464
1783244197168636000,6.955635986328125,-0.06752163060903549,0.1661246281802654,0.10875190501138567
1783244197178646800,6.965646728515625,-0.05301087469756603,0.10262538495510816,0.09720350603684783
1783244197188657700,6.97565771484375,0.02316167987883091,0.027907120840251445,0.03498283138014376
1783244197198669800,6.985669921875,0.04973813663721084,-0.038809623126685615,0.014476780576631426
1783244197208681000,6.995680908203125,0.03388707203269005,0.013423837457597254,0.07814801936782896
1783244197218691800,7.00569189453125,0.09923135860264301,0.034519816978275775,0.07497275033257901
1783244197228703700,7.015703857421875,0.12679098117947576,0.042023908998072144,0.11955956862121819
1783244197238715000,7.02571484375,0.13464870894253253,-0.001050970357656479,0.11776830129027366
1783244197248726000,7.03572607421875,0.10352700996994972,-0.02305705046057701,0.05728928266912699
1783244197258737000,7.04573681640625,-0.027481881165504454,-0.004564239175617694,0.11995580139718949
1783244197268748800,7.055748779296875,-0.10416004717648028,-0.041834231644868845,0.12459537083134055
1783244197278760000,7.065760009765625,-0.16922668584883213,-0.01227817455381155,0.15462057980410754
1783244197288770800,7.075770751953125,-0.24445816018283364,-0.016856442254781723,0.19257745855897665
1783244197298782000,7.085781982421875,-0.17737725907862184,-0.015610533846914767,0.11380319705158472
1783244197308793900,7.0957939453125,-0.16224807900786398,-0.02240706211924553,0.00045534255206584927
1783244197318804700,7.1058046875,-0.09032207596004009,-0.03406388990432024,-0.07735971853435039
1783244197328815900,7.11581591796875,0.048285015219449993,0.02271890454739332,-0.11629852099865674
1783244197338827800,7.125827880859375,0.08627543091773986,-0.006573825432360172,-0.13463614172190427
1783244197348839000,7.1358388671875,0.10006722490489482,-0.03037994069457054,-0.11746062358058988
1783244197358849800,7.145849853515625,0.012129998254776,0.005156067588925361,-0.0943571036297828
1783244197368861000,7.15586083984375,-0.14144202234447,0.10087094250321388,-0.10903422908410429
1783244197378872800,7.165872802734375,-0.21332301720678806,0.1317787064641714,-0.10830642626620829
1783244197388883700,7.1758837890625,-0.26171616897583005,0.0909054288059473,-0.08955854424163699
1783244197398894800,7.185894775390625,-0.21861177126467227,0.045049978820979594,-0.08988887217454612
1783244197408905700,7.19590576171875,-0.14614274738132954,0.0674272303238511,-0.08622128957770764
1783244197418918000,7.20591796875,-0.058444005662202834,0.11020926421284676,-0.08005772544667124
1783244197428928800,7.2159287109375,0.04142506632208824,0.07675006220340728,-0.11773118415027856
1783244197438940000,7.22593994140625,0.1493587868183851,0.04492372209280729,-0.1187798164203763
1783244197448952000,7.2359521484375,0.2305529689490795,0.015597966626286507,-0.08787957817874849
1783244197458963000,7.245962890625,0.2372276244074106,0.004558686217665672,-0.08414959787018597
1783244197468973800,7.255973876953125,0.22444354615807532,0.009646657006442546,-0.04842193947210908
1783244197478985000,7.26598486328125,0.1399748724013567,-0.023457155694067477,0.009156900728121399
1783244197488996900,7.275996826171875,0.096120533105731,-0.03765753048211336,0.03142258161529898
1783244197499008000,7.286008056640625,0.055549453264474864,-0.025506781700253486,0.055959495370090005
1783244197509019000,7.296018798828125,0.015534838262200354,0.009753039990365505,0.05531403707340359
1783244197519029800,7.30602978515625,-0.02327741521298885,0.0339805955350399,0.057175666226819154
1783244197529041700,7.316041748046875,-0.09969196185171604,0.052364101226627824,0.04211385230384767
1783244197539053000,7.326052978515625,-0.18260113120675087,0.042868835389614106,0.026264029808342457
1783244197549064000,7.33606396484375,-0.20532851132154464,0.04111263937205076,-0.03753602299429476
1783244197559075800,7.346075927734375,-0.20816227344274518,0.04970335758477449,-0.0798622759398073
1783244197569086700,7.356086669921875,-0.21753975811898707,0.010319441701471805,-0.13606865874305366
1783244197579098000,7.36609814453125,-0.13660568822920321,0.025842297264933586,-0.13532602368220686
1783244197589109500,7.376109619140625,-0.051934769898653026,0.08402385259866714,-0.06434986870512366
1783244197599121400,7.386121337890625,-0.0014905308187007902,0.06693243254423141,-0.054584480689838524
1783244197609132300,7.39613232421875,0.05936871929168701,0.023444588473439214,-0.0647437633935362
1783244197619143200,7.40614306640625,0.09548574233353137,0.0279831086859107,-0.07883037560880184
1783244197629154300,7.416154296875,0.03173077078163623,0.02270838315337896,-0.037772827424854036
1783244197639166500,7.42616650390625,-0.019031448206305503,0.028657062424719333,-0.005744754197075963
1783244197649177300,7.43617724609375,-0.030000585988163946,0.017408523179590702,0.019424831438064574
1783244197659188200,7.446188232421875,-0.004237199178338051,0.020974106706678868,0.06320223303996027
1783244197669200400,7.456200439453125,-0.016599837145209313,0.05532441233694553,0.06870156110860406
1783244197679211300,7.466211181640625,-0.022077391773462293,0.04932429513931274,0.047534196852147576
1783244197689222400,7.476222412109375,-0.04034662343561649,-0.0017836685463786125,0.05382767097316682
1783244197699233300,7.4862333984375,-0.045055531778931616,0.001438216109573841,0.04268931410424411
1783244197709245200,7.4962451171875,-0.031474750193953516,-0.0001575286492705345,0.006308963951095938
1783244197719256300,7.50625634765625,0.00528816953599453,-0.01865852324068546,-0.014840937713906169
1783244197729267500,7.516267333984375,0.014783727633953093,-0.008959259264171123,0.02764035966284573
1783244197739279400,7.526279296875,0.016937690797448158,0.016339432643353937,0.05680778276249766
1783244197749290200,7.536290283203125,0.005362403815984726,0.039949148550629615,0.05182414913102984
1783244197759301400,7.54630126953125,-0.004165887507796288,0.0012044073536992073,0.020671105172112583
1783244197769312300,7.556312255859375,0.0016278934627771376,-0.025569033281505105,-0.00799750155992806
1783244197779324400,7.566324462890625,0.004149520894885063,-0.03275514539331197,-0.04283127985820174
1783244197789335300,7.576335205078125,0.027127660900354383,-0.0036801498174667355,-0.04512165581770241
1783244197799346200,7.58634619140625,0.019907061997056007,0.03386252211332321,-0.00033485797755420207
1783244197809357300,7.596357421875,-0.04701134202182293,0.05602788443118333,0.06314107743725181
1783244197819369200,7.606369140625,-0.08163491163551807,0.04498480463027954,0.08761939287260175
1783244197829380400,7.61638037109375,-0.09377835389375686,0.046231882081925864,0.07544241367094218
1783244197839391200,7.62639111328125,-0.07760872485935688,0.02960486466884613,0.06248867794312536
1783244197849403400,7.6364033203125,0.005847556984424591,-0.0076233344852924345,-0.010677169097959995
1783244197859414300,7.646414306640625,0.023939093992114066,-0.03924655323922634,-0.014330503973737358
1783244197869425400,7.65642529296875,0.07252046180963516,-0.013581950628757476,-0.010231836483255027
1783244197879436300,7.666436279296875,0.09022913697957992,-0.00009849193841218948,0.015548282265663146
1783244197889448400,7.676448486328125,0.018572598522901534,0.029793372978270054,0.050323389179259534
1783244197899459300,7.686459228515625,-0.09780454066991806,0.06323445480912923,0.0446530884578824
1783244197909470200,7.69647021484375,-0.25044132624566556,0.058578445696830746,-0.026410525606945155
1783244197919481300,7.7064814453125,-0.31773966949284077,0.13150164308845996,-0.0698440091419965
1783244197929493500,7.716493408203125,-0.24225392813682556,0.14287293193042278,-0.15249686564840376
1783244197939504400,7.72650439453125,-0.09064005586802959,0.05594985075891017,-0.1861113312847912
1783244197949515300,7.736515380859375,0.07609072151184082,0.03135229285806417,-0.15395480937175451
1783244197959527200,7.746527099609375,0.21282149742543696,-0.0037996845439076422,-0.08548435360528528
1783244197969538300,7.756538330078125,0.28558453581929205,-0.09087941758185625,-0.0505797020278871
1783244197979549400,7.766549560546875,0.3316027751505375,-0.14652940861135721,0.016539850586280224
1783244197989560300,7.776560302734375,0.34652211186289783,-0.17203443674594163,0.09136647044643759
1783244197999572200,7.786572265625,0.31087095276713367,-0.1798044862255454,0.10621939085908233
1783244198009583400,7.796583251953125,0.24777473738491534,0.10921528473943472,0.12550927080586552
1783244198019594200,7.80659423828125,0.01993745713531971,0.35394670890569685,0.05780190836638212
1783244198029606400,7.8166064453125,-0.22746669337153433,-0.022710721240937707,-0.11006605634987354
