time,seconds_elapsed,z,y,x
1783244250702403800,0.06240380859375,0.30891748061180113,-0.06681567429676652,0.12469868507534265
1783244250712416000,0.072416015625,0.1724134991914034,-0.13052242279276252,0.10602058035135269
1783244250722427000,0.082427001953125,-0.006135726276040077,-0.1425080441407859,0.10857698683589696
1783244250732437800,0.092437744140625,-0.21034721626639366,-0.06929039384722709,0.1118291204996407
1783244250742450000,0.102449951171875,-0.2971820346325636,-0.02562339381724596,0.1181244212515652
1783244250752461000,0.1124609375,-0.2697363938242197,-0.004557517173886299,0.08324526944160461
1783244250762472000,0.122471923828125,-0.22003742015361785,0.030317396852374074,0.08289324113354087
1783244250772483800,0.13248388671875,-0.09905658655762672,0.06659560180529951,0.06298398717939853
1783244250782494700,0.14249462890625,0.03296761910021305,0.10554010335803031,0.027084114019572732
1783244250792507000,0.1525068359375,0.15649404552578924,0.11278729800730943,0.017750614615529774
1783244250802518000,0.16251806640625,0.19673662406504153,0.11727569546774029,0.004109481145441532
1783244250812529000,0.17252880859375,0.15656477267444133,0.10855521339550614,0.02744330272078514
1783244250822541000,0.182541015625,0.08654431098699569,0.11417568362578749,0.05633081290051341
1783244250832552000,0.192552001953125,0.017606968361139296,0.14773936892300843,0.0735286159388721
1783244250842563800,0.202563720703125,-0.05189443788826465,0.1784942804098129,0.0341210269190371
1783244250852574700,0.21257470703125,-0.10004150594174861,0.15830883986279368,-0.03261252205222845
1783244250862585900,0.2225859375,-0.11997720951139926,0.11513517630770802,-0.07290931499674916
1783244250872598000,0.232597900390625,-0.113082773822546,0.10405921715050935,-0.09737170221060513
1783244250882609000,0.24260888671875,-0.1134656356602907,0.15606807519868016,-0.07452975580543279
1783244250892619800,0.252619873046875,-0.03736088562309742,0.21222060892283914,-0.038990386521071195
1783244250902632000,0.2626318359375,-0.032229367953538895,0.19816373425871134,-0.09854600668698549
1783244250912643000,0.27264306640625,0.017682956206798554,0.1656532112762332,-0.11329992370456457
1783244250922655000,0.282655029296875,0.06771510735452174,0.13590338517874478,-0.12281199454590677
1783244250932665900,0.292665771484375,0.014160042777657507,0.09736103468611836,-0.12433102080672978
1783244250942676700,0.3026767578125,-0.03291676569581031,0.1060267178311944,-0.11819164126887917
1783244250952689000,0.31268896484375,-0.08607552443146706,0.13166764730513095,-0.08458850074410439
1783244250962699800,0.32269970703125,-0.1301578272640705,0.14386179683730005,-0.0592417319111526
1783244250972711700,0.332711669921875,-0.17568740629553795,0.12742460290789603,-0.05812149570956826
1783244250982723000,0.34272314453125,-0.12403086881637572,0.1393202078849077,-0.031048049214482305
1783244250992734000,0.35273388671875,-0.014852116695046423,0.11066416837349534,-0.04904737789407372
1783244251002745900,0.362745849609375,0.07628127564787865,0.03636690614968538,-0.05787745782062411
1783244251012756700,0.3727568359375,0.15120295338034628,-0.008327683362364769,-0.007193418635427952
1783244251022767900,0.382767822265625,0.20469956576824186,0.02647285025343299,0.035830461185425516
1783244251032780000,0.392780029296875,0.16000117686390875,0.0030079496443271635,0.025632161645591258
1783244251042791000,0.402791015625,0.05480243428945541,-0.0593558598101139,0.01841258565559983
1783244251052802800,0.412802734375,-0.07465513575077057,-0.044525808816403147,0.05443213967233896
1783244251062814000,0.42281396484375,-0.1262672495663166,0.006365151117742061,0.06919964682385325
1783244251072824800,0.432824951171875,-0.1584784973412752,0.005780190836638212,0.051224137411266565
1783244251082837000,0.4428369140625,-0.15060615653097628,-0.030174627380818126,-0.0014035831876099108
1783244251092847900,0.452847900390625,-0.1600952848881483,-0.038809330865740774,-0.06272475172132254
1783244251102860000,0.462860107421875,-0.1626227575391531,-0.0035385493896901606,-0.07596183443516492
1783244251112871000,0.472870849609375,-0.11001987912058829,0.024643881260603667,-0.09532090716063976
1783244251122881800,0.4828818359375,-0.1017675990819931,-0.035801235090941186,-0.12154811208993196
1783244251132893700,0.492893798828125,-0.1467068110048771,-0.08811082965135573,-0.07958601628169416
1783244251142905000,0.502905029296875,-0.2273679091721773,-0.037207594757527114,-0.0017377835780382155
1783244251152916000,0.512916015625,-0.25820202337503434,0.04047141885906458,0.0529695197738707
1783244251162927900,0.522927978515625,-0.2237035414457321,0.047329175799340005,0.04154693913608789
1783244251172938800,0.532938720703125,-0.17035072144269942,0.013314239603281021,-0.008177315106242894
1783244251182951000,0.542950927734375,-0.16804887424111364,0.01018397875353694,-0.008013356716185808
1783244251192962000,0.552962158203125,-0.16050854186415672,0.03392608886882663,0.02056435686200857
1783244251202973000,0.562972900390625,-0.10352233379483222,0.06744111271873116,0.04141162231862545
1783244251212984800,0.57298486328125,-0.02910977462828159,0.03610211773365736,0.04754033433198929
1783244251222996000,0.582995849609375,0.11699790143966673,-0.0167428988777101,0.037580227462202305
1783244251233007900,0.5930078125,0.2339461185187101,-0.014111235199868679,0.058182578247040505
1783244251243018800,0.603018798828125,0.29082126742899417,0.043419601140171286,0.0854581231854856
1783244251253030000,0.61302978515625,0.3020838351994753,0.03626607612371444,0.06139613346606493
1783244251263042000,0.6230419921875,0.2673743408679962,-0.011310644695907831,0.05105740254223346
1783244251273053000,0.633052978515625,0.15519465336501598,0.0007477496273815632,0.058579030218720435
1783244251283063800,0.643063720703125,0.04586743268370628,0.05533858699277043,0.10978694714754819
1783244251293075700,0.65307568359375,-0.018300795844197273,0.031817572282254694,0.11443740330189466
1783244251303087000,0.663087158203125,-0.05602466956079006,0.00036810266003012656,0.08704510011598467
1783244251313099000,0.67309912109375,-0.08803250371813774,0.01064385135024786,0.033013211807608606
1783244251323110000,0.68310986328125,-0.08579963009953498,0.03925765915513038,-0.023287205954641104
1783244251333120800,0.693120849609375,-0.05695055223405361,0.04471592456102371,-0.0728062930136919
1783244251343133000,0.7031328125,-0.00024725275933742524,0.03201484842002392,-0.10602321069985628
1783244251353143800,0.713143798828125,-0.013143559211492538,0.02009206317514181,-0.10863646193817257
1783244251363156000,0.723156005859375,-0.07078267823159694,0.0008424421735107898,-0.10876038057878613
1783244251373166800,0.733166748046875,-0.13816753071844576,-0.010069120202213525,-0.08626739374175667
1783244251383178000,0.743177978515625,-0.19787702627182005,-0.013118863161653279,-0.055446577411890026
1783244251393190000,0.75318994140625,-0.1784130318671465,-0.011272066251188515,-0.06951178151294589
1783244251403200800,0.76320068359375,-0.13882219523489475,-0.009670184012502431,-0.09273805106058716
1783244251413212000,0.7732119140625,-0.10967734929323196,-0.029745588313788172,-0.14136515771597624
1783244251423224000,0.78322412109375,-0.06797054342031479,-0.06410670759901405,-0.15418869119286535
1783244251433235000,0.79323486328125,-0.05896130753457546,-0.08808189581781625,-0.11987711013779044
1783244251443246800,0.803246826171875,-0.06396072325706481,-0.06871244782879948,-0.05090162745863199
1783244251453257700,0.8132578125,-0.04342530022859573,-0.07366627084389328,0.019535744466632605
1783244251463269000,0.82326904296875,-0.018367431339621543,-0.09942790408805012,0.0610989040851593
1783244251473281000,0.833281005859375,0.017354454904794692,-0.11756079601943492,0.06905833865702152
1783244251483292000,0.8432919921875,0.017728548914194106,-0.10863353932872415,0.04481047097668051
1783244251493303800,0.8533037109375,0.035520226192474365,-0.08366568681076168,0.01065276530906558
1783244251503315000,0.86331494140625,0.020204583638906478,-0.0772282011091709,-0.027289281202852723
1783244251513325800,0.873325927734375,-0.012062193715572357,-0.10715426055639982,-0.04124897910282015
1783244251523337700,0.883337646484375,-0.11315817714631557,-0.11712108942791818,0.018690233553200958
1783244251533348900,0.893348876953125,-0.14372048867046833,-0.10818185003846884,0.05160115403011441
1783244251543361000,0.903361083984375,-0.13848492610454557,-0.08320186869129538,0.07644421112462878
1783244251553372000,0.913371826171875,-0.10616495725810528,-0.06441855002716183,0.017068623700737952
1783244251563382800,0.9233828125,-0.07808920185267924,-0.04272869626656174,-0.03183423115611076
1783244251573394700,0.933394775390625,-0.06977145536243916,-0.02000409263074398,-0.07572364176511764
1783244251583406000,0.943406005859375,-0.07323357851505279,-0.021738369077444076,-0.10103796963319182
1783244251593417000,0.9534169921875,-0.04172200344204902,-0.0152671272367239,-0.09443301841020584
1783244251603428900,0.963428955078125,-0.06693535515367985,0.01412920924797654,-0.041643092986941334
1783244251613439700,0.973439697265625,-0.09396598542034626,0.060853843282908195,0.005600888746976852
1783244251623452000,0.983451904296875,-0.04940145202875137,0.07909048784971237,0.033072686909884214
1783244251633462000,0.9934619140625,0.05944879879057407,0.05021627554297447,0.014378800094872713
1783244251643473200,1.00347314453125,0.18727672180235386,0.01575374170988798,-0.0038888241320848465
1783244251653485000,1.013485107421875,0.25754151363968847,-0.007008563587814569,-0.019280162270367145
1783244251663496000,1.023495849609375,0.282354467856884,0.013850100045651197,-0.0008726911813020706
1783244251673508000,1.033508056640625,0.27105449068546295,0.0813698309585452,0.021631986093521117
1783244251683519200,1.043519287109375,0.23998481416106224,0.04450125889703631,0.02430178982466459
1783244251693530000,1.053530029296875,0.14353577975332737,-0.024403496633470058,0.057375061256438493
1783244251703542000,1.0635419921875,-0.03608896599113941,-0.045215983037650585,0.09995558122396468
1783244251713553000,1.073552978515625,-0.22009879495203494,0.03676715751364827,0.11958821019381284
1783244251723564000,1.08356396484375,-0.30527590923905373,0.08628010709285736,0.0648253772623837
1783244251733576000,1.093575927734375,-0.2518582073062658,0.07915303169190883,-0.04272387396097183
1783244251743587000,1.103587158203125,-0.16951193253099917,0.027934593369066715,-0.15568886662274597
1783244251753599200,1.11359912109375,-0.08897709109187125,0.06676642832756043,-0.20682927127331494
1783244251763610000,1.123610107421875,-0.006568272474408149,0.10640504962429403,-0.21980492657199502
1783244251773621000,1.13362109375,0.0372831442117691,0.07845423577278852,-0.18594152767583727
1783244251783633000,1.1436328125,0.07283902623951434,0.013808452861011027,-0.12108151749148964
1783244251793644000,1.15364404296875,0.041162615993618965,0.039946518202126025,-0.008805383876711129
1783244251803656200,1.16365625,-0.0029138416200876235,0.0737757225677371,0.044318741936981675
1783244251813667000,1.1736669921875,-0.051067923936247824,0.063462418346107,0.03441007299348712
1783244251823678000,1.183677978515625,-0.058787120011448854,0.05615063402801752,0.021866087110340594
1783244251833690000,1.193690185546875,-0.04301671942770481,0.03931684199646115,0.019733166734874248
1783244251843701200,1.203701171875,-0.000571077886223793,0.03665770578980446,-0.0016739245615899562
1783244251853713200,1.213713134765625,0.0453916318655014,0.0036005087099969385,0.0004177870206534862
1783244251863724000,1.22372412109375,0.06034662441313266,-0.02735372474119067,0.008859159890562296
1783244251873735000,1.23373486328125,0.09457856436073779,-0.07571151293590664,0.05673033361211419
1783244251883747000,1.2437470703125,0.07923018858134746,-0.10344941468909383,0.11930135607644915
1783244251893758000,1.253758056640625,0.027774726632237432,-0.0914604323402047,0.21224501271173357
1783244251903769000,1.26376904296875,0.04249474138021469,-0.0713474725075066,0.24636340928226708
1783244251913781200,1.27378125,0.007642039185762405,-0.07964972916767,0.19561931047290562
1783244251923792100,1.283792236328125,-0.017123568758368492,-0.11783128352388739,0.12049012746959924
1783244251933804000,1.293803955078125,-0.06551029078662395,-0.1268782210715115,0.08175546927526593
1783244251943815000,1.30381494140625,-0.11578560304045676,-0.10725976675748825,0.07531973713934421
1783244251953826000,1.313825927734375,-0.14701251595318315,-0.07812588060125708,0.06711582628712058
1783244251963838200,1.323838134765625,-0.16380407627820967,-0.06565189121440053,0.05105038827955723
1783244251973849000,1.33384912109375,-0.17686872503459453,-0.053407034408301114,0.02903495582640171
1783244251983861000,1.343861083984375,-0.1830178953140974,-0.033355157113075254,-0.004201397212594747
1783244251993872100,1.3538720703125,-0.1251601651072502,-0.010067074375599621,-0.028328999514132737
1783244252003883000,1.363883056640625,-0.03600011866390705,-0.024215280584990978,-0.07484247501641511
1783244252013895000,1.37389501953125,0.03558101646900177,-0.06922872678786515,-0.1121194817483425
1783244252023906000,1.383906005859375,0.050013446447253224,-0.08376417874917387,-0.12303162864595651
1783244252033917000,1.3939169921875,0.03933773865401745,-0.021145663881301877,-0.06344999725595116
1783244252043929000,1.40392919921875,0.017785832059383392,0.0035649990051984785,-0.05363353664055466
1783244252053940000,1.41393994140625,0.0011707973450422286,0.015207067612558602,-0.09719225399047136
1783244252063952000,1.423951904296875,-0.02683773804306984,0.02527487264052033,-0.14464680973514912
1783244252073963300,1.43396337890625,-0.04278524875938892,0.03134498633444309,-0.1509877031944692
1783244252083974100,1.44397412109375,-0.05887012211978435,-0.009656155487149954,-0.15514190026447175
1783244252093986000,1.453986083984375,-0.06562485707700252,-0.021389555639773607,-0.16895020699501037
1783244252103997000,1.463996826171875,-0.09283668912947177,-0.03354848772808909,-0.1735647150531411
1783244252114009000,1.474009033203125,-0.1259831719279289,-0.03742401398718357,-0.14120236836969852
1783244252124020200,1.484020263671875,-0.1135533139437437,-0.008261486258357762,-0.11883812247887253
1783244252134031000,1.494031005859375,-0.0994885482341051,0.03171396577730775,-0.09034399553090333
1783244252144043000,1.50404296875,-0.05658697961866855,0.03488879642114043,-0.08738426894247531
1783244252154054100,1.51405419921875,-0.05543780958354473,0.04897007487416267,-0.08481894849911331
1783244252164066000,1.524066162109375,-0.0735077192813158,0.053000207173079246,-0.06534136396050452
1783244252174077000,1.534076904296875,-0.05747428384721279,0.0513607694029808,-0.05980827975273132
1783244252184088000,1.544088134765625,-0.0798643948316574,0.037151188395172355,-0.043174686468392606
1783244252194100200,1.554100341796875,-0.08037585148513317,0.014445581720769405,-0.013118717031180858
1783244252204111000,1.564111083984375,-0.05157587345838546,0.0407591497592628,0.04434694511815905
1783244252214122000,1.5741220703125,-0.04579904362261295,0.09553542669415474,0.0744238112129271
1783244252224134000,1.5841337890625,-0.012553776624798774,0.09642404609695077,0.0629668899141252
1783244252234145300,1.594145263671875,0.0778255824804306,0.06714812112152577,0.036965310434252024
1783244252244157200,1.6041572265625,0.12303893516957759,0.041298517332971095,0.015211159265786409
1783244252254168000,1.61416796875,0.15816753169596195,0.02701177943572402,0.02232552131563425
1783244252264179000,1.624178955078125,0.1610579924404621,0.03558043194711208,0.06207271755337715
1783244252274191000,1.634191162109375,0.1597077468752861,0.08118672947660088,0.04705357372835278
1783244252284202000,1.644201904296875,0.07934767748117447,0.046936523219943044,0.09294175693914293
1783244252294214000,1.6542138671875,0.009471592700481415,0.018180968856811523,0.16306991678476332
1783244252304225000,1.66422509765625,0.009301496830582618,0.05154986223429441,0.19803923109620808
1783244252314236200,1.674236083984375,-0.06341010363698005,-0.008770166432857513,0.18737667504549024
1783244252324248000,1.684248046875,-0.08294190258085728,-0.0519284862883389,0.14848887211605905
1783244252334259000,1.694259033203125,-0.10812193654477596,-0.027318945688754318,0.10946779819577931
1783244252344270800,1.704270751953125,-0.1418833363711834,0.002880231611430645,0.06101663262918591
1783244252354282200,1.7142822265625,-0.12395195836126803,0.02764730086028576,0.015868892522156237
1783244252364293000,1.724293212890625,-0.13463994111418723,0.014410948798805475,-0.010946049167215824
1783244252374305000,1.734304931640625,-0.1413642809331417,0.01572816887721419,-0.017195903342217204
1783244252384316000,1.74431591796875,-0.10217384179532528,0.022372283066809176,0.005152998849004507
1783244252394327000,1.7543271484375,-0.07911386872529982,0.008191928153485059,-0.004271539839357137
1783244252404339200,1.764339111328125,-0.05496726946234703,-0.008388912030309437,-0.03040478287488222
1783244252414350000,1.77435009765625,-0.03372048329412937,0.016987521288543937,-0.03251607594043016
1783244252424362000,1.784362060546875,-0.02071954742372036,0.04816109657883644,-0.03771466749683022
1783244252434373000,1.794373046875,-0.03415712114572525,0.03336436333283782,-0.05805412956178188
1783244252444384000,1.804384033203125,-0.030544775867462157,0.02488397362679243,-0.04103358278647065
1783244252454396000,1.81439599609375,-0.008317746490240096,0.048129824657738206,-0.00806494077295065
1783244252464407000,1.824406982421875,-0.009770283386111259,0.04787321954816579,-0.002841360905766487
1783244252474419200,1.834419189453125,0.02976560818850994,0.03163680888786912,-0.007161416061967611
1783244252484430000,1.84443017578125,0.09061901308000087,0.026716888142377136,-0.030810879457741976
1783244252494441000,1.85444091796875,0.1284761577874422,-0.0052649347908794875,-0.04303995417281985
1783244252504452900,1.864452880859375,0.1279705463528633,-0.025844050830602646,-0.034675153670459986
1783244252514464300,1.87446435546875,0.02736439226567745,-0.05322115644738078,-0.01909852209314704
1783244252524476200,1.88447607421875,-0.08666296893060207,0.0029674715034663677,0.07117299272343516
1783244252534487000,1.894487060546875,-0.17027239550948142,0.02732610608190298,0.12421075542792677
1783244252544498000,1.904497802734375,-0.2272369762688875,-0.007819879970699549,0.07820522944778203
1783244252554510000,1.914510009765625,-0.21706804895401,-0.014315379469841717,0.04210091975703835
1783244252564521000,1.92452099609375,-0.14910919597148894,0.01433583773598075,-0.007116554006934166
1783244252574532000,1.934531982421875,-0.04813479309380054,0.010747457855194806,-0.041064562446624035
1783244252584544000,1.9445439453125,0.03477086912989616,0.004224778088182211,-0.06941665057539939
1783244252594555100,1.95455517578125,0.0390174206584692,0.009393851289153099,-0.07639160415455698
1783244252604567000,1.964567138671875,-0.004319616764783859,0.034398967077583074,-0.06574541471675038
1783244252614578000,1.974577880859375,-0.06542085893750191,0.030753450182080266,-0.05964022970944643
1783244252624589000,1.984589111328125,-0.1153267533570528,0.026458237206190824,-0.04705182016268372
1783244252634601500,1.9946015625,-0.1603992362707853,-0.0034695758067071437,-0.05524988579601049
1783244252644612600,2.004612548828125,-0.14879472319483755,0.022032091327011585,-0.07397343709692358
1783244252654624800,2.014624755859375,-0.12595160774588585,0.07003682830035686,-0.07818389439880848
1783244252664635600,2.0246357421875,-0.08606851016879082,0.06214987444281578,-0.09289061127379536
1783244252674646500,2.034646484375,-0.00518704724907875,0.02512026660069823,-0.12558525865152478
1783244252684658400,2.044658447265625,0.06366203257143498,0.05757526000365615,-0.0975105261594057
1783244252694669800,2.054669921875,0.10722352640032767,0.08513590549379586,-0.05453998396098613
1783244252704681700,2.064681640625,0.1575941157221794,0.046827509887516494,-0.015529285304248332
1783244252714692600,2.074692626953125,0.19730594838559626,0.03282587254196405,-0.04196326485201716
1783244252724703500,2.084703369140625,0.14719079512953756,0.005030541513115167,-0.06278846460729837
1783244252734715600,2.094715576171875,0.06742343093156815,0.039628976685553784,-0.04132131368666887
1783244252744726800,2.104726806640625,-0.009267594560980797,0.0787558490678668,-0.03356295464485883
1783244252754737700,2.114737548828125,-0.09190963741242886,0.02440641924291849,-0.03869710266292095
1783244252764749600,2.12474951171875,-0.17181845590770242,0.006248831261694431,-0.040324996125698086
1783244252774760700,2.1347607421875,-0.25215748251378534,0.019993132845312355,-0.0010460019215941428
1783244252784772600,2.144772705078125,-0.28442601343393326,0.020937427958101034,-0.011086918942630291
1783244252794783500,2.154783447265625,-0.2445996144801378,-0.00898468596637249,-0.004848462944477796
1783244252804794600,2.164794677734375,-0.18028408643603325,0.037465222780406475,0.02731982247158885
1783244252814806800,2.174806884765625,-0.12211305249631405,0.06018441958874464,0.036893560372292994
1783244252824817700,2.184817626953125,-0.029320202508568764,0.039976036557555196,0.036552930241078134
1783244252834829600,2.19482958984375,0.07418401110768318,0.016680062774568793,0.03571209550276398
1783244252844840400,2.20484033203125,0.1322404787570238,0.01329202777147293,0.07380933257639408
1783244252854851800,2.214851806640625,0.12467793454825878,0.014882073441892862,0.05251213139519095
1783244252864863700,2.22486376953125,0.10391279441714286,-0.01952025463655591,0.04615750167146325
1783244252874874600,2.23487451171875,0.06943067910075187,0.011093202552944421,0.08422770460769534
1783244252884886800,2.24488671875,0.05522212100625038,0.030262597925215958,0.07513517435267567
1783244252894897700,2.254897705078125,0.05766366893947124,0.01585150299593806,0.049153907008469104
1783244252904908500,2.264908447265625,0.08703472485244274,-0.00857099059894681,0.014374123919755219
1783244252914920400,2.27492041015625,0.12768003897368907,0.008815905270725488,0.03742459850907325
1783244252924931600,2.284931640625,0.09894026670157909,0.008261778519302605,0.052120355598628515
1783244252934942700,2.294942626953125,0.05698971520066261,-0.0178736564733088,0.04730243392288685
1783244252944954600,2.30495458984375,-0.00016775778234004974,0.00793809952288866,0.0726315209686756
1783244252954965500,2.314965576171875,-0.06508300528526306,0.0317595584847033,0.07877440763786435
1783244252964977700,2.324977783203125,-0.11960194645822048,-0.028267478585243224,0.064499360178411
1783244252974988800,2.33498876953125,-0.1500438464730978,-0.08215031381174921,0.009238368466496467
1783244252984999700,2.344999755859375,-0.15882161169052122,-0.07918810300529003,-0.010275748690217733
1783244252995011600,2.355011474609375,-0.19579963547587392,-0.08272796756923198,-0.04557020330280065
1783244253005022500,2.3650224609375,-0.19702362431287765,-0.06823766992390155,-0.09115209704339504
1783244253015034600,2.37503466796875,-0.20493220548033714,-0.0818153827689588,-0.09693404144570231
1783244253025045800,2.385045654296875,-0.2145756476163864,-0.0503400480531156,-0.07983633778095245
1783244253035056600,2.395056640625,-0.20839783576428889,-0.016144786854088305,-0.0744704268336296
1783244253045068800,2.40506884765625,-0.19615560930669307,-0.05233312156647443,-0.07389160403236747
1783244253055079700,2.41507958984375,-0.15205810890495777,-0.04482829889431596,-0.06435337583646178
1783244253065091600,2.425091552734375,-0.09007657676637172,-0.006112783791869879,-0.0034632921963930127
1783244253075102500,2.4351025390625,0.015624270111322402,-0.042971126720309255,-0.0011903788283467293
1783244253085113600,2.445113525390625,0.10371464149653911,-0.08305646887123584,-0.011647329304367304
1783244253095125800,2.455125732421875,0.1436345639526844,-0.07236366381272673,0.009046353025734423
1783244253105136600,2.46513671875,0.14116612801253794,-0.061834378752857445,-0.0007272913612425327
1783244253115147500,2.4751474609375,0.09493862984478472,-0.053272302112728355,-0.008139321183413267
1783244253125159700,2.48515966796875,-0.013472645035386085,-0.05109466581270099,-0.002920271360874176
1783244253135170800,2.4951708984375,-0.09861059635579586,-0.010021335537731647,0.016348931124061345
1783244253145182700,2.5051826171875,-0.14027590117454528,0.006741729345172643,-0.026258915241807696
1783244253155193600,2.515193603515625,-0.15783961491584778,-0.048580783295631404,-0.06343991425335407
1783244253165204500,2.52520458984375,-0.13379355341792107,-0.05623889683336019,-0.06579261485934257
1783244253175216600,2.535216552734375,-0.10034019662737846,-0.03994797950685024,-0.05424889205992221
1783244253185227500,2.5452275390625,-0.06662263594269752,-0.033905484472215176,-0.04121040065810084
1783244253195239400,2.555239501953125,-0.022324060010910033,-0.027666882343590257,0.002579056707769632
1783244253205250800,2.565250732421875,-0.005993687456846237,0.005577654001861811,0.02882482020705938
1783244253215261700,2.57526171875,0.002139350116252899,0.03240209417194128,0.01392594176083803
1783244253225273600,2.585273681640625,-0.033442835396528245,0.01833601328805089,-0.011874123797565698
1783244253235284500,2.595284423828125,-0.07019406468868256,0.022566344334185123,-0.039458442424237725
1783244253245296600,2.605296630859375,-0.08008826671540736,0.029698680432140825,-0.06346767904311418
1783244253255307800,2.615307861328125,-0.08184007881879805,0.05425839054062962,-0.07606485641822218
1783244253265318700,2.625318603515625,-0.05180675960481167,0.08054726252928376,-0.06731339468583464
1783244253275330600,2.63533056640625,0.0061608607172966,0.1081593459457159,-0.05713555341213941
1783244253285341700,2.645341796875,0.07288111181557178,0.11183569637089967,-0.049447336997091765
1783244253295352600,2.6553525390625,0.1139449436098337,0.09092018798366189,-0.03878068929314613
1783244253305364700,2.66536474609375,0.09188158036172389,0.052213440709561104,-0.022651684530079364
1783244253315375600,2.675375732421875,0.06399053387343884,0.09014248160943389,0.014656886383891106
1783244253325387800,2.6853876953125,-0.019880173990130423,0.11502601684480905,0.04600406467542052
1783244253335398700,2.695398681640625,-0.08876023347079753,0.13066314643770455,0.01830766397640109
1783244253345409500,2.705409423828125,-0.09460077619254588,0.10377630855590105,-0.025348230137676
1783244253355421400,2.71542138671875,-0.08717910175919533,0.08040931536331772,-0.06946545815318822
1783244253365432800,2.725432861328125,-0.06226151812374591,0.03508578029796481,-0.06733093034252524
1783244253375444700,2.73544482421875,-0.026636662513017655,0.03830985691100359,-0.05001110835969448
1783244253385455600,2.74545556640625,-0.017164485290646552,0.028317016815394162,-0.0009438567213714122
1783244253395466500,2.755466552734375,-0.05656067613363266,0.048215749375522136,0.05095306538492441
1783244253405478700,2.765478759765625,-0.04887596684992313,0.08246931663304567,0.08740721142664551
1783244253415489800,2.77548974609375,-0.08517477619946003,0.07241188686862587,0.09567951133996248
1783244253425501700,2.785501708984375,-0.11013678349852561,0.036717180892080065,0.06981003380715847
1783244253435512600,2.7955126953125,-0.11638707606494426,-0.006658581106364726,0.07550283862128854
1783244253445523700,2.805523681640625,-0.050505029356479644,0.034498481929302216,0.0934849239051342
1783244253455535600,2.81553564453125,0.018919220003485678,0.05609262023046612,0.07729688243120908
1783244253465546500,2.82554638671875,0.1637812799245119,0.034315672708302734,0.04166296673119068
1783244253475558700,2.83555859375,0.250142051038146,0.04695975796505809,0.050783115645498034
1783244253485569800,2.84556982421875,0.26164427278339863,0.09431041494384407,0.06417933444380759
1783244253495580700,2.85558056640625,0.26511808637380596,0.07233049219548701,0.04964695122241974
1783244253505592600,2.865592529296875,0.1867775401085615,-0.02206102516055107,0.0384692852564156
1783244253515603500,2.875603515625,0.10945640001893042,-0.11100304493904113,0.05082973126620054
1783244253525614800,2.88561474609375,0.027370822006464002,-0.09857026434540749,0.08488748369067907
1783244253535626800,2.895626708984375,-0.10146072508990764,-0.06109715051949024,0.09882175488844513
1783244253545637600,2.9056376953125,-0.1563835708886385,-0.03877016789913177,0.06634352674037218
1783244253555649800,2.91564990234375,-0.14801029481887817,-0.02814925903305411,0.0037568683154880996
1783244253565660700,2.92566064453125,-0.15558219137787818,-0.03511515252292156,-0.07867313922047614
1783244253575671600,2.935671630859375,-0.16709844164848325,-0.031013708553463217,-0.1189310614593327
1783244253585683700,2.94568359375,-0.18171733410954474,-0.006217120949178934,-0.13271262631341815
1783244253595694600,2.955694580078125,-0.1765390546888113,-0.00008051789030432701,-0.15352511271759867
1783244253605706800,2.965706787109375,-0.18627075963020323,-0.03991612306386232,-0.11768442239910364
1783244253615717600,2.975717529296875,-0.17731646880209445,-0.02257248181402683,-0.07077054940238595
1783244253625728500,2.985728515625,-0.16361819831728935,-0.014467062900215386,-0.06914923181086778
1783244253635744500,2.99574462890625,-0.11555997759103774,-0.012241934196650981,-0.0924284005895257
1783244253645755600,3.005755615234375,-0.07252163085341454,-0.0062032385542988774,-0.10416603852584957
1783244253655767600,3.015767578125,-0.059094578525424,-0.04688011685758829,-0.09313596433699131
1783244253665778400,3.0257783203125,-0.0452478394806385,-0.02524637719839811,-0.07876578593999146
1783244253675789600,3.03578955078125,-0.02012041248679161,0.003790186063200235,-0.07557911872789264
1783244253685801500,3.045801513671875,-0.027902736926078794,0.02855740144252777,-0.06199439162015914
1783244253695812400,3.055812255859375,-0.0152495915800333,0.058370794295519585,-0.06159224056005477
1783244253705824500,3.065824462890625,0.0020768062740564347,0.04183817716762423,-0.06821765004917979
1783244253715835600,3.075835693359375,0.010776245558261871,0.004518938729166984,-0.07073752391561866
1783244253725846500,3.085846435546875,0.04126081567108631,-0.0396500194735825,-0.026139818906784056
1783244253735858400,3.0958583984375,0.043134208327531814,-0.05977116261273622,0.02858253588378429
1783244253745869300,3.105869384765625,0.08305471530556678,-0.05095467282012105,0.06483268378600478
1783244253755880700,3.115880615234375,0.08607610895335674,-0.019071634086221454,0.0742044693738222
1783244253765892600,3.125892578125,0.08406360008716583,-0.020065613559633492,0.026265198852121828
1783244253775903500,3.135903564453125,0.0523760839253664,-0.047794162962585686,0.006717179425805807
1783244253785915600,3.14591552734375,-0.0311965177744627,-0.07133578206971287,0.009272416866570711
1783244253795926500,3.155926513671875,-0.10216565848886966,-0.059211921294778584,0.02785875165387988
1783244253805937400,3.1659375,-0.12353636329770087,-0.04670227607265114,0.04005684670880437
1783244253815949600,3.175949462890625,-0.22691724279522896,-0.05744812649264931,0.043740211396664376
1783244253825960400,3.18596044921875,-0.29136136565506454,-0.05789017117172479,0.030447891364246606
1783244253835972600,3.19597265625,-0.2788923447042703,-0.007095949610322713,-0.0008821896620094775
1783244253845983500,3.2059833984375,-0.1913087537974119,0.007033990290015935,-0.06624430414959788
1783244253855994400,3.215994384765625,-0.06371814667284488,-0.012611352030932903,-0.09749532859027385
1783244253866006500,3.226006591796875,0.01790215191543102,-0.024040946931391954,-0.13458484992608427
1783244253876017700,3.236017578125,0.08495265788137912,-0.029107144279778,-0.14864099393785
1783244253886029600,3.246029541015625,0.16069500434696674,-0.01621712143793702,-0.12179857971966265
1783244253896040400,3.25604052734375,0.13237433426976203,-0.002159662251919508,-0.09433467260226606
1783244253906051300,3.26605126953125,0.04821428807079792,0.036514497926831244,-0.02064341344758868
1783244253916063500,3.2760634765625,0.007893968120217323,0.07365779527649283,0.011379326017946004
1783244253926074600,3.28607470703125,-0.0324643457531929,0.07845935033932327,-0.02296221178397536
1783244253936086500,3.29608642578125,-0.027039982616901395,0.04265022420287132,-0.07802315087914466
1783244253946097700,3.30609765625,-0.06145896956920623,0.03707812315896153,-0.09537775191441178
1783244253956108500,3.316108642578125,-0.07243044543862343,0.056324967681616545,-0.08350318972542882
1783244253966120400,3.326120361328125,-0.04619242685437202,0.06588643062263727,-0.07444003169536591
1783244253976131300,3.33613134765625,0.03071194912791252,0.05751710007563233,-0.07750716418102384
1783244253986143500,3.3461435546875,0.07827157268226147,0.03433320836499333,-0.07413520352989435
1783244253996154600,3.356154541015625,0.07786006927192211,0.023512977534532544,-0.08313830193579197
1783244254006165500,3.36616552734375,0.05176759663820266,0.0270224469602108,-0.0827490103572607
1783244254016177400,3.376177490234375,-0.023563246417045592,-0.002685585822165012,-0.0953657692156732
1783244254026188500,3.3861884765625,-0.13586568351686001,-0.03557867838144302,-0.06528524985909462
1783244254036199700,3.39619970703125,-0.23636311653256414,0.021957126394659278,0.028385113615542648
1783244254046211600,3.406211669921875,-0.30486382130682466,0.0493868389815092,0.07780366290956735
1783244254056222500,3.416222412109375,-0.23828853163719177,0.03520151563212275,0.07775967763736844
1783244254066234600,3.426234619140625,-0.09951368267536163,-0.012543109100311993,0.06105374976918101
1783244254076245500,3.43624560546875,-0.02425882746577263,-0.023339959055185315,0.04687514842152595
1783244254086256400,3.44625634765625,0.02232464453279972,0.00023410101681947706,0.02820595765635371
1783244254096268300,3.456268310546875,0.08382686872184276,0.015603957975655794,0.03720744862705469
1783244254106279700,3.46627978515625,0.13158639876246453,0.03458119177669287,0.055428895624727005
1783244254116291600,3.47629150390625,0.114002226755023,0.05097819982618093,0.1041102166853845
1783244254126302500,3.486302490234375,0.11435878510773181,0.060373658550530666,0.10686550674289465
1783244254136313300,3.496313232421875,0.14126549673378466,0.0891812353618443,0.06412570456042885
1783244254146325500,3.506325439453125,0.19433365457653998,0.05956541090756654,-0.008385112638026476
1783244254156336600,3.516336669921875,0.2576367907077074,0.009275485606491565,-0.047274815263599154
1783244254166348500,3.5263486328125,0.21348902142345905,-0.039498628304153675,-0.031226474521309135
1783244254176359400,3.536359375,0.13791209465265272,-0.042906390921026466,-0.005634644886106252
1783244254186370600,3.54637060546875,0.030339608684182166,-0.0002120353154838085,0.05243453611433506
1783244254196382500,3.556382568359375,-0.0847188491255045,-0.0032400048345327375,0.11065320858806371
1783244254206393600,3.5663935546875,-0.21258593510389326,0.00854001093879342,0.12116890351399778
1783244254216405500,3.576405517578125,-0.3380804467320442,0.014838964952528476,0.0738777216374874
1783244254226416600,3.586416748046875,-0.39970834312736986,0.03377250574231148,-0.01930573510304093
1783244254236427500,3.596427490234375,-0.3549959256976843,0.015246230579167604,-0.11393895226046442
1783244254246439400,3.606439453125,-0.26000351983904835,-0.02983472790196538,-0.16570786407291888
1783244254256450300,3.6164501953125,-0.16166004998683928,-0.034858401282876726,-0.18692527801617978
1783244254266461700,3.626461669921875,-0.11414952627122402,0.0007727379381656646,-0.1341780226908624
1783244254276473600,3.6364736328125,-0.0638438188791275,0.02000599232688546,-0.07570391415134071
1783244254286484500,3.646484375,-0.026646599385142324,0.012041881579905747,-0.038566462020575995
1783244254296496600,3.65649658203125,0.006469488275051116,0.030527970863133667,-0.027045973966270682
1783244254306507500,3.666507568359375,-0.029290976414084433,0.030733868698775767,-0.04025134636759758
1783244254316518700,3.6765185546875,-0.06494973429441452,0.01234481004923582,-0.057887102431803936
1783244254326530600,3.686530517578125,-0.043487844070792196,-0.023080577466636894,-0.04395283123403787
1783244254336541400,3.69654150390625,-0.012342179700732231,0.007949059308320284,0.010352613318711519
1783244254346553600,3.7065537109375,0.0109492640376091,0.04277268153876066,0.03703340723440051
1783244254356564500,3.716564453125,0.06857493905425072,0.03710793377533555,0.042889878177642816
1783244254366575400,3.726575439453125,0.14521978731751442,-0.0232480429880321,0.03329977366402745
1783244254376587500,3.73658740234375,0.1651718575000763,-0.0351350262671709,0.017084259661287068
1783244254386598700,3.7465986328125,0.1484884337246418,0.0011159984178841114,0.04324453683421015
1783244254396610600,3.756610595703125,0.09684943190217017,-0.004815437457710505,0.05853533720746636
1783244254406621400,3.766621337890625,0.03961012585461139,-0.04858268299177289,0.055274874106794596
1783244254416632300,3.77663232421875,-0.07115384963154793,-0.08291881396621466,0.06164733174815774
1783244254426644500,3.78664453125,-0.1286678809672594,-0.05769815573096275,0.05033683318272233
1783244254436655600,3.796655517578125,-0.20444412970244882,-0.012467559646070003,0.02224544181674719
1783244254446667500,3.80666748046875,-0.23192484182417392,0.014784019894897938,-0.02497647421583533
1783244254456678700,3.8166787109375,-0.19523264924287795,-0.00023088614642620086,-0.06055252224877476
1783244254466689500,3.826689453125,-0.18321955536603926,0.027765082021057604,-0.0887653480373323
1783244254476701400,3.836701416015625,-0.14051847775876522,0.03327697731032967,-0.09635302668735385
1783244254486712600,3.846712646484375,-0.08429273266792296,0.02628214998692274,-0.0920740341939032
1783244254496724500,3.856724365234375,0.0017997428983449935,0.011273527555912733,-0.0558582269527018
1783244254506735600,3.866735595703125,0.015596797582507132,0.011271627859771252,-0.04587123207598924
1783244254516746500,3.87674658203125,0.04084931226074695,0.01791530365794897,-0.03203603733852505
1783244254526758400,3.88675830078125,0.04241524640321731,0.008077654124051332,-0.018200842601060866
1783244254536769500,3.89676953125,0.035838206100463864,0.01810264292359352,-0.00954392728433013
1783244254546781400,3.906781494140625,0.028487843337655066,0.01645589862987399,-0.039273441246151924
1783244254556792600,3.91679248046875,0.005369418078660965,0.01355564714372158,-0.06258446646779775
1783244254566803500,3.926803466796875,-0.0282423441439867,0.03592632277533412,-0.04948562318086624
1783244254576815600,3.936815673828125,-0.03749824826717377,0.03832286252304912,-0.03496697622388601
1783244254586826500,3.946826416015625,-0.006620879444479942,0.027794600376486775,-0.05461173402294516
1783244254596838400,3.95683837890625,0.011287117689847945,0.016164660598337648,-0.0472204547278583
1783244254606849500,3.966849609375,0.020400398471951485,-0.006905249343812465,-0.028524960477650164
1783244254616860700,3.976860595703125,0.028068741142749785,-0.032212855210155246,-0.023338059359043834
1783244254626872600,3.98687255859375,0.03720949445366859,-0.00566284806728363,0.020657880364358425
1783244254636879000,3.996879150390625,-0.02132686566710472,0.012449439467489718,0.03790186063200235
1783244254646891300,4.006891357421875,-0.061408700686693185,-0.014578852711617945,0.009287614435702562
1783244254656902400,4.01690234375,-0.06713876877129077,-0.015802987679094074,0.010537760627269745
1783244254666913300,4.026913330078125,-0.12044015084803103,0.02425911972671747,0.006066022040694952
1783244254676925200,4.03692529296875,-0.11269640485346316,0.009553718025982379,0.029766923362761735
1783244254686936300,4.046936279296875,-0.047348611152172086,0.02583732882887125,0.03354527285769582
1783244254696948200,4.0569482421875,-0.01648877798616886,0.014868483307957649,0.010435907687991857
1783244254706959400,4.06695947265625,0.034946225696802134,-0.043808454327285286,-0.013650193559378385
1783244254716970200,4.07697021484375,0.0170925890982151,-0.09343728537112474,-0.018152181153744458
1783244254726982400,4.086982421875,-0.022435119169950484,-0.08466258889362216,0.03436243445947766
1783244254736993300,4.0969931640625,-0.09338263257443905,-0.06491773172095418,0.07608516855388879
1783244254747005200,4.107005126953125,-0.17385785278081892,-0.05732946854904294,0.11642112446501851
1783244254757016000,4.11701611328125,-0.1898579704672098,-0.051277328903228045,0.08697320392355322
1783244254767027500,4.12702734375,-0.16722645194232463,-0.057834203200787304,0.03251081524342298
1783244254777039400,4.137039306640625,-0.13020283544957637,-0.06539689354002476,-0.025709026274085042
1783244254787050200,4.14705029296875,-0.08744447469711303,-0.05152502005398273,-0.04323328478783369
1783244254797062100,4.157062255859375,-0.06985445747077465,-0.039165304696559905,-0.024241145678609608
1783244254807073300,4.1670732421875,-0.07533435018658638,-0.04643792604804039,0.01863163523375988
1783244254817084400,4.17708447265625,-0.03201835555136204,-0.0411500487729907,0.06307955650836229
1783244254827096300,4.187096435546875,0.021909633991122245,-0.021466566398739815,0.11464739279076457
1783244254837107200,4.197107177734375,0.07738719106316566,-0.005655103152245283,0.10128741434961556
1783244254847119400,4.207119384765625,0.13712649723291395,-0.04928045599758625,0.06978475323542953
1783244254857130200,4.217130126953125,0.18305881184637546,-0.06344327525421976,0.044446313839405775
1783244254867141000,4.22714111328125,0.19804186144471167,-0.033602702133357525,0.019353227506577968
1783244254877153300,4.2371533203125,0.16814064417779445,-0.020621055485308168,-0.01923179308399558
1783244254887164400,4.247164306640625,0.09476093519032001,-0.04166501255780458,-0.0257991887755692
1783244254897176300,4.25717626953125,0.005844634374976158,-0.02243482690900564,-0.00202580673918128
1783244254907187200,4.267187255859375,-0.09770400290489197,0.0017979893326759337,0.018903876303881406
1783244254917198000,4.277197998046875,-0.1804120967298746,0.035929391515254976,-0.010336685097217559
1783244254927210200,4.287210205078125,-0.25771277855336666,0.030591683749109505,-0.05515504711940884
1783244254937221400,4.297221435546875,-0.24194354701340198,0.02004413238018751,-0.1445385270550847
1783244254947233300,4.3072333984375,-0.20117022259831427,0.04242532940581441,-0.23077216465771197
1783244254957244200,4.317244140625,-0.1831879911839962,0.06320669001936913,-0.23893194410726426
1783244254967255300,4.32725537109375,-0.16865502344071864,0.09098770026192068,-0.25475670522674915
1783244254977267200,4.33726708984375,-0.1335346102207899,0.11043386674895882,-0.22592150975614786
1783244254987278300,4.3472783203125,-0.09327332698106765,0.11037731425613165,-0.17083631300255656
1783244254997290500,4.35729052734375,-0.047539165288209916,0.08386588555797934,-0.12902020153626798
1783244255007301400,4.36730126953125,0.0065974985688924785,0.08197846437618136,-0.12732216544672845
1783244255017312300,4.377312255859375,0.05799158571958542,0.09243219998180865,-0.09733794607147574
1783244255027324200,4.38732421875,0.10711129819750785,0.11121025794893502,-0.0525077474810183
1783244255037335000,4.3973349609375,0.11818623444139957,0.05827405592277646,-0.04618526646122336
1783244255047347200,4.40734716796875,0.14124270038008688,0.007511690804362297,-0.011499299135804176
1783244255057358300,4.4173583984375,0.1303629944473505,0.007639993359148502,0.04088233774751424
1783244255067369200,4.427369140625,0.0828887110888958,0.03042874827235937,0.04477349996715784
1783244255077381400,4.43738134765625,0.007622749963402748,0.02455664136856794,0.05646276871711015
1783244255087392300,4.447392333984375,-0.04441898744106292,0.009566577507555483,0.06648571169003843
1783244255097404200,4.457404052734375,-0.06409925494492054,-0.027328590299934147,0.0637317368067801
1783244255107415300,4.467415283203125,-0.07204056933820248,-0.05686082812398672,0.08699234701544045
1783244255117426200,4.47742626953125,-0.0380108739644289,-0.055201078218221664,0.13456833718270061
1783244255127438300,4.487438232421875,-0.013451017725467682,-0.06721037270277738,0.15916896382346749
1783244255137449200,4.49744921875,0.01485094765126705,-0.08604717511981726,0.16173004648312925
1783244255147461000,4.507461181640625,0.055549453264474864,-0.08571253633797168,0.15931377912163733
1783244255157472300,4.51747216796875,0.05271978279650211,-0.08159311832040547,0.15589213410988448
1783244255167483400,4.5274833984375,0.006589899784326553,-0.06755787096619606,0.12745645935088395
1783244255177495300,4.537495361328125,-0.07136427751183509,-0.05981339431926608,0.11972250409796834
1783244255187506200,4.547506103515625,-0.12548399023413656,-0.05967267067432403,0.08276143144741654
1783244255197518300,4.557518310546875,-0.14924538957178593,-0.038517946703732014,0.07588102428391576
1783244255207529200,4.567529296875,-0.16595394778847694,-0.01767228868231177,0.034745588558167215
1783244255217540400,4.577540283203125,-0.14727613532543182,-0.016154577595740557,-0.006326572673022747
1783244255227552300,4.58755224609375,-0.08855915794074534,0.008747223948687315,-0.03029737697765231
1783244255237563400,4.5975634765625,-0.010339023184776306,0.019961130271852014,-0.07736424857899546
1783244255247575300,4.6075751953125,0.04948913031220436,0.029115473716706034,-0.12320654682144522
1783244255257586200,4.617586181640625,0.07444646143615245,0.060521396458148954,-0.13081249178051949
1783244255267597300,4.627597412109375,0.09625088148713111,0.10828691784814,-0.12253171629980206
1783244255277609500,4.637609375,0.10780571020245551,0.12357991017848252,-0.1309144908502698
1783244255287620400,4.647620361328125,0.09736556473076342,0.11408712855949997,-0.13596855936944485
1783244255297632300,4.65763232421875,0.085829440715909,0.1100887065730989,-0.10878566115051508
1783244255307643100,4.66764306640625,0.08786123880445956,0.0695328243009746,-0.06080401279181242
1783244255317654300,4.677654296875,0.028611177456378936,0.0452687361381948,-0.07712167199477553
1783244255327666200,4.687666259765625,-0.07298281862437725,0.055343555428832764,-0.04503536577373743
1783244255337677300,4.69767724609375,-0.1002946039199829,0.11934738717526197,-0.032645985930413006
1783244255347689200,4.707689208984375,-0.12488836242854594,0.1335892630174756,-0.023835779748111963
1783244255357700400,4.717700439453125,-0.14220365436673163,0.06668444913253188,-0.048710985546559095
1783244255367711200,4.727711181640625,-0.15336042367517946,0.04131576072871685,-0.06629267333596944
1783244255377723100,4.73772314453125,-0.111126379057765,0.06855638048425317,-0.06334843657761811
1783244255387734300,4.747734375,-0.05991290917098522,0.07337780929133296,-0.061049950376898046
1783244255397746400,4.757746337890625,0.03836684779524803,0.07768602787926793,-0.06434796900898218
1783244255407757300,4.76775732421875,0.12891338016092777,0.0642826486878097,-0.04716244093030691
1783244255417768200,4.777768310546875,0.11708733328878879,0.017840046464651822,-0.05055573663040995
1783244255427780000,4.787780029296875,0.10928455058336257,-0.033648294840753074,0.008932078996300696
1783244255437791200,4.797791259765625,0.056038698086142535,-0.042475013766437766,0.07885434100627899
1783244255447803100,4.80780322265625,0.005402151304483413,-0.04830839609503746,0.13481938933432103
1783244255457814300,4.817814208984375,-0.06254793384969234,-0.05461567954570055,0.15027297905385492
1783244255467825200,4.8278251953125,-0.16107377453148364,-0.07656681459099055,0.10649082821160555
1783244255477837300,4.83783740234375,-0.20099603507518768,-0.07477233238965272,0.04843173021376133
1783244255487848200,4.84784814453125,-0.212127669942379,-0.06759425745382905,0.03316080358475446
1783244255497860000,4.857860107421875,-0.1960492263227701,-0.0844799258030951,0.03259323282986879
1783244255507871200,4.867871337890625,-0.13830430884063244,-0.09011910073384642,0.06989230526313185
1783244255517882400,4.87788232421875,-0.08172960418164729,-0.07740531124174595,0.10717515721395611
1783244255527894300,4.887894287109375,-0.02850596351623535,-0.06280395443737506,0.10238923811167477
1783244255537905200,4.8979052734375,0.03601473171114921,-0.04497062997445464,0.1031488243073225
1783244255547917300,4.907917236328125,0.11996727263927459,-0.029502719468623397,0.08720043680816889
1783244255557928400,4.917928466796875,0.18738602739572524,-0.06265577813833952,0.06647855129688977
1783244255567939300,4.927939208984375,0.22402327491939067,-0.08422726621627807,0.07070011451467871
1783244255577951200,4.937951171875,0.19929799898564815,-0.09083075613453984,0.06732917677685618
1783244255587962000,4.947962158203125,0.11860124498307704,-0.09264876534193754,0.08430076984390616
1783244255597974300,4.957974365234375,0.01489712488055229,-0.08816475179567933,0.08249284363910556
1783244255607985200,4.967985107421875,-0.0686930124759674,-0.06506970741227269,0.07375920982435345
1783244255617996300,4.977996337890625,-0.12948621161282062,-0.005702011033892631,0.03985635570064187
1783244255628008400,4.988008544921875,-0.20357611469626424,0.021581278819590807,-0.041066900534182785
1783244255638019300,4.998019287109375,-0.2444172436505556,0.05546645115613937,-0.08012757581248879
1783244255648031200,5.00803125,-0.2446089668303728,0.04632511332333088,-0.13759119213521478
1783244255658042000,5.0180419921875,-0.1879454148441553,0.03516644431874156,-0.136293699670583
1783244255668054300,5.02805419921875,-0.14968670359849928,0.0553397560365498,-0.1444001414977014
1783244255678065400,5.0380654296875,-0.07126490879058837,0.08061696676462889,-0.14405673488751053
1783244255688076300,5.048076171875,0.030317396852374074,0.05418517917394638,-0.13465280059576035
1783244255698088200,5.058088134765625,0.08162029858827591,0.057382367780059576,-0.11727321124970912
1783244255708099300,5.068099365234375,0.1143289744913578,0.07657382885366677,-0.08839213081076741
1783244255718111200,5.078111328125,0.11752630922794341,0.11342106586620211,-0.0728792121194303
1783244255728122000,5.0881220703125,0.10016191745102405,0.140323978099972,-0.057741410350799556
1783244255738133200,5.09813330078125,0.02671440392434597,0.11341054447218775,-0.08746054904907942
1783244255748145400,5.1081455078125,-0.021312252619862554,0.06869914995580911,-0.017423866879194973
1783244255758156300,5.11815625,-0.05956394960284233,0.06713701520562172,0.06019391806945204
1783244255768168200,5.128168212890625,-0.10223404754996299,0.05427548780590295,0.1077522264495492
1783244255778179000,5.138178955078125,-0.10382277804613113,0.016356529908627272,0.07814327012747525
1783244255788190500,5.1481904296875,-0.08864099100530147,-0.015984920117259025,0.06525821572169661
1783244255798202400,5.158202392578125,-0.07966331930160522,-0.011453852558881044,0.033222178383171555
1783244255808213200,5.168213134765625,-0.1332517016261816,-0.03883008139282465,-0.021925708343088626
1783244255818225400,5.178225341796875,-0.15169453628957272,-0.011270312685519457,0.00821589355096221
1783244255828236300,5.188236328125,-0.14600304664969443,0.016208499740064143,0.028916590143740175
1783244255838247400,5.198247314453125,-0.1517781229197979,0.021429156997799872,-0.0033066403299570083
1783244255848259300,5.20825927734375,-0.08610065887272357,-0.028409517404437062,-0.008173954105377197
1783244255858270200,5.218270263671875,-0.010557634371519088,-0.06520517036020755,0.024507979921251533
1783244255868282400,5.228282470703125,0.004344166684150695,-0.0409684085957706,0.06827215671539306
1783244255878293200,5.238293212890625,-0.009310849180817603,-0.06434080861583352,0.09880655731931329
1783244255888304000,5.24830419921875,-0.025740005934238433,-0.06020590076819062,0.1332936410717666
1783244255898316300,5.25831640625,-0.0911626184374094,-0.041830286122113466,0.1232151685193181
1783244255908327400,5.268327392578125,-0.14703180517554282,-0.002398293313384056,0.07971388044506311
1783244255918339300,5.27833935546875,-0.17059037541747094,-0.00016366612911224363,0.020362550679594277
1783244255928350200,5.28835009765625,-0.1571972253590822,0.002826017206162214,-0.07548764105215668
1783244255938361000,5.298361083984375,-0.12361468923091888,0.04544277753084898,-0.13593144222944975
1783244255948373200,5.308373291015625,-0.07386720024347306,0.09792524444013834,-0.14003186328560113
1783244255958384400,5.31838427734375,-0.03308510800004005,0.12559212678372858,-0.15465908518359064
1783244255968396300,5.328396240234375,-0.005848726028203964,0.1012815691307187,-0.1272178282894194
1783244255978407400,5.338407470703125,0.030340777727961538,0.11145078870654106,-0.08726707230359315
1783244255988418300,5.348418212890625,0.040459436160326004,0.10875921153500676,-0.04072100970596075
1783244255998430200,5.35843017578125,0.01626782871186733,0.11388517624661326,-0.025402152281999588
1783244256008441000,5.368441162109375,0.001064998883008957,0.13360431445613502,-0.03186141142398119
1783244256018453200,5.378453369140625,-0.03172551008462906,0.1405474115923047,-0.07801423692032694
1783244256028464400,5.38846435546875,-0.053669046345353126,0.148550539175421,-0.1197000000052154
1783244256038475300,5.398475341796875,-0.06145721600353717,0.14578501998484134,-0.13059344220235944
1783244256048487200,5.408487060546875,-0.040248423758149146,0.14439225045219062,-0.11691226898282765
1783244256058498300,5.418498291015625,-0.027534488135576247,0.13861556674689055,-0.07705693619549274
1783244256068510200,5.42851025390625,0.02182312475144863,0.09656856913417577,-0.045747897957265374
1783244256078521300,5.438521240234375,0.05970248129069805,0.054625178026407956,0.0016894143916666507
1783244256088533200,5.448533203125,0.050019876188039776,0.034669600712507964,0.028246289666742086
1783244256098544400,5.45854443359375,-0.017407061874866486,0.007402239080518484,0.04987900641262531
1783244256108555300,5.46855517578125,-0.07781623013019562,-0.035117490610480306,0.04764861701205372
1783244256118567200,5.478567138671875,-0.16986849088370798,-0.031157939329743384,0.11432283701151609
1783244256128578300,5.488578369140625,-0.23186580511331556,0.0025961539730429647,0.15054507399350403
1783244256138590200,5.498590087890625,-0.23051439050436018,0.037978725260496136,0.13240399875566364
1783244256148601300,5.508601318359375,-0.16571604737937448,0.03837327753603458,0.07170271568596363
1783244256158612200,5.5186123046875,-0.07708090159296989,0.0016577040791511534,-0.016519465385377408
1783244256168624000,5.5286240234375,-0.006492284628748893,-0.004205634996294975,-0.05855214221179485
1783244256178635300,5.53863525390625,0.0630377631932497,0.026539339618384835,-0.04862286887168884
1783244256188647200,5.548647216796875,0.08560615335404873,0.01572626918107271,0.01831555502191186
1783244256198658300,5.558658203125,0.09957038129866122,0.02964052050411701,0.07788476532176136
1783244256208669200,5.568669189453125,0.12059329558312892,0.035034196241199966,0.10237754767388105
1783244256218681300,5.578681396484375,0.10418518161773681,0.020141455274820325,0.09175254715457558
1783244256228692200,5.588692138671875,0.1163286238759756,0.02979045036882162,0.03193827605247497
1783244256238704000,5.5987041015625,0.14256839602589608,0.03848506734743714,0.007126052487641573
1783244256248715300,5.60871533203125,0.13675941748619078,0.008555646899342536,-0.04922404963523149
1783244256258726400,5.618726318359375,0.13397650876939296,-0.01749517854973674,-0.05053118671104312
1783244256268738300,5.62873828125,0.09910802448391914,-0.018533435556292534,-0.04661050613597035
1783244256278749200,5.638749267578125,0.030815994024276733,-0.0036463936783373355,0.01167538635507226
1783244256288761300,5.64876123046875,-0.08622808464467525,0.026421266196668146,0.057360594339668745
1783244256298772200,5.658772216796875,-0.1637637442678213,0.00783683110550046,0.06023176586180925
1783244256308784000,5.6687841796875,-0.2224012266755104,-0.01528860841616988,0.02370601588860154
1783244256318795300,5.678795166015625,-0.252872352784872,0.0016863456517457961,-0.036237580681592226
1783244256328806100,5.68880615234375,-0.25290099435746666,0.006579670651257038,-0.08859349860176444
1783244256338818300,5.698818359375,-0.23183131832182405,0.016129589284956454,-0.14589169522970913
1783244256348829200,5.7088291015625,-0.1842372079759836,0.02211085565164685,-0.1660090389765799
1783244256358841000,5.718841064453125,-0.12547697597146035,0.014727029010653495,-0.16171104952171445
1783244256368852500,5.7288525390625,-0.055607320931553836,0.02080050370544195,-0.12155132696032524
1783244256378863400,5.73886328125,-0.019148937106132507,0.039411388412117956,-0.08618497615531086
1783244256388875300,5.748875244140625,-0.0004962590843439102,0.036158670226484536,-0.020701134984195232
1783244256398886100,5.75888623046875,-0.03324818960726261,0.009379092111438512,0.013654723604023455
1783244256408898300,5.768898193359375,-0.055417935839295385,-0.002732639834284782,0.030739129395782945
1783244256418909200,5.7789091796875,-0.08934943153560161,0.033452626138180494,0.04721884729266167
1783244256428920300,5.78892041015625,-0.10999942085444926,0.007073883908987045,0.05550006116479635
1783244256438932200,5.79893212890625,-0.04316869511902332,-0.013442396027594804,0.03649155544266104
1783244256448943400,5.808943359375,0.002979308071732521,-0.03237564455643296,-0.00012070377022027969
1783244256458955300,5.818955322265625,0.03221417038440704,-0.021661504448950288,-0.001472118379175663
1783244256468966100,5.828966064453125,0.05260287841856479,-0.01951923172324896,0.016784692192822692
1783244256478978000,5.83897802734375,0.020107553005218503,-0.014716507616639136,0.055985506594181056
1783244256488989400,5.848989501953125,0.010985504394769668,-0.02421834932491183,0.07489040581136941
1783244256499000300,5.859000244140625,0.025299860951304435,-0.052877603706717485,0.06550576074197888
1783244256509012200,5.86901220703125,-0.007520458632707595,-0.03536298980414867,0.07222688569054007
1783244256519023000,5.879023193359375,-0.04918634797334671,-0.03667509531602263,0.04887962011173367
1783244256529035300,5.88903515625,-0.025597382593154906,-0.05505260965824127,0.0032874972380697726
1783244256539046400,5.89904638671875,-0.03570025893449783,-0.03439604446813464,-0.029512217949330805
1783244256549057300,5.909057373046875,-0.06424363185167312,-0.012168576699495314,-0.034010990673303605
1783244256559069200,5.919069091796875,-0.06702537152469158,-0.03687237145379185,-0.043188861124217506
1783244256569080300,5.929080322265625,-0.02641980489194393,0.0022637071482837197,-0.04184416851699352
1783244256579092200,5.93909228515625,-0.025308628779649733,0.03859758781120181,-0.07039440956637263
1783244256589103000,5.94910302734375,0.0010825345396995544,0.031928923702239986,-0.09117503952756524
1783244256599114200,5.9591142578125,-0.05414718525111675,-0.017542963214218617,-0.08838774689659476
1783244256609126400,5.96912646484375,-0.08262918336987495,-0.000713555096834898,-0.08138444400578737
1783244256619137300,5.97913720703125,-0.09440788396894931,0.043171763858944175,-0.08345467440858483
1783244256629149200,5.989149169921875,-0.0874158331245184,0.03939180692881346,-0.11916063243150711
1783244256639160600,5.99916064453125,-0.0791542007356882,0.010535130278766154,-0.1526996216788888
1783244256649172500,6.00917236328125,-0.06221066471934318,0.03153261786103249,-0.14971505291014908
1783244256659183600,6.01918359375,-0.015711363872885704,0.04885565471425652,-0.142605805426836
1783244256669194500,6.029194580078125,0.0008884732723236083,0.05975947217494249,-0.11310162465348839
1783244256679206700,6.03920654296875,0.03166413528621197,0.05227174676805734,-0.06926467488408088
1783244256689217500,6.049217529296875,0.08092413301765919,0.056987377113103865,-0.004203150778263807
1783244256699229400,6.0592294921875,0.0508031355202198,0.023201135106384753,-0.005871960773319006
1783244256709240600,6.069240478515625,-0.031149171501398086,-0.007687193501740693,0.011355652881413698
1783244256719251700,6.079251708984375,-0.07604629784822464,-0.005933189441263675,0.018586627048254013
1783244256729263600,6.089263671875,-0.10825286944806575,0.012014116790145635,0.05671966608762741
1783244256739274500,6.0992744140625,-0.15268646993637083,-0.004126432280242443,0.05314326890558004
1783244256749286700,6.10928662109375,-0.11848024895191192,0.011368950754404068,0.05667407338023185
1783244256759297500,6.119297607421875,-0.038544542449712754,0.025522417660802602,0.05588730691671371
1783244256769309400,6.129309326171875,0.04792027356028557,0.01079392734542489,0.017554653652012347
1783244256779320600,6.139320556640625,0.11080138488709926,-0.017124299410730598,-0.011142886913567782
1783244256789331700,6.149331787109375,0.08302256660163403,-0.05394070289358496,0.004433890794217586
1783244256799343600,6.159343505859375,0.027805706292390823,-0.033683073893189426,0.04745163313522935
1783244256809354500,6.1693544921875,-0.05602233147323131,-0.034764731650054455,0.08178454923927783
1783244256819366400,6.179366455078125,-0.1345633687466383,-0.0175273272536695,0.1293051559574902
1783244256829377500,6.18937744140625,-0.16944003633856772,-0.040228403883427376,0.13259557580500841
1783244256839389400,6.199389404296875,-0.16716507714390755,-0.05252133761495351,0.1336728496477008
1783244256849400600,6.209400634765625,-0.09966682741045951,-0.04070522761493921,0.09506897822618483
1783244256859411500,6.219411376953125,-0.020242577561736107,-0.046264323046803474,0.04299363081306219
1783244256869423600,6.229423583984375,0.013455109378695488,-0.05852364676967263,0.03507569729536771
1783244256879434500,6.2394345703125,0.04910919108390808,-0.016984598679095506,0.06624664223715662
1783244256889446400,6.2494462890625,0.06007891338765621,0.009076602033525704,0.08466770346015691
1783244256899457500,6.25945751953125,0.057230538219213485,-0.006584639087319374,0.07626125577315687
1783244256909468700,6.26946875,0.07517126857936382,-0.031206308516114948,0.0568897619575262
1783244256919480600,6.27948046875,0.09025485594272613,-0.018636749800294637,0.02601853061467409
1783244256929491500,6.289491455078125,0.1253138943642378,-0.02524170102328062,-0.0258241770863533
1783244256939503600,6.299503662109375,0.1176835456162691,-0.04281315967962145,-0.0604474544391036
1783244256949514800,6.3095146484375,0.07892623719871043,-0.05789513960778713,-0.04598579836636781
1783244256959526700,6.319526611328125,0.058900517258048055,-0.027374475268274544,-0.02001665985137224
1783244256969537500,6.32953759765625,-0.060760465911030764,-0.018752192873507736,-0.01385565300360322
1783244256979548400,6.33954833984375,-0.17208032171428203,-0.03113119745329022,-0.025889059016108513
1783244256989560600,6.349560546875,-0.23245149604678153,0.011401537849754095,-0.000017974048107862472
1783244256999571500,6.359571533203125,-0.28398879106044767,0.032617636618763206,-0.0031174013681709765
1783244257009583400,6.369583251953125,-0.2701537424534559,0.0009346505016088485,-0.09172916627898811
1783244257019594800,6.3795947265625,-0.20111410849690436,-0.03010214666649699,-0.1776442394517362
1783244257029606700,6.389606689453125,-0.10651567039191723,0.003485504028201103,-0.1912906336188316
1783244257039617500,6.399617431640625,-0.054043724876642225,0.04538637116849422,-0.15539485211223364
1783244257049628400,6.40962841796875,-0.05802373442351818,0.05070215936377644,-0.10861702658534049
1783244257059640600,6.419640625,-0.07071838082373141,0.053501580823957916,-0.05347133181616664
1783244257069651700,6.429651611328125,-0.07802256635725498,0.08017959826067089,-0.023884295064955947
1783244257079663600,6.43966357421875,-0.07870645696818829,0.0662323214508593,-0.028831396078318357
1783244257089674500,6.449674560546875,-0.06850888808071613,0.03233794289454817,-0.06372983711063862
1783244257099686700,6.459686767578125,-0.0020317980885505675,0.04247267567887902,-0.07445479087308049
1783244257109697500,6.469697509765625,0.09761924723088741,0.051691316531598565,-0.07199921441450714
1783244257119708400,6.47970849609375,0.13884206897914408,0.03964943495169282,-0.061708560416102405
1783244257129720600,6.489720458984375,0.1729226177573204,0.03683817692324519,0.0017352993600070477
1783244257139731700,6.499731689453125,0.1759293983578682,0.04405687613040209,0.06036664428785443
1783244257149743600,6.50974365234375,0.11415770957767962,0.015616086804866789,0.11504077602252363
1783244257159754500,6.51975439453125,0.03052197951376438,-0.009372077848762273,0.13257044136375187
1783244257169766700,6.5297666015625,-0.035254853254556656,-0.02744958633109927,0.11774053650051354
1783244257179777500,6.539777587890625,-0.07824176206588744,-0.023719606022536754,0.09884235928505658
1783244257189788700,6.54978857421875,-0.06964636767804622,-0.027602731066197154,0.045615503749251364
1783244257199800600,6.559800537109375,-0.04387888921499252,-0.0474634697034955,0.004697802427411079
1783244257209811500,6.5698115234375,-0.01942541595995426,-0.03567994679883122,-0.010482084917277097
1783244257219823600,6.57982373046875,-0.0028121348112821578,-0.034626784484088416,-0.007252893737703561
1783244257229834500,6.58983447265625,-0.050153147178888316,-0.04365384828746319,0.02298164713680744
1783244257239846400,6.599846435546875,-0.0809323163241148,-0.04632715914994478,0.034886750594526526
1783244257249857800,6.60985791015625,-0.0995323873758316,-0.04894231008440256,0.017694792775064704
1783244257259868700,6.61986865234375,-0.12318565016388892,-0.03339928851574659,0.013040391097962855
1783244257269880600,6.629880615234375,-0.1291471889168024,-0.013551847751438617,0.006895458602160215
1783244257279891500,6.639891357421875,-0.10169161123633384,0.018955314230173825,-0.03329758170694112
1783244257289903600,6.649903564453125,-0.08409691783487797,-0.0059372810944914815,-0.08227890862748026
1783244257299914500,6.65991455078125,-0.03280512201488018,-0.025416326937824488,-0.08469853698983788
1783244257309926400,6.669926513671875,-0.007240472647547722,-0.003465630283951759,-0.05175488328710198
1783244257319937500,6.6799375,0.03394669326543808,0.007894844903051852,-0.0212754277408123
1783244257329948700,6.68994873046875,0.06280746156871318,-0.018839725026488303,-0.02072597716450691
1783244257339960600,6.699960693359375,0.09084989922642707,-0.005922668047249317,-0.04616466206461191
1783244257349971500,6.709971435546875,0.0729150140851736,0.02345832473784685,-0.06732873838543892
1783244257359983400,6.7199833984375,0.031467151409387585,0.02718859730735421,-0.053260757805407045
1783244257369994800,6.729994873046875,-0.0032552024036645887,-0.0080268007196486,-0.0658420069590211
1783244257380006700,6.740006591796875,-0.0723532885491848,0.0057188160382211205,-0.049860593973100185
1783244257390017500,6.750017578125,-0.12221008313000202,0.021601883216202256,-0.021894582552462814
1783244257400028400,6.7600283203125,-0.15100480045974254,0.011091010595858096,-0.03833338391706347
1783244257410040600,6.77004052734375,-0.11740355963110922,-0.003582534661889076,-0.023022271408140657
1783244257420051500,6.780051513671875,-0.09457330366373061,0.013090075458586216,-0.039802579686790705
1783244257430063400,6.7900634765625,-0.08342354861795902,0.016390578308701515,-0.08125818727761507
1783244257440074500,6.800074462890625,-0.03571954815685749,0.017994944765418765,-0.10084580806195735
1783244257450086700,6.810086669921875,0.004497311419248581,0.04983648244515061,-0.08429682432115078
1783244257460097500,6.82009765625,0.05523731857538223,0.05213920642957091,-0.07814575434550643
1783244257470108400,6.8301083984375,0.04151040651798248,0.00906023542061448,-0.07214519875645638
1783244257480120600,6.84012060546875,0.01867372080981731,-0.001119067157804966,-0.0427763348005712
1783244257490131700,6.850131591796875,-0.04205108926594257,0.007248509823530912,-0.021705489721149204
1783244257500143600,6.8601435546875,-0.08848024748563765,0.01490238557755947,0.022159517098963258
1783244257510154500,6.870154541015625,-0.11619184575378894,0.03394917748346925,0.043611908841878176
1783244257520166700,6.880166748046875,-0.08606208042800426,0.019639789362996814,0.024350451271981
1783244257530177500,6.890177490234375,-0.03645663025975227,-0.008102642434835433,-0.0013831249214708804
1783244257540188700,6.900188720703125,0.04306114309132099,-0.007038520334661007,0.013356179048866032
1783244257550200600,6.91020068359375,0.051290042254328726,-0.007481149535626172,-0.03201704037711024
1783244257560211700,6.920211669921875,0.05067512522637844,-0.02815028194636106,-0.022635025656223298
1783244257570223600,6.9302236328125,0.010341945794224738,-0.02337999880462885,0.04269084847420454
1783244257580234500,6.940234375,-0.07361760939657688,0.006264174961298704,0.08889438124448061
1783244257590246400,6.950246337890625,-0.12770692698061464,0.02132934988513589,0.09559387888312339
1783244257600257500,6.960257568359375,-0.13308452836573123,-0.001732669011503458,0.07624941920489073
1783244257610268700,6.9702685546875,-0.051314592173695564,-0.025292554427683352,0.0319154796987772
1783244257620280600,6.980280517578125,0.033225393253564835,-0.03909691563546657,-0.028144290596991774
1783244257630291500,6.99029150390625,0.12136603352129459,-0.06453413923084736,-0.07082257185056805
1783244257640303400,7.000303466796875,0.1362321787416935,-0.07182794950082898,-0.09274828019365668
1783244257650314200,7.010314208984375,0.11557517516016959,-0.057928018964082,-0.04397022076025605
1783244257660326400,7.020326416015625,0.062356795191764826,-0.0005669862329959869,-7.306523621082305e-7
1783244257670337500,7.030337646484375,-0.016946458625793456,-0.007080752041190862,-0.023567922592163084
1783244257680349400,7.040349365234375,-0.09957798008322716,-0.06724661305993795,-0.09558598783761263
1783244257690360300,7.0503603515625,-0.159441204893589,-0.04698182366639375,-0.08411854514479637
1783244257700371500,7.060371337890625,-0.23743980585336683,0.0017050503522157668,-0.023748978247493505
1783244257710383400,7.07038330078125,-0.24888532897531984,0.019128478839993475,-0.03365107131972909
1783244257720394500,7.08039453125,-0.23239772003293035,-0.002306961768120527,-0.12698971862196923
1783244257730406400,7.090406494140625,-0.21896014631092547,-0.002610036367923021,-0.14527590141892432
1783244257740417500,7.10041748046875,-0.1576075597256422,0.04291837361976504,-0.09963307127133011
1783244257750429400,7.110429443359375,-0.08293021214306354,0.01703822856247425,-0.10347527978271245
1783244257760440300,7.1204404296875,-0.07071195108294487,-0.05576499571129679,-0.10177607464939355
1783244257770451200,7.130451171875,-0.1321358493387699,-0.0461814670689404,-0.01861643766462803
1783244257780463400,7.14046337890625,-0.15692074650526044,-0.030704788734763858,0.029548458306491374
1783244257790474500,7.150474609375,-0.14863690228462217,-0.027516514087468386,0.020365619419515132
1783244257800486400,7.160486328125,-0.08916998331546783,0.041363545393198725,0.06790507696866989
1783244257810497300,7.170497314453125,0.07087561721205711,0.06979980467408894,0.10333879392147063
1783244257820509400,7.180509521484375,0.18277941038310527,0.03136091455593705,0.07948796273469924
1783244257830520300,7.190520263671875,0.2154471697539091,-0.04774944703802466,0.04239376522377133
1783244257840532200,7.2005322265625,0.18355390188693999,-0.056511137903481716,0.03513999470323324
1783244257850543600,7.210543701171875,0.10381634830534457,-0.012559475713223219,0.06511734594628214
1783244257860554500,7.220554443359375,-0.022604630517959592,0.017614567145705223,0.1220735972687602
1783244257870566400,7.23056640625,-0.042593525579571724,-0.0244888368293643,0.1400195883259177
1783244257880577300,7.240577392578125,-0.07601940984129905,-0.08049655525535344,0.07732479335144161
1783244257890589400,7.25058935546875,-0.06520633940398693,-0.12318243529349565,0.018957360056787727
1783244257900600300,7.260600341796875,-0.012242810979485512,-0.07901230804696678,0.01287833240404725
1783244257910612200,7.2706123046875,0.004018587991595268,-0.020389000295102596,0.0055905134834349154
1783244257920623400,7.280623291015625,-0.0016436755537986754,-0.026825901474803685,0.030824177330732342
1783244257930634500,7.290634521484375,-0.015421441015601157,-0.020120704747736452,0.025691344486922025
1783244257940646400,7.300646484375,-0.06474632067680358,-0.0678977704450488,0.004398088828474283
1783244257950657300,7.3106572265625,-0.07697568765282631,-0.08288184295669197,-0.03567424771040678
1783244257960669200,7.320669189453125,-0.06273205824494361,-0.0359491191290319,-0.02174742916673422
1783244257970680600,7.3306806640625,-0.03820318166613579,-0.010157967529445887,-0.016729893265664576
1783244257980692500,7.3406923828125,0.006396423038840294,-0.016016338168829677,-0.055372781523317094
1783244257990703400,7.350703369140625,0.003706453302502632,-0.036587124771624804,-0.08234349829629063
1783244258000715500,7.360715576171875,-0.021276596784591675,-0.06923822526857257,-0.07388634333536029
1783244258010726400,7.370726318359375,-0.07442541864812374,-0.04488295169100165,-0.09763546771332621
1783244258020737500,7.380737548828125,-0.10765022737979889,-0.024849048443883658,-0.09410568615198135
1783244258030749400,7.39074951171875,-0.09761164844632148,0.03265592280253768,-0.07044833171069621
1783244258040760300,7.40076025390625,-0.06232230840027332,0.051492432958632706,-0.08716901875659823
1783244258050772500,7.4107724609375,-0.029911738660931584,0.027902883056551215,-0.13147943125665187
1783244258060783400,7.420783447265625,0.03002747399508953,0.010922814422100783,-0.1532600320406258
1783244258070795300,7.430795166015625,0.0784486828148365,0.01931990975886583,-0.14066168562173842
1783244258080806400,7.440806396484375,0.07371054837703704,0.02369374092891812,-0.1053955803208053
1783244258090818300,7.450818359375,0.050126843693852424,0.019333353762328625,-0.11316562980040908
1783244258100829400,7.460829345703125,0.005337269374728203,0.012961042251437902,-0.07648527378737927
1783244258110840300,7.47084033203125,-0.04518997181355953,0.0357473129466176,-0.0390869787633419
1783244258120852500,7.4808525390625,-0.1136181958734989,0.005890665473788977,-0.05591448718458414
1783244258130863400,7.49086328125,-0.15586743806004524,0.020584230606257914,-0.04707490877732634
1783244258140875300,7.500875244140625,-0.11548282070159911,0.07928089585527777,-0.032134529276937246
1783244258150886400,7.510886474609375,-0.05766717607080936,0.09079232382029294,-0.02282441074848175
1783244258160898600,7.520898681640625,-0.00530862780213356,0.017786708842217922,-0.08389847265332936
1783244258170909400,7.530909423828125,-0.00018470891714096068,-0.05743336731493473,-0.11485840519294142
1783244258180921300,7.54092138671875,0.033228315863013266,-0.06176540516987443,-0.07674407085403799
1783244258190932200,7.55093212890625,0.046046296381950375,-0.011124620604515075,0.02722951383963227
1783244258200944400,7.5609443359375,0.03955225818753242,-0.03308130860775709,0.13219357087537645
1783244258210955300,7.570955322265625,-0.030135610544681547,-0.062142567919194695,0.14366393617764114
1783244258220966400,7.58096630859375,-0.08788871133327483,-0.04511895240396261,0.1764040301322937
1783244258230978600,7.590978515625,-0.11527999160587787,-0.04396072227954864,0.18584025925844908
1783244258240989400,7.600989501953125,-0.11979074702858925,-0.0574399431861937,0.09585545242875813
1783244258251001300,7.61100146484375,-0.11546236243546008,-0.09021817719414829,0.00707432230040431
1783244258261012200,7.62101220703125,-0.05653671073615551,-0.09840615982487798,-0.0017873218081891535
1783244258271024400,7.6310244140625,0.004730535653233528,-0.0645027211792767,0.04948109313622117
1783244258281035500,7.641035400390625,0.002909749966859817,-0.06267302153408527,0.07189706921428442
1783244258291047400,7.65104736328125,-0.0012356792747974395,-0.04969678171351552,0.0972026292540133
1783244258301058300,7.661058349609375,0.0767144063681364,-0.02204611985236406,0.07771773819178342
1783244258311070500,7.671070556640625,0.11070610781908034,-0.017200141125917435,0.045691199333965773
1783244258321081300,7.681081298828125,0.16485621567964553,-0.032534049988538025,0.01192234685346484
1783244258331092500,7.691092529296875,0.1702782407283783,-0.08741364116743207,-0.03398220297023654
1783244258341104400,7.7011044921875,0.10690730005800723,-0.09254530496746301,-0.043706309127062554
1783244258351115500,7.711115478515625,0.05070668940842151,-0.04317454033792019,0.016580694053322076
1783244258361127400,7.72112744140625,-0.035407997989654535,-0.024600334379822016,0.07336801854968071
1783244258371138300,7.73113818359375,-0.169527130100131,-0.05114931860938668,0.05023585702627897
1783244258381150500,7.741150390625,-0.2563800686448812,-0.0873990281201899,0.005830021327733993
1783244258391161300,7.751161376953125,-0.32552550106346606,-0.04357099230960011,-0.09463277876600623
1783244258401173200,7.76117333984375,-0.3147019092321396,0.05839008351787924,-0.15856106105819343
1783244258411184400,7.771184326171875,-0.3008990093290806,0.13258753862902523,-0.15187836842387914
1783244258421196500,7.781196533203125,-0.4638502681702375,0.1317947808161378,-0.15770269066318868
1783244258431207400,7.79120751953125,-0.391056250116229,-0.11772621571421622,-0.3231859521999955
1783244258441219300,7.80121923828125,-0.05049684605002403,-0.09800298585146665,-0.30686244777813554
1783244258451230200,7.811230224609375,0.08966215074658393,0.08712240313589573,-0.07594152229949831
1783244258461241600,7.82124169921875,0.23163024279177188,0.12913579073995352,0.00979877882823348
1783244258471253500,7.83125341796875,0.2918441807359457,0.06733736008331179,0.04652677337527275
1783244258481264400,7.841264404296875,0.2246796930015087,0.053586628758907316,0.06952303355932235
1783244258491276500,7.851276611328125,0.13098726382553577,0.10047463666200637,0.0938663244381547
1783244258501287400,7.861287353515625,-0.010381693282723425,0.2384529284186661,0.09084741500839591
1783244258511299300,7.87129931640625,-0.19944939015507696,0.16324337365552782,0.03469926519840955
