time,seconds_elapsed,z,y,x
1783244232282030800,0.06203076171875,0.21998364413976668,-0.0004701017297804355,-0.032311566344276066
1783244232292042800,0.072042724609375,0.33710137256681916,-0.059696782202273604,-0.03264401316903531
1783244232302053600,0.0820537109375,0.301519187054038,-0.09576295183971524,0.00995681893415749
1783244232312064800,0.092064697265625,0.14012275643944738,-0.06671382135748863,0.06299545842148363
1783244232322076700,0.10207666015625,0.022066285857558248,-0.0181754158988595,0.1385600371673703
1783244232332087800,0.112087890625,-0.023650340178608894,0.018951514837890863,0.1723441602822393
1783244232342098700,0.1220986328125,-0.11739946797788142,0.018711276341229675,0.1494174582030624
1783244232352110600,0.132110595703125,-0.1790653582960367,0.07892389911115169,0.1666132154148072
1783244232362121700,0.142121826171875,-0.15084756407141683,0.12131854111775756,0.1544447848457843
1783244232372132900,0.1521328125,0.029085224708914757,0.08481368780210613,0.08469802553318441
1783244232382144800,0.162144775390625,0.19915420660078526,0.06208747673109173,0.03940992710739374
1783244232392155600,0.17215576171875,0.20172493387162685,0.056309185590595,-0.04234437312409282
1783244232402166800,0.182166748046875,0.25460487566590306,0.07844269146546722,-0.09334076619409024
1783244232412178700,0.1921787109375,0.2971317657500505,0.0764072401151061,-0.08169687095582484
1783244232422189800,0.20218994140625,0.2732265740275383,0.04795870587453246,-0.11208682158775626
1783244232432200700,0.21220068359375,0.21720015090107916,0.02793050171583891,-0.08346490354165434
1783244232442212900,0.222212890625,0.18332710739374158,-0.047754269343614576,-0.11182261769361794
1783244232452223700,0.2322236328125,0.09205167623162269,-0.1434314425960183,-0.1429176478549838
1783244232462234600,0.242234619140625,0.00025251345634460447,-0.1069718897268176,-0.08260003034062684
1783244232472246500,0.25224658203125,-0.09448211824893951,-0.017206570866703987,-0.021905250076949594
1783244232482258000,0.2622578125,-0.19939736770689487,0.05175049937292933,0.013729542405903338
1783244232492268800,0.272268798828125,-0.16961305481791494,0.09157865189239382,-0.005135828518494963
1783244232502280700,0.28228076171875,-0.0955851110547781,0.05408785627931356,-0.05325622776076197
1783244232512291600,0.29229150390625,-0.08350070550739765,-0.026532471486181018,-0.14970065905861554
1783244232522302700,0.302302734375,-0.07815817543566227,-0.12356968104541301,-0.18583054158203302
1783244232532315000,0.31231494140625,-0.059220250731706614,-0.21940087581574916,-0.17171251131519674
1783244232542325800,0.32232568359375,-0.055096448799967765,-0.21272695100978015,-0.14956410013213753
1783244232552336600,0.332336669921875,-0.026536709269881248,-0.14431684712842105,-0.09420205919854342
1783244232562348800,0.342348876953125,-0.02599368843436241,-0.06489551988914609,-0.045494653848558664
1783244232572359700,0.352359619140625,0.011909048980474471,-0.01532747912183404,-0.020692367155849933
1783244232582370800,0.362370849609375,0.0212754277408123,0.00911971052289009,-0.002389306289330125
1783244232592382700,0.3723828125,-0.014729951620101928,-0.006872516117990017,0.00809518978074193
1783244232602393600,0.3823935546875,-0.027214754661917685,-0.0037647593609988687,0.04534969241991639
1783244232612407800,0.39240771484375,-0.11622516350150108,0.0331691330216825,0.12060425536856055
1783244232622419700,0.402419677734375,-0.10739128418266773,0.07551657488569617,0.16927388599142432
1783244232632430600,0.4124306640625,-0.03572363981008529,0.06922229704707861,0.14846914450228213
1783244232642441700,0.422441650390625,0.023268647384643553,0.02766089099422097,0.08537409816384316
1783244232652453600,0.43245361328125,0.028624621459841727,0.023142682917416096,0.022526742976158858
1783244232662464500,0.442464599609375,-0.001021159741282463,0.050303807695955036,0.03813815360590815
1783244232672475600,0.4524755859375,0.04183013999164104,0.08140446388050913,0.049050592764467
1783244232682487800,0.46248779296875,0.09221125070750713,0.035498014360666276,0.013747662584483622
1783244232692498700,0.472498779296875,0.09366787925660609,-0.00621770547106862,0.015602496670931576
1783244232702509600,0.482509521484375,-0.03677636373341083,-0.06326031990274787,0.01803600742816925
1783244232712521500,0.492521484375,-0.19037994851469991,-0.0762951580427587,0.06493555963858962
1783244232722532900,0.502532958984375,-0.2972363951683044,-0.038532121359556915,0.08564064014554024
1783244232732543700,0.512543701171875,-0.32862755873203275,-0.011589607767760753,0.056552492827177045
1783244232742555600,0.5225556640625,-0.29830197857320306,0.010589052423089742,0.009269201996177435
1783244232752566500,0.53256640625,-0.2413064181536436,0.011753420027345418,-0.005813800845295191
1783244232762577700,0.54257763671875,-0.17022388019263743,0.009284253434836864,-0.03996405385881662
1783244232772589600,0.552589599609375,-0.10014145918488503,-0.015285978067666291,-0.08502280050814151
1783244232782600700,0.5626005859375,-0.1398386788010597,-0.0540590685762465,-0.09074278559014201
1783244232792612600,0.572612548828125,-0.1120896711319685,-0.00975347838178277,-0.051880701623857016
1783244232802623700,0.582623779296875,-0.08347557106614112,0.047012072674185036,-0.02542100311294198
1783244232812634600,0.592634521484375,-0.04918868606090546,0.04751490762978792,0.006636369274556637
1783244232822646500,0.602646484375,-0.041027591437101364,-0.03144771605655551,0.01390533736422658
1783244232832657700,0.61265771484375,-0.12555530190467834,-0.05529416332915425,0.007316606623679399
1783244232842668800,0.622668701171875,-0.1657546258240938,0.009369009108841418,0.059710080075263974
1783244232852680700,0.6326806640625,-0.12232874107360839,0.09138225253745913,0.07253449033498764
1783244232862691600,0.642691650390625,-0.05423895518779754,0.11416077831760048,0.013909721278399229
1783244232872702700,0.65270263671875,-0.048183892932534216,0.03884966287612915,-0.11541004772633313
1783244232882714600,0.662714599609375,-0.1694710159987211,-0.05049713831096887,-0.17103899596780536
1783244232892725800,0.672725830078125,-0.17418401599526404,0.050278673254698515,-0.09089607645571231
1783244232902736600,0.682736572265625,-0.12233692438006401,0.16053937539383767,0.00590250204205513
1783244232912748500,0.69274853515625,-0.022809797701239583,0.14935264933854342,0.0019920506000518797
1783244232922759700,0.702759765625,0.04800970540940761,0.09434344043061137,-0.08161796050071715
1783244232932770800,0.712770751953125,0.03152794168591499,0.053041708227247,-0.10458820946067571
1783244232942782700,0.72278271484375,0.09652326868772507,0.07181698971539735,-0.08052037452235818
1783244232952793600,0.732793701171875,0.15076456196308136,0.06884922595098614,-0.05391600684374571
1783244232962804500,0.742804443359375,0.08928338056206703,0.010054799415916204,-0.04385229346901178
1783244232972816600,0.752816650390625,0.0063052376240491865,-0.042047874395549294,-0.0592383709102869
1783244232982827800,0.762827880859375,-0.014167641562223434,0.02455722589045763,0.00323401348516345
1783244232992838700,0.772838623046875,-0.05435644408762454,0.08593991535305977,0.036495793226361276
1783244233002850800,0.782850830078125,-0.08724164560139179,0.0637830286026001,0.013445903158932923
1783244233012861700,0.79286181640625,-0.04484451937675476,0.04583484558835625,-0.027899814316630363
1783244233022872600,0.80287255859375,0.04771569089889526,0.08602204067856073,-0.030060791742801664
1783244233032884500,0.812884521484375,0.08764496570527552,0.13035656470656395,-0.05333835308626294
1783244233042895600,0.8228955078125,0.06175766025483608,0.07867869217842817,-0.08442425009310245
1783244233052906800,0.83290673828125,0.011173135921359061,0.0393745635330677,-0.06614566608071328
1783244233062918700,0.842918701171875,0.03167231859266758,0.10192936551496386,0.02127893487215042
1783244233072929500,0.852929443359375,0.04870996263325214,0.14977642770856617,0.07806567484661936
1783244233082940700,0.862940673828125,-0.005295183798670769,0.09734554485604166,0.03434636010751128
1783244233092952800,0.872952880859375,-0.023828034833073615,0.017611498405784368,-0.03208177617639303
1783244233102963700,0.882963623046875,-0.06400748500823975,0.01520239143744111,-0.017503946378082037
1783244233112974600,0.892974609375,-0.1381757140249014,0.08796703726649284,-0.02296557278484106
1783244233122986500,0.902986572265625,-0.12603811698555945,0.10567936569824814,-0.06390826241746544
1783244233132997600,0.91299755859375,-0.11404255876541138,0.08258198322728276,-0.1439572200357914
1783244233143008800,0.9230087890625,-0.14468787239789963,0.06448430873975157,-0.20882088348194955
1783244233153020700,0.933020751953125,-0.13629998328089712,0.0970318027317524,-0.1906694329805672
1783244233163031600,0.943031494140625,-0.08132102338075638,0.11619842162504791,-0.1464348621957004
1783244233173042700,0.953042724609375,-0.02760229267477989,0.10578896355256438,-0.1162165418036282
1783244233183054600,0.9630546875,0.0105178868830204,0.0628717589765787,-0.08497633101791142
1783244233193065700,0.973065673828125,0.05078969151675701,0.03183101628571749,-0.049840574098378415
1783244233203076600,0.98307666015625,0.09899112010598182,0.032329028935730454,-0.007971271140128374
1783244233213088800,0.9930888671875,0.07104571308195591,-0.013277268593758345,0.005910831478983163
1783244233223099600,1.003099609375,-0.014556348618865012,-0.06077347152307629,0.010730214459449052
1783244233233110800,1.01311083984375,-0.07995733381211757,-0.043554041174799205,0.0765126001857221
1783244233243122700,1.023122802734375,-0.10947452019751071,0.030714141084998845,0.10054317185357213
1783244233253133800,1.0331337890625,-0.0995452468574047,0.05669979234337806,0.04676262795776129
1783244233263144700,1.043144775390625,-0.007604045262932777,0.0423591323018074,-0.04119154982715845
1783244233273156600,1.053156494140625,0.0783007987767458,-0.00339022696018219,-0.08953501723557711
1783244233283167500,1.06316748046875,0.15296820948719977,-0.03116919137611985,-0.06021876024976373
1783244233293179600,1.0731796875,0.18337796079814433,-0.05390884645059704,-0.047980040923506016
1783244233303190800,1.083190673828125,0.13629939875900746,-0.04905293085202574,-0.018703239165246487
1783244233313201700,1.09320166015625,0.03377192122042179,-0.06481427134647966,0.029874475390464065
1783244233323213600,1.103213623046875,-0.06087912385463714,-0.05766776059269905,0.09246814807802438
1783244233333224700,1.113224609375,-0.06315291400551795,-0.03865969326198101,0.13221315235868095
1783244233343235800,1.12323583984375,-0.0866226369202137,-0.05643558844923973,0.15512626430392265
1783244233353247700,1.133247802734375,-0.1196615676909685,-0.07496697817891836,0.11724354676380754
1783244233363258600,1.143258544921875,-0.11009762053191662,-0.06301715879663825,0.05258139723911881
1783244233373269500,1.15326953125,-0.08947919539511204,-0.08769245810881257,-0.00994797804057598
1783244233383281700,1.16328173828125,-0.06958499287962913,-0.09059051763787865,-0.05684446151107549
1783244233393292500,1.17329248046875,-0.05796995840966701,-0.04637260572686791,-0.04282601916119456
1783244233403303700,1.1833037109375,-0.029237784922122954,-0.054243777493387456,0.013168839783221482
1783244233413315800,1.19331591796875,-0.016442016234993934,-0.08018091343492269,0.05516819886192679
1783244233423326700,1.20332666015625,-0.0522626866787672,-0.10374781311377883,0.06353431453853846
1783244233433337600,1.213337646484375,-0.07153612694740295,-0.0873348768427968,0.0665009092591703
1783244233443349500,1.223349609375,-0.07814180882275104,-0.04488412073478103,0.06995528749674558
1783244233453360600,1.233360595703125,-0.06776829884648322,-0.038656916783004994,0.05481909316331148
1783244233463371800,1.243371826171875,-0.005339607462286949,-0.04847264674603939,0.023574936854839322
1783244233473383700,1.2533837890625,0.04717208554148674,-0.08818579458370804,-0.005542874949425459
1783244233483394600,1.26339453125,0.03128711866736412,-0.10137260841503738,-0.03700082013905048
1783244233493405700,1.27340576171875,0.010245499682426452,-0.05781520623937249,-0.054648412771523
1783244233503417900,1.28341796875,-0.056203533259034155,0.009002952275425195,-0.01044248355925083
1783244233513428700,1.2934287109375,-0.09700491472482681,0.04295476010739803,0.017356500731408594
1783244233523439600,1.303439697265625,-0.06458733072280884,0.012826309955865143,0.01918473907187581
1783244233533451500,1.313451416015625,-0.05596154119670391,-0.03498319670632481,-0.0176907011218369
1783244233543462700,1.323462646484375,-0.06853460704386234,-0.07825316024273633,-0.011292524517327547
1783244233553473800,1.333473876953125,-0.08945406095385551,-0.07151201541945337,0.029005291340500113
1783244233563485700,1.343485595703125,-0.06862053176164627,-0.0007860358111560344,0.05082783157005906
1783244233573496600,1.35349658203125,-0.04462999984323978,0.05903714924976229,0.03665639061555266
1783244233583507500,1.363507568359375,-0.08293839544951916,0.0736123486995697,0.007456161224842071
1783244233593519600,1.37351953125,-0.06598375351727008,0.08321765078231692,-0.014953092851489781
1783244233603530800,1.38353076171875,0.05286942040026187,0.09199614665210247,-0.045622956403344864
1783244233613538600,1.39353857421875,0.0947831470221281,0.07876987759321928,-0.07202990181371569
1783244233623550500,1.403550537109375,0.11667582987844943,-0.00005874444991350174,-0.05446428837627172
1783244233633561600,1.4135615234375,0.13155951075553893,-0.0323489026799798,-0.017940584229677915
1783244233643572500,1.423572509765625,0.15519523788690567,0.04434431476965546,0.004781242927163839
1783244233653584400,1.43358447265625,0.14060381795465945,0.07463862300738691,0.07109934296533466
1783244233663595500,1.443595458984375,0.11169687242209911,0.017136428239941597,0.0734881377980113
1783244233673606700,1.453606689453125,0.07737082445025444,-0.030475363893061873,0.055651598464697596
1783244233683618600,1.46361865234375,0.026800328642129896,-0.03298369345217943,0.052393911843001836
1783244233693629400,1.47362939453125,-0.057035307908058164,0.057789341145753854,0.04411240570992231
1783244233703640600,1.483640625,-0.16399930658936498,0.1069853337302804,0.026180881569534537
1783244233713652700,1.49365283203125,-0.19569968223273754,0.12728227182775734,-0.005746434697508812
1783244233723663600,1.50366357421875,-0.17677578605413435,0.06226926303878426,-0.03993482776433229
1783244233733674500,1.513674560546875,-0.12876666516661645,0.009941109908372164,-0.08076046688854693
1783244233743686400,1.523686279296875,-0.0715688601732254,-0.0019004267938435076,-0.08468772333487867
1783244233753697500,1.533697509765625,-0.09305179318487644,0.029857670386135578,-0.07158888004794717
1783244233763708700,1.543708740234375,-0.1628834543019533,0.07903758861869573,-0.10254720515236258
1783244233773720600,1.553720458984375,-0.1995698016643524,0.10382833100408315,-0.12711612148061394
1783244233783731500,1.5637314453125,-0.22321020497083663,0.08242606201320886,-0.15935191917493938
1783244233793742300,1.573742431640625,-0.21235972513258455,0.05878127479255199,-0.19282778005823492
1783244233803754500,1.58375439453125,-0.14966975246369837,0.09730418993234634,-0.20407295830249786
1783244233813765600,1.593765625,-0.026573534148931502,0.12719707776233552,-0.2070833921648562
1783244233823776500,1.603776611328125,0.1347901632398367,0.08444324705451726,-0.19421952667757866
1783244233833788700,1.61378857421875,0.21292203519046304,0.004774520925432443,-0.15626096742227671
1783244233843799600,1.623799560546875,0.12642273238897322,-0.0438787430845201,-0.09858107800036668
1783244233853810400,1.633810546875,0.027736732709407803,0.025242139414697884,-0.016179273645579813
1783244233863822300,1.643822265625,-0.058581952828168866,0.07513327465653419,0.036872225323319435
1783244233873833500,1.65383349609375,-0.0820651197463274,0.04760828500166535,0.002490209380537271
1783244233883845600,1.663845703125,-0.06556114419102668,-0.03742781337946653,-0.01629062506556511
1783244233893856500,1.6738564453125,-0.047502924931049344,-0.03622486733049154,-0.04352642251551151
1783244233903867400,1.683867431640625,-0.025782091510295868,-0.0023977087914943693,-0.050702451624721284
1783244233913879600,1.693879638671875,0.03993278193771839,-0.013100742983072995,-0.04787278115674853
1783244233923890700,1.703890625,0.13591186074614525,-0.03805427471473813,-0.031417467048764226
1783244233933901600,1.713901611328125,0.19024024778306484,-0.09010521833896637,-0.02125336203947663
1783244233943913500,1.72391357421875,0.1392857210934162,-0.10804244156777858,0.004878419691324234
1783244233953924400,1.73392431640625,0.04647124379575252,-0.05619608060494065,0.06641483841091395
1783244233963935500,1.743935546875,-0.05139525619447231,-0.04273746409490704,0.12144625915065407
1783244233973947600,1.75394775390625,-0.170856917399168,-0.10655848662033676,0.11844853863939642
1783244233983958500,1.76395849609375,-0.2574357151776552,-0.16347995889037847,0.07401815302148461
1783244233993969400,1.773969482421875,-0.28418928206861016,-0.12468465654999017,0.04802753332704306
1783244234003981600,1.783981689453125,-0.29149814377725125,-0.03010375410169363,0.015243161839246748
1783244234013992400,1.793992431640625,-0.22870412621200084,-0.02663929286152124,-0.03577010930031538
1783244234024003600,1.804003662109375,-0.1953653357118368,-0.07065306050255894,-0.061007718670368194
1783244234034015500,1.814015380859375,-0.14936463203728198,-0.08034589473828672,-0.05524681705608964
1783244234044026600,1.824026611328125,-0.06125614047348499,-0.033195290376245974,-0.01501417538896203
1783244234054037500,1.83403759765625,-0.006839490631222724,-0.026803981903940437,0.00708674339056015
1783244234064049400,1.84404931640625,0.009447627303004264,-0.05246697707921266,0.029954262628406284
1783244234074060500,1.854060546875,0.0015618424892425537,-0.043133331544697284,0.06117606097459793
1783244234084071700,1.86407177734375,-0.01187163957953453,-0.038246728546917436,0.0716809422455728
1783244234094083600,1.87408349609375,-0.014781389546394347,-0.047438189131766555,0.05784238650724292
1783244234104094500,1.884094482421875,0.011609189251065254,-0.05030161573886871,0.02541486563310027
1783244234114105300,1.894105224609375,-0.02866670703589916,-0.020717647727578878,0.0030979660153388974
1783244234124117500,1.904117431640625,-0.058282677620649335,0.01324234341084957,-0.013574717170372605
1783244234134128600,1.914128662109375,-0.016596914535760877,0.042840486077964306,-0.0485004115357995
1783244234144139500,1.924139404296875,0.011101824250817299,0.060302493010461325,-0.05933854334913194
1783244234154151400,1.9341513671875,0.00857727420926094,0.032535219032317396,-0.0779045660007745
1783244234164162600,1.94416259765625,-0.016815525722503662,0.06112813017964363,-0.08229235263094306
1783244234174173700,1.954173583984375,-0.02870587000250816,0.12316986807286738,-0.07285736561380327
1783244234184185600,1.964185546875,-0.011511574095487594,0.10709244736656547,-0.06658917206451297
1783244234194196500,1.974196533203125,0.02846095533072948,0.044648120021820066,-0.08740187766440212
1783244234204207400,1.984207275390625,0.04420914408266544,-0.04122340627014637,-0.10733882334306835
1783244234214219500,1.994219482421875,0.016209376522898673,-0.0295614639185369,-0.06574161532446741
1783244234224230400,2.00423046875,0.0007113631397485733,0.04740691721066832,-0.022744112053886056
1783244234234241500,2.014241455078125,0.028154665860533713,0.08018252087011933,0.00771620040051639
1783244234244253700,2.024253662109375,0.017047580912709234,0.0741308196157217,0.013403233060985802
1783244234254264600,2.0342646484375,-0.006353752940893173,0.03061857175603509,-0.03140519208908081
1783244234264275500,2.044275390625,-0.02667641000151634,0.0050672202616930005,-0.027617051852494478
1783244234274287400,2.054287353515625,-0.0300941094905138,0.023426760555803776,-0.007728110034018755
1783244234284298500,2.064298583984375,-0.019632921230792997,0.020349983458966017,0.042808045113086696
1783244234294309600,2.0743095703125,-0.05310965889692306,0.017431904055178166,0.038611616336554286
1783244234304321500,2.084321533203125,-0.13786357933580876,0.04500365546122193,0.04630765073187649
1783244234314332400,2.09433251953125,-0.11870704344511031,0.09094824503436684,0.03560812367163598
1783244234324343600,2.104343505859375,-0.021042203506827353,0.09472352578938006,-0.005252952092140913
1783244234334355700,2.114355712890625,0.07533610375225544,0.014261603455990552,-0.037117797582224006
1783244234344366600,2.12436669921875,0.18595804041922093,-0.09026099342256784,-0.07610190049298107
1783244234354377500,2.13437744140625,0.2330892094284296,-0.0960625193081796,-0.10412497586309909
1783244234364389400,2.144389404296875,0.23549919317960738,-0.03614771044105291,-0.09117408967949449
1783244234374400500,2.154400390625,0.18597031537890432,-0.015518763910233973,-0.0718051531471312
1783244234384412400,2.164412353515625,0.12286883929967879,-0.028731150574237106,-0.06262165667302906
1783244234394423600,2.174423583984375,0.015233224967122077,-0.004867021514475345,-0.04488813932277262
1783244234404434400,2.184434326171875,-0.16949498139619826,0.029527269387990236,-0.02537226860038936
1783244234414446600,2.194446533203125,-0.31959552649259565,0.046454292660951614,-0.02354731819555163
1783244234424457500,2.20445751953125,-0.3724298755794763,0.015940350323170423,-0.04747150687947869
1783244234434468600,2.214468505859375,-0.36879531846940516,-0.05707227891758084,-0.07109795472584664
1783244234444480500,2.22448046875,-0.3829793266445398,-0.10574307858422398,-0.06476071452833712
1783244234454491600,2.23449169921875,-0.31515491369664667,-0.08775310225486754,-0.05281484066881239
1783244234464502500,2.24450244140625,-0.16575287225842475,-0.04070610439777374,-0.0537647618047893
1783244234474514400,2.254514404296875,-0.04453998347222805,0.003462415413558483,-0.08254713110961019
1783244234484525600,2.264525634765625,0.006914893954992294,-0.0004598725967109203,-0.10835822951868176
1783244234494536700,2.27453662109375,0.010207505759596823,-0.011079027897119521,-0.11154591964408754
1783244234504548600,2.284548583984375,0.040244916626811025,0.027436726849526166,-0.09471095856875181
1783244234514559500,2.2945595703125,0.01749181754887104,0.04060498211085796,-0.10918825060203671
1783244234524570400,2.3045703125,0.02616670691370964,-0.00513283284381032,-0.06982924996428191
1783244234534582500,2.31458251953125,0.0332312384724617,-0.022741847031563518,0.006364639661088586
1783244234544593700,2.32459375,0.027289573463797567,-0.01815685732886195,0.07171681727655231
1783244234554604500,2.3346044921875,0.0360936421662569,-0.019986118582636117,0.08553104229122399
1783244234564616400,2.344616455078125,0.0866834271967411,-0.03510623856410384,0.05630618991591036
1783244234574627600,2.354627685546875,0.129888362672925,-0.03872998201921582,0.039093481569364666
1783244234584638700,2.364638671875,0.07904431062042713,-0.027032822223752737,0.0025611557248979805
1783244234594650600,2.374650634765625,0.02313420735001564,-0.02872866635620594,-0.007373378312215208
1783244234604661500,2.38466162109375,-0.005435469052195548,-0.0466553681910038,-0.010302855892851948
1783244234614672100,2.394672119140625,-0.0073965399920940395,-0.05139686362966895,0.013652750842645764
1783244234624684300,2.404684326171875,-0.06451192739903927,-0.054651189250499006,0.04721146770380437
1783244234634695200,2.414695068359375,-0.1360574066966772,-0.05030936065390706,0.062487143573164934
1783244234644706300,2.424706298828125,-0.14934008211791513,-0.03387085155025124,0.08400098317973315
1783244234654718200,2.43471826171875,-0.14368015666007994,-0.0033593934305012224,0.07649681809470057
1783244234664729300,2.444729248046875,-0.11176409243941307,0.017265899838507175,0.06931867009364068
1783244234674740200,2.454740234375,-0.07668167314231396,-0.013814590340852737,0.03413563996627927
1783244234684752100,2.464752197265625,-0.057494742113351816,-0.015887451092153785,0.0029440175626426934
1783244234694763300,2.47476318359375,-0.022370237240195275,-0.03204787390679121,0.0007432926479727029
1783244234704774100,2.484774169921875,0.006240940216183662,-0.029316695377230643,0.01042728599011898
1783244234714786300,2.494786376953125,0.042273207584023476,0.007366583245247602,0.05433255175538361
1783244234724797200,2.504797119140625,0.07535013227760791,0.02261398286819458,0.0644372547276318
1783244234734808300,2.514808349609375,0.11087620368897914,0.024199936885386703,0.04552439139969647
1783244234744820500,2.524820556640625,0.1232785891443491,0.0524814439959824,0.034619331829994916
1783244234754831400,2.534831298828125,0.05905658460259437,0.07286956750825047,0.016110957649722694
1783244234764842200,2.54484228515625,0.004575637352466583,0.07232187049761414,0.00654174979366362
1783244234774854100,2.554854248046875,-0.014230185404419898,0.07026479183733463,0.009790668587014079
1783244234784865000,2.564864990234375,0.02127893487215042,0.03038447073921561,0.022602292430400846
1783244234794877200,2.574877197265625,0.052698740008473396,0.003818243113905191,-0.012868322466686366
1783244234804888300,2.584888427734375,0.07901391548216342,0.03120104781910777,-0.03698459965661168
1783244234814899200,2.594899169921875,0.11009002174735069,0.01637055843397975,-0.028182211454585195
1783244234824911400,2.604911376953125,0.061222238203883166,-0.0025249884329736232,0.010089213142171502
1783244234834922200,2.614922119140625,-0.008107903131842613,0.011245324374735355,0.0303871010877192
1783244234844933400,2.624933349609375,-0.057341597378253936,0.04776069908440113,0.023332506401091812
1783244234854945300,2.6349453125,-0.050858665099740026,0.07377206930592656,0.012620192924514412
1783244234864956200,2.6449560546875,-0.016244447836279867,0.04029226289987564,-0.018541911123692988
1783244234874967300,2.65496728515625,0.04093172984719276,-0.020735183384269475,-0.06468713783547282
1783244234884979200,2.664979248046875,0.013320084822177886,-0.05186112014055252,-0.05850114267691969
1783244234894990000,2.674989990234375,-0.04816401918828487,-0.008134060486406088,-0.06515080982446671
1783244234905001200,2.685001220703125,-0.15923603771030903,0.03357654477879405,-0.021014292586594818
1783244234915013400,2.695013427734375,-0.290629544249177,0.04254764061123133,0.030289047540724277
1783244234925024300,2.705024169921875,-0.35813889989852904,0.0302716580145061,0.038554040930420155
1783244234935035100,2.71503515625,-0.3346288449734449,0.020223872861266135,0.018334698113799095
1783244234945047000,2.725047119140625,-0.26777766097187994,-0.03516249879598617,-0.033633097271621226
1783244234955058400,2.735058349609375,-0.1674152525126934,-0.05055573663040995,-0.0969677975848317
1783244234965069300,2.7450693359375,-0.0728372726738453,-0.021850743410736322,-0.15234467076137662
1783244234975081200,2.755081298828125,0.05184183091819286,0.02893558710515499,-0.18483955778330563
1783244234985092000,2.765092041015625,0.14910335075259207,0.05789543186873197,-0.16864494043812156
1783244234995103200,2.775103271484375,0.14184241983890533,0.007278320439904928,-0.14897563271969555
1783244235005115400,2.785115478515625,0.12252514042854308,-0.013763590805977582,-0.06980842637196183
1783244235015126300,2.795126220703125,0.045585693132877345,0.025791736121475697,0.00565305732563138
1783244235025137200,2.80513720703125,-0.07388005972504616,0.024418548072129488,0.06211933317407965
1783244235035149300,2.8151494140625,-0.1971300072968006,0.013781710984557867,0.051274990815669295
1783244235045160200,2.82516015625,-0.20756839920282363,0.016060615701973438,0.03286372033432126
1783244235055171300,2.83517138671875,-0.1462713421970606,0.0574642008446157,0.04270999156609177
1783244235065183200,2.845183349609375,-0.006835398977994918,0.0711057727061212,0.015959347284585236
1783244235075194400,2.8551943359375,0.12159984227716922,0.05594488232284784,0.006934621568769216
1783244235085205200,2.865205322265625,0.1020768111616373,0.010737813244014977,-0.0016571195572614669
1783244235095217200,2.875217041015625,0.034168227061629294,0.008790916959941386,0.030208091259002683
1783244235105228300,2.885228271484375,-0.0026981530427932737,0.05011676069125533,0.11590572228878736
1783244235115239200,2.8952392578125,0.03174947548210621,0.04958601481541991,0.1423221661798656
1783244235125251300,2.905251220703125,0.08468260876834392,-0.08654664907455444,0.08817892645150423
1783244235135262200,2.91526220703125,0.13629881423711776,-0.15953005222082137,0.019632482839375732
1783244235145274000,2.925274169921875,0.12261223419010639,-0.11364742196798323,0.020916239039599896
1783244235155285200,2.93528515625,0.06497136160433292,-0.02774520827680826,0.05423150253370404
1783244235165296400,2.94529638671875,0.020429624566435812,0.0002307400159537792,0.06280424669831991
1783244235175308300,2.955308349609375,-0.02050736597776413,-0.01401990365460515,0.04934840666726231
1783244235185319200,2.965319091796875,-0.08629822727143764,-0.00807400086224079,0.022200141370296477
1783244235195330000,2.975330078125,-0.17666648046076297,0.008523205934464931,-0.0027022446960210797
1783244235205342200,2.98534228515625,-0.24094635266959666,-0.0038283261165022848,-0.03261442174836993
1783244235215353300,2.995353271484375,-0.26062720469534395,-0.033426030392199754,-0.026558921101689337
1783244235225364200,3.0053642578125,-0.25485797364413737,0.00018880057036876677,-0.030368980909138917
1783244235235376400,3.01537646484375,-0.23382278439998624,0.05791822822242975,-0.03853022166341543
1783244235245387300,3.02538720703125,-0.13685294098854064,0.09659823362007737,-0.07412263630926609
1783244235255398400,3.0353984375,-0.013885317489504813,0.06588584610074757,-0.11157251539006828
1783244235265410300,3.045410400390625,0.06314531522095203,0.016364274823665616,-0.11310279369726776
1783244235275421200,3.055421142578125,0.09407762910127639,0.00227612823843956,-0.10677373680621385
1783244235285432300,3.065432373046875,0.015694997259974478,0.041737347141653294,-0.07220233577117323
1783244235295444200,3.0754443359375,-0.03475216442942619,0.10579510103240608,-0.028143559944629668
1783244235305455000,3.085455078125,-0.05756488474011421,0.13197627486288546,-0.017973317455500362
1783244235315466200,3.09546630859375,-0.061785717305541034,0.0898421834886074,-0.04505494725704193
1783244235325478400,3.105478515625,-0.08348258532881736,0.08313625610917806,-0.0583310468070209
1783244235335489300,3.1154892578125,-0.09160334794223308,0.07436272867545485,-0.05509776397421956
1783244235345500200,3.125500244140625,-0.016720833176374433,0.07109875844344496,-0.06327683264613151
1783244235355512000,3.135511962890625,0.055174190211296076,0.07203750059828162,-0.053662616604566574
1783244235365523500,3.1455234375,0.06619476591944694,0.042652270029485226,-0.016367635824531317
1783244235375534300,3.155534423828125,0.0765355426698923,0.012599369332194327,0.022299510091543195
1783244235385546200,3.165546142578125,0.0902343976765871,0.05030132347792387,0.06919701647534966
1783244235395557000,3.17555712890625,0.07018237425088882,0.07793459581285715,0.09552432077825068
1783244235405568000,3.185568115234375,0.011193594187498093,0.0023868951365351677,0.07202639468237758
1783244235415580200,3.195580078125,-0.04606617012619972,-0.03901332900524139,0.05348126868829131
1783244235425591300,3.20559130859375,-0.13378595463335513,0.016656828029453754,0.07429346283152699
1783244235435602200,3.215602294921875,-0.12337561977803706,0.06557429593354464,0.08194237014949321
1783244235445614300,3.2256142578125,-0.08534954824447631,0.040931291455775495,0.056331543552875514
1783244235455625200,3.235625244140625,-0.03371580711901188,-0.018191344120353458,0.03581321778967976
1783244235465637000,3.24563720703125,-0.017127660411596298,-0.031032120992988348,0.02466477791815996
1783244235475648300,3.255648193359375,-0.041023499783873554,-0.014311872338503598,0.058691842943429946
1783244235485659100,3.2656591796875,-0.02991583031415939,0.01963058314323425,0.07355448103249072
1783244235495671300,3.27567138671875,-0.029781390279531476,0.00434460507556796,0.0683507749095559
1783244235505682200,3.28568212890625,-0.055932899624109265,0.008795154743641615,0.037567806372046465
1783244235515693300,3.295693359375,-0.122141109547019,0.022535510804504156,-0.0030529578298330307
1783244235525705200,3.305705322265625,-0.114873164370656,0.023566899678856133,-0.059318012017756695
1783244235535716400,3.31571630859375,-0.08651099323928356,0.006539338640868663,-0.05176029011458158
1783244235545727200,3.325727294921875,-0.09171674518883227,-0.029182985994964838,-0.011317220567166804
1783244235555739100,3.3357392578125,-0.05529927789568901,-0.008381605506688357,0.008794424091279507
1783244235565750000,3.34575,-0.04287935678362846,0.046603784134238956,0.03411825044006109
1783244235575761400,3.355761474609375,0.001672317126393318,0.02921601148173213,0.027669074300676583
1783244235585773300,3.365773193359375,0.04452712399065494,-0.0004245090223848819,0.04266600629389286
1783244235595784200,3.3757841796875,0.10403437497019767,0.029819238071888684,0.03322320129647851
1783244235605795000,3.385795166015625,0.12314707171916961,0.01235898470506072,-0.014790303505212068
1783244235615807700,3.395807861328125,0.107252752494812,-0.008223784596472978,-0.0560654399625957
1783244235625819000,3.40581884765625,0.053124856466054915,-0.002874532523006201,-0.03400412254109979
1783244235635830000,3.415830078125,-0.04204582856893539,0.02339621928706765,0.0064170274354517455
1783244235645842000,3.425842041015625,-0.1462713421970606,0.04144727815389633,0.043928719706088304
1783244235655852800,3.435852783203125,-0.1780336771607399,0.05485372608527541,0.016805881111323834
1783244235665863700,3.44586376953125,-0.1666705716252327,0.04555237538516521,-0.008674450973421335
1783244235675875800,3.455875732421875,-0.13874854547679424,-0.0012001695699989795,-0.03016878216192126
1783244235685887000,3.465886962890625,-0.09974047716856002,-0.03288929316699505,-0.03623728842064738
1783244235695897900,3.47589794921875,-0.03624269524812698,-0.018356909945607184,-0.01876943626925349
1783244235705910000,3.485909912109375,-0.05076572611927986,-0.027309885599464175,-0.01968640498369932
1783244235715921000,3.4959208984375,-0.045862171986699105,-0.028579905535280704,-0.012087035895884037
1783244235725932800,3.505932861328125,-0.11533669022917747,-0.004189414513856173,0.03359261913076043
1783244235735943700,3.515943603515625,-0.171854696264863,0.01843976592347026,0.06403378849327564
1783244235745954800,3.525954833984375,-0.15214695623219013,-0.00019420739784836767,0.06379471904039383
1783244235755967000,3.535967041015625,-0.09570084638893604,-0.03290054521337151,0.025279256554692982
1783244235765977900,3.545977783203125,-0.03599602701067924,-0.04644727839827537,-0.03178980749249458
1783244235775988700,3.55598876953125,0.048069326642155644,-0.04995557878017425,-0.09384440486729144
1783244235786001000,3.5660009765625,0.07197218027710914,-0.06572159544974565,-0.11654285114854573
1783244235796012000,3.576011962890625,0.0437970561504364,-0.06394304146990179,-0.0709687023229897
1783244235806023000,3.58602294921875,-0.07389876442551613,-0.022471651788055897,0.026484248430281875
1783244235816034800,3.596034912109375,-0.2439683308392763,-0.013833002780377864,0.13588000430315733
1783244235826045700,3.606045654296875,-0.2867383820295334,0.0061911097250878806,0.17262538837641478
1783244235836056800,3.616056884765625,-0.2537070500433445,-0.013944208069890737,0.12628536974489687
1783244235846068700,3.62606884765625,-0.1954132665067911,-0.05795037692636251,0.0293055894613266
1783244235856080000,3.636079833984375,-0.06529986290633678,-0.03869914848953485,-0.04875599373206496
1783244235866090800,3.6460908203125,0.06515256339013577,0.006745674867928027,-0.09757949974238872
1783244235876103000,3.65610302734375,0.18366963722109794,0.047787733221799134,-0.07249824997782707
1783244235886113800,3.66611376953125,0.2726028891712427,0.07600158192366362,-0.01877542761862278
1783244235896125000,3.676125,0.343338221129775,0.07562588047906756,0.04758782673552632
1783244235906136800,3.68613671875,0.36228432914018627,0.02147606487944722,0.10175152473002672
1783244235916148000,3.69614794921875,0.3280991509437561,-0.03701601770818233,0.1255881812609732
1783244235926158800,3.706158935546875,0.22663082706928253,-0.042304625635594124,0.12168094468936323
1783244235936170800,3.716170654296875,0.1304763916939497,0.0010064005635678768,0.11206555960401891
1783244235946182000,3.726181884765625,0.023080431336164473,-0.0010964169345796108,0.051486295478790994
1783244235956194000,3.736194091796875,-0.0749935739248991,-0.0021134850226342677,-0.003474251981824636
1783244235966205000,3.746204833984375,-0.1502963599294424,0.04366933811753988,-0.03128668027594685
1783244235976215800,3.7562158203125,-0.19396891291737556,0.061079176471382376,-0.07652545966729521
1783244235986227700,3.766227783203125,-0.1663034918785095,0.03846709329932928,-0.09636194064617157
1783244235996238800,3.77623876953125,-0.10346738873720168,0.017233312743157148,-0.08062368876636028
1783244236006250000,3.78625,-0.06976736370921134,0.009140461049973965,-0.045861295203864574
1783244236016262000,3.796261962890625,-0.0573737460821867,0.00723228934109211,-0.007394494165480136
1783244236026272800,3.806272705078125,-0.057225277522206304,0.002134381680190563,-0.004392828131467103
1783244236036284000,3.816283935546875,-0.0704880791991949,0.025321049869805573,-0.013154226735979317
1783244236046295800,3.8262958984375,-0.07004676517248153,0.013184914135187863,-0.04797697218358517
1783244236056307000,3.836306884765625,-0.10935644677579402,0.006049947688728571,-0.11724296224191784
1783244236066317800,3.84631787109375,-0.18281155908703803,0.0009255904123187064,-0.16610139343515037
1783244236076330000,3.856330078125,-0.22574819901585577,0.05484013595134019,-0.16244915453791617
1783244236086340900,3.8663408203125,-0.23550153126716614,0.09581482815742492,-0.17714666519314048
1783244236096351700,3.876351806640625,-0.23802023608982562,0.13764745236709713,-0.18913973919525742
1783244236106363600,3.88636376953125,-0.17087679114341736,0.1446891875721514,-0.2175467723816633
1783244236116375000,3.896375,-0.0874590877443552,0.1394794900998473,-0.1806786387115717
1783244236126386000,3.906385986328125,0.02127250513136387,0.10258534520566463,-0.1581340678177774
1783244236136397800,3.916397705078125,0.09782266084849833,0.046671442542970176,-0.10284282709807156
1783244236146408700,3.92640869140625,0.17505846074223516,0.03432736314609647,-0.05554273126274347
1783244236156419800,3.936419921875,0.19564006099998948,0.04868628949671983,-0.005740735609084367
1783244236166432000,3.946431884765625,0.18462825312018394,0.05341287962719798,0.012947159856557845
1783244236176443000,3.95644287109375,0.1633499027699232,0.04772168224826455,0.0015884382352232933
1783244236186454800,3.966454833984375,0.11569032597243785,0.03463160678967833,-0.011783084513247012
1783244236196466000,3.9764658203125,0.023613515299558636,0.016557605438679457,-0.024269348859786984
1783244236206476800,3.986476806640625,-0.0685801997512579,-0.00045008185505867004,-0.0046831893801689145
1783244236216489000,3.996489013671875,-0.1276870532363653,0.01574322031587362,0.04448518454506993
1783244236226499800,4.006499755859375,-0.15260872852504254,0.03928688524961471,0.04352890673354268
1783244236236510700,4.0165107421875,-0.14478314946591853,0.02839242013916373,0.024160920049250124
1783244236246523000,4.02652294921875,-0.09582651859521865,-0.012318360433727502,0.035641952876001595
1783244236256533800,4.03653369140625,-0.003163432466983795,-0.015011837301403283,0.047326399320364
1783244236266545000,4.046544921875,0.05437748687565326,-0.04458265357017517,0.06430237630158663
1783244236276557000,4.05655712890625,0.07945698307454585,-0.0890678381152451,0.0691284812837839
1783244236286568000,4.06656787109375,0.0812678318887949,-0.07820932110100984,0.08932868100851774
1783244236296578800,4.076578857421875,0.050154316222667694,-0.057859922163933514,0.09413359707221389
1783244236306590700,4.0865908203125,0.027737901753187178,-0.06915785350874067,0.07396101600676774
1783244236316601900,4.096601806640625,0.009685527712106705,-0.046615620702505106,0.02894654689058661
1783244236326613000,4.106613037109375,-0.011485855132341384,-0.03335530324354768,-0.03737798288837075
1783244236336625000,4.116625,-0.028203765699267386,-0.05933262506499886,-0.07527955125942826
1783244236346635800,4.1266357421875,-0.1216787527322769,-0.105112671726197,-0.058645811844617125
1783244236356646700,4.136646728515625,-0.23784546404480933,-0.1018837728075683,0.0035856034018099305
1783244236366658800,4.146658935546875,-0.28888942258358,-0.06773936501294374,0.04644377126693725
1783244236376670000,4.156669921875,-0.26569150234758854,-0.059835021629184484,0.06746990042179822
1783244236386681900,4.166681884765625,-0.1705605648010969,-0.06773673466444015,0.03429930609539151
1783244236396692700,4.176692626953125,-0.05510638567209243,-0.08696662805229424,-0.011399930414557457
1783244236406703900,4.186703857421875,-0.02946925559043884,-0.09447861111760139,-0.06443973894566297
1783244236416715800,4.1967158203125,-0.007072714865207672,-0.06324541459456086,-0.09896613179519773
1783244236426727000,4.206726806640625,-0.014302081596851347,-0.007577157256007194,-0.11189750956073402
1783244236436737800,4.21673779296875,0.0006786299139261245,0.022122107698023318,-0.10688976440131663
1783244236446750000,4.22675,0.01771393586695194,0.003809329155087471,-0.11760799616202712
1783244236456760800,4.2367607421875,0.062139353048801416,-0.0048396951161324975,-0.08504019003435968
1783244236466772000,4.24677197265625,0.07773673515319823,0.013105857549607754,-0.0699843674607575
1783244236476783900,4.256783935546875,0.0998591351121664,0.025107260988652704,-0.05051584301143884
1783244236486795000,4.266794921875,0.08821136741638183,0.02219619584754109,-0.030364158603549
1783244236496806000,4.276805908203125,0.05407178192734718,0.06209624455943703,-0.029435791712254283
1783244236506817800,4.28681787109375,0.038838556960225104,0.06209186064526438,-0.04111614650338888
1783244236516828700,4.29682861328125,0.02138531785607338,0.06955927391648292,-0.060965486963838335
1783244236526840000,4.306840087890625,0.010287585258483885,0.038410979197919366,-0.07487403919845818
1783244236536852000,4.31685205078125,-0.04744739535152912,0.026016338657587765,-0.09946765157654881
1783244236546862800,4.32686279296875,-0.09358604619204998,0.03561813360899686,-0.13438684313595295
1783244236556874800,4.336874755859375,-0.09856383460462093,0.06755114896446467,-0.14916808655187486
1783244236566886000,4.346885986328125,-0.13601941277384758,0.07543459569066763,-0.152348616284132
1783244236576897000,4.35689697265625,-0.11370178250372409,0.06909224092662335,-0.1547872416079044
1783244236586909000,4.366908935546875,-0.08343640809953212,0.047262978695333004,-0.11461290599927305
1783244236596919800,4.376919921875,-0.05975391921699047,0.05516103846877813,-0.06976195688173174
1783244236606931000,4.386930908203125,-0.04007657432258129,0.014570523274689912,-0.04525763022229075
1783244236616942800,4.39694287109375,-0.052425183764100075,-0.02776025971546769,-0.03656199033036828
1783244236626954000,4.4069541015625,-0.08890928655266761,-0.02448357613235712,-0.0007287526659667491
1783244236636965000,4.416965087890625,-0.14559154323935508,0.0065739715628325935,0.024199206233024597
1783244236646977000,4.42697705078125,-0.20114567267894742,0.03477759113162756,0.010333470226824282
1783244236656988000,4.43698779296875,-0.20401041446030138,0.030191432385146617,-0.028923604406416413
1783244236666999000,4.4469990234375,-0.18763094206750391,0.04623904247507453,-0.05746390858367085
1783244236677011000,4.457010986328125,-0.11280571044683456,0.04556947265043854,-0.06655643883869052
1783244236687022000,4.46702197265625,0.030588030487298964,0.027126053465157746,-0.044131694932281966
1783244236697033000,4.477032958984375,0.17780337553620337,-0.016594138056784866,-0.0449582088842988
1783244236707045000,4.487045166015625,0.2719236747354269,-0.05504603378698229,-0.02697188581675291
1783244236717056000,4.497055908203125,0.333906960439682,-0.09318944808989763,-0.005077741655707359
1783244236727067000,4.50706689453125,0.33118484199941156,-0.10862331019565462,0.01972103790566325
1783244236737078800,4.517078857421875,0.2673117970257997,-0.09919292628839611,0.07312514970451593
1783244236747090200,4.527090087890625,0.10279869569540023,-0.08935571514591574,0.11987521044164895
1783244236757102000,4.53710205078125,-0.0883037218749523,-0.05617591459974646,0.16684782788828015
1783244236767113000,4.547113037109375,-0.25573417195677756,-0.015197715262323616,0.17763605614528058
1783244236777123800,4.557123779296875,-0.32530630535483357,-0.035574294467270375,0.1445769593693316
1783244236787136000,4.567135986328125,-0.29876433538794517,-0.06815130681470036,0.03292977130785584
1783244236797147100,4.577147216796875,-0.24074761522710322,-0.08289850183054805,-0.05822188734412193
1783244236807158000,4.587157958984375,-0.13587562038898468,-0.08410378596708178,-0.08921747571900486
1783244236817170000,4.597169921875,-0.03609714929759502,-0.07203428572788834,-0.051274114032834765
1783244236827181000,4.60718115234375,-0.04147591972649097,-0.034292291832715274,-0.011563888804614543
1783244236837192000,4.61719189453125,-0.06580372077524661,-0.05801102107241749,0.012079144850373267
1783244236847204000,4.6272041015625,-0.13516367272734642,-0.08510083418041467,0.02319821249693632
1783244236857215000,4.637215087890625,-0.14928221445083617,-0.03766732122376561,0.03152428842410445
1783244236867225900,4.647225830078125,-0.20833763000965116,0.01564984294399619,0.023828180963546036
1783244236877238000,4.657238037109375,-0.1917488987803459,0.033896716643869874,-0.0056736617222428315
1783244236887249000,4.667248779296875,-0.12021686348617076,0.028637919332832096,-0.03302022607028484
1783244236897260800,4.6772607421875,-0.03606383154988289,0.05808043304681778,-0.04740589429736137
1783244236907272200,4.687272216796875,0.04212766163349151,0.038336598787456745,-0.0695334088228643
1783244236917283000,4.697282958984375,0.1397264505982399,0.02092398395463824,-0.062395812027901405
1783244236927295000,4.707294921875,0.23419863197505472,-0.0007372282333672046,-0.021782208219170568
1783244236937305900,4.717305908203125,0.3019827129125595,-0.0015244330883026121,0.03904226283878088
1783244236947317000,4.72731689453125,0.31614567829966544,0.0182942199729383,0.07279080318361521
1783244236957329200,4.7373291015625,0.25774843438863754,-0.00262055776193738,0.06370557945221662
1783244236967340000,4.747340087890625,0.10880758072137832,-0.042274961149692536,0.07805003888607025
1783244236977351000,4.757350830078125,-0.018428221616148946,-0.03873027428016066,0.09781462367251514
1783244236987363000,4.767363037109375,-0.11996551907360553,0.0014979834727942942,0.09598448563590645
1783244236997374000,4.7773740234375,-0.1822895810395479,0.026011077960580584,0.07865648034662008
1783244237007385000,4.787385009765625,-0.14748247155249117,0.0008687456585466861,0.03801642692238092
1783244237017397000,4.79739697265625,-0.09666589202880858,-0.035144963139295576,0.007161416061967611
1783244237027408000,4.807407958984375,-0.03475391799509525,-0.08341025074496865,-0.015991934379935263
1783244237037419000,4.8174189453125,0.024644611912965773,-0.08191007531508802,0.003438450016081333
1783244237047431000,4.827430908203125,0.05567746355831623,-0.07647022234871984,0.0403757033996284
1783244237057442000,4.837442138671875,0.022552608069777488,-0.09846855753660201,0.04976385560035705
1783244237067453000,4.847452880859375,-0.06624386575818061,-0.08903393584564327,0.04095511072278023
1783244237077465000,4.857465087890625,-0.15018705433607102,-0.05328866872563958,0.032735563910007474
1783244237087476000,4.86747607421875,-0.25497780063152314,-0.037222938457131385,0.020590514216572046
1783244237097488000,4.87748779296875,-0.26781740846037866,-0.005089139832556247,-0.015947510716319082
1783244237107499000,4.8874990234375,-0.2521931383490562,-0.009205489110201597,-0.06684227004274726
1783244237117510100,4.89751025390625,-0.17694588192403315,0.005343845245987177,-0.11816022321730851
1783244237127522000,4.90752197265625,-0.002807458636164665,0.024404081155359744,-0.15835297126546502
1783244237137533000,4.917532958984375,0.0961643722474575,0.015245499926805496,-0.1222774492777884
1783244237147543800,4.927543701171875,0.17374854718744753,0.019031740467250344,-0.10230419017672539
1783244237157556000,4.937555908203125,0.22843407709896563,0.010944880123436451,-0.08738952963948249
1783244237167567000,4.947567138671875,0.18935586616396902,-0.0049887481980025765,-0.045337709721177816
1783244237177578000,4.957577880859375,0.13049977256953715,0.003625935412198305,-0.021178981629014014
1783244237187590000,4.96758984375,0.03726736212074756,-0.003159340813755989,-0.0070486033372581
1783244237197601000,4.97760107421875,-0.05136252296864986,0.020830898843705654,-0.01160451307594776
1783244237207612200,4.987612060546875,-0.10887480073869228,0.01804930530115962,-0.07755977115109562
1783244237217624000,4.9976240234375,-0.15089198773503304,-0.0025983459301292893,-0.1355078099898994
1783244237227635000,5.007635009765625,-0.1695937655955553,-0.0032638241015374657,-0.1254233460880816
1783244237237647000,5.017647216796875,-0.17793430843949318,0.033641718969494104,-0.09603241643086075
1783244237247658000,5.027657958984375,-0.13326923728287218,0.020977467707544564,-0.05771262264773249
1783244237257668900,5.0376689453125,-0.10060030886828898,-0.01170563536286354,-0.009632043959200382
1783244237267680800,5.0476806640625,-0.08682780410349368,-0.014171440954506396,0.03328808322623372
1783244237277692200,5.057692138671875,-0.021767595171928403,0.017348609685897826,0.059701458377391096
1783244237287703000,5.067703125,0.010190554624795914,0.021578648471087217,0.058733051736652844
1783244237297715000,5.07771484375,0.0075707275152206415,-0.008478928401321173,0.029812954461574552
1783244237307725800,5.087725830078125,0.0011415712505578994,-0.04014496338367462,0.0034340661019086837
1783244237317737200,5.0977373046875,0.005849895071983337,-0.004898001174628734,0.021406214513629673
1783244237327749000,5.1077490234375,-0.00743570295870304,0.010901187112182378,0.05576674927696585
1783244237337760000,5.117760009765625,0.01009703112244606,-0.026870179007947442,0.05655000860914588
1783244237347771000,5.12777099609375,0.04020166200697422,-0.0017076807007193565,0.06461699520871043
1783244237357783000,5.137782958984375,0.014239537754654884,0.03924757615253329,0.0902701996423304
1783244237367794000,5.1477939453125,-0.003890577697753906,-0.0024069150112569332,0.06879720350280404
1783244237377805000,5.15780517578125,0.012070377022027968,-0.03995236342102289,0.05258826537132263
1783244237387817000,5.16781689453125,-0.01021159741282463,-0.01643281001523137,0.05861278635784983
1783244237397828000,5.177828125,-0.06267477509975433,0.029551380915939805,0.0767873254738748
1783244237407840000,5.187840087890625,-0.07158288869857787,0.0508969512835145,0.09659384970590472
1783244237417851000,5.197850830078125,-0.018691256466507912,0.04523381095528602,0.10840177639946341
1783244237427862000,5.207862060546875,0.07314765379726887,0.039417379761487244,0.0769365246862173
1783244237437874200,5.217874267578125,0.15948387499153613,0.030608781014382837,0.04833469958007335
1783244237447885000,5.227885009765625,0.2282867775827646,-0.013771189590543508,0.03922843306064606
1783244237457896000,5.23789599609375,0.23015958571732043,-0.03988192853331566,0.05767609002962708
1783244237467907800,5.247907958984375,0.1783943271666765,-0.0327539763495326,0.08087912483215332
1783244237477919000,5.2579189453125,0.06582885521650314,-0.02559782098457217,0.08623699860349297
1783244237487930000,5.26793017578125,-0.05092763868272304,-0.01750891481414437,0.07682488100528717
1783244237497942000,5.27794189453125,-0.14548457573354243,-0.003675035250931978,0.09592880992591381
1783244237507953000,5.287952880859375,-0.22383155173957348,0.01241933659017086,0.07158654196038841
1783244237517963800,5.2979638671875,-0.24662439830601213,0.012020108139514922,-0.0004034662343561649
1783244237527976000,5.307975830078125,-0.27501579553186895,0.007381342422962189,-0.046159693628549575
1783244237537987000,5.317987060546875,-0.25331308228969573,0.01017871805652976,-0.06494841912016272
1783244237547999000,5.3279990234375,-0.1752659660130739,0.018488865762203932,-0.10698460307791828
1783244237558010000,5.338010009765625,-0.11917290739119052,0.003914396964758635,-0.12816256179362534
1783244237568021000,5.34802099609375,-0.06353694488704204,-0.019884557904303074,-0.13994783826395868
1783244237578033000,5.358032958984375,-0.05095043503642082,0.0004836918637156486,-0.12535963320210575
1783244237588044000,5.3680439453125,-0.0718126058012247,-0.00420431982204318,-0.12168810508251189
1783244237598055000,5.378054931640625,-0.14154957437217236,-0.01934635937437415,-0.10387553114667535
1783244237608067000,5.388067138671875,-0.1946937200605869,0.02411269699335098,-0.07104469016864895
1783244237618077400,5.398077392578125,-0.2356950080126524,0.057630935713648794,-0.08507949913144111
1783244237628088600,5.408088623046875,-0.21342764662504196,0.0873943519450724,-0.11787161553427576
1783244237638100500,5.4181005859375,-0.11328268030881881,0.05908566456660628,-0.12606018268689512
1783244237648111400,5.428111328125,0.009431845211982726,0.010013736753165721,-0.11661650090664624
1783244237658122200,5.438122314453125,0.09590016835331916,-0.050190118188410994,-0.0885129807114601
1783244237668134400,5.448134521484375,0.16330898623764514,-0.05902180555015802,-0.036499738749116654
1783244237678145500,5.4581455078125,0.1834925270885229,-0.025360505097359418,0.015618278761953115
1783244237688157400,5.468157470703125,0.11950842295587062,-0.030952187624573704,0.04027721146121621
1783244237698168600,5.47816845703125,0.042212417307496065,-0.05858443704620003,0.05237696070820093
1783244237708179500,5.488179443359375,-0.013975333860516548,-0.054564680010825393,0.05779357892945408
1783244237718191400,5.49819140625,-0.07607727750837802,-0.04188376987501979,0.05873728952035308
1783244237728202200,5.5082021484375,-0.13015139752328395,-0.04398863319978118,0.05856207908391952
1783244237738213400,5.51821337890625,-0.15292963104248045,-0.039758594414591786,0.0387635920278728
1783244237748225500,5.5282255859375,-0.16390929021835327,-0.052782180508226154,0.028911913968622683
1783244237758236400,5.538236328125,-0.12890578137636183,-0.042564591746032235,0.012072568979114294
1783244237768247300,5.548247314453125,-0.09076865068376064,-0.025056845975667236,-0.0072851885721087455
1783244237778259500,5.558259521484375,-0.06809680014848708,-0.03428250109106302,0.00774812990874052
1783244237788270600,5.5682705078125,-0.029319617986679074,-0.03962780764177441,0.014577537537366151
1783244237798281500,5.578281494140625,-0.046458968836069106,0.020515987675637004,0.031644407672435045
1783244237808293400,5.58829345703125,-0.07119242807626724,0.06797171246409416,0.011073036547750234
1783244237818304300,5.59830419921875,-0.13623393230736255,0.018825842631608247,0.001957709939032793
1783244237828316400,5.60831640625,-0.1250473523825407,-0.009433014255762099,-0.009209580763429403
1783244237838327300,5.618327392578125,-0.08987316314876079,0.00034019173979759216,0.0010568155765533446
1783244237848338400,5.62833837890625,-0.057626844060420984,0.029156097988039253,0.014037293180823326
1783244237858350600,5.6383505859375,-0.009788403564691543,0.022962357914447784,-0.02205576446354389
1783244237868361500,5.648361572265625,-0.02734568756520748,0.014882219572365282,-0.059020490375906225
1783244237878372400,5.658372314453125,-0.016124036327004432,0.06137596746087074,-0.05781783658787608
1783244237888384300,5.66838427734375,-0.02117255188822746,0.04932531805261969,-0.0469537666156888
1783244237898395400,5.6783955078125,-0.04928045599758625,0.029640374373644588,-0.06372019249945879
1783244237908406500,5.688406494140625,-0.09963409418463706,0.06354308236688375,-0.0738068483583629
1783244237918418400,5.69841845703125,-0.12046177815794944,0.13293226041346787,-0.04038666318506002
1783244237928429300,5.70842919921875,-0.08057166631817818,0.11844254729002714,-0.10211115182265638
1783244237938440400,5.7184404296875,0.007792845833301544,0.03386427567899227,-0.23428002664819358
1783244237948452400,5.728452392578125,0.007446808874607086,0.05211582555398345,-0.22664456333369015
1783244237958463500,5.73846337890625,-0.015957447588443755,0.13768939181268214,-0.10913272102251648
1783244237968475400,5.748475341796875,-0.0052712184011936185,0.17870529281198977,-0.08340908170118927
1783244237978486300,5.758486328125,-0.010919453421235084,0.1559894570045173,-0.0674373133264482
1783244237988497400,5.768497314453125,0.043019057515263553,0.10983400115966796,-0.0865038328461349
1783244237998509300,5.77850927734375,0.12350246102809906,0.061919134426862,-0.15526917990595102
1783244238008520400,5.7885205078125,0.12915712578892707,0.0697137338258326,-0.15915391238480806
1783244238018531300,5.79853125,0.10212298839092254,0.11068301920443772,-0.0700384357355535
1783244238028543500,5.80854345703125,0.0508686019718647,0.1381900348111987,0.005441168140619993
1783244238038554400,5.818554443359375,-0.022960019826889038,0.13556772348359225,0.025382570798695086
1783244238048565500,5.8285654296875,-0.09651566990315913,0.09873933730199932,-0.0125613754093647
1783244238058577400,5.838577392578125,-0.09820669173002243,0.07564093191772699,-0.0378387322679162
1783244238068588500,5.848588623046875,-0.10579846203327178,0.026489655257761476,-0.029963614978641268
1783244238078599400,5.858599365234375,-0.06245674843490123,0.01873378043398261,-0.029105390714108944
1783244238088611300,5.868611328125,-0.0677823273718357,0.05902925820425153,0.012617927902191876
1783244238098622200,5.878622314453125,-0.012864742270112037,0.0682508216664195,0.08735124345570802
1783244238108634400,5.88863427734375,0.05456394935846329,0.02142272725701332,0.1404461431749165
1783244238118645500,5.8986455078125,0.10706044479310511,-0.013032500052452087,0.1893516283802688
1783244238128656400,5.908656494140625,0.12711655987203122,-0.03679126904159784,0.14251418162062762
1783244238138668300,5.918668212890625,0.10683189673423767,-0.06753332104682921,0.07710282116383314
1783244238148679400,5.928679443359375,0.0963777227371931,-0.08684490136876702,0.041302901247143746
1783244238158690600,5.938690673828125,0.10078969396054745,-0.07110650335848331,0.024712270321696997
1783244238168702500,5.948702392578125,0.07411620656847953,-0.03715966396257281,-0.013369184660911559
1783244238178713300,5.95871337890625,0.056171969076991075,-0.008167524364590645,-0.018616145403683185
1783244238188724500,5.968724365234375,0.051469490474462504,-0.01707373826727271,0.054568479403108355
1783244238198736400,5.978736328125,-0.006465396621823311,-0.0799811530791223,0.09183891026377677
1783244238208747300,5.988747314453125,-0.13678455192744732,-0.11661211699247359,0.0623491964071989
1783244238218759400,5.998759521484375,-0.25135961013436314,-0.041430034758150575,0.06582300999760628
1783244238228770600,6.0087705078125,-0.3242944979637861,0.026253508414328098,0.07778072042539716
1783244238238781400,6.018781494140625,-0.35442952398657795,0.03414353101179003,0.038777328292280436
1783244238248793300,6.02879345703125,-0.3249830647498369,0.031445816360414026,-0.024761077899485825
1783244238258804200,6.03880419921875,-0.25262977620065213,0.0032816520191729067,-0.1013099184423685
1783244238268815600,6.048815673828125,-0.15130992088615894,0.019988456670194863,-0.12450476993843912
1783244238278827500,6.05882763671875,-0.03490297107696533,0.07160743861794472,-0.10498407691046595
1783244238288838400,6.06883837890625,0.04546352805793285,0.1166816750973463,-0.09020809419155121
1783244238298849300,6.078849365234375,0.06726736358702183,0.07325140643268824,-0.0900790609844029
1783244238308861400,6.088861328125,0.06595920359790325,0.06776333041042089,-0.10484152663461864
1783244238318872600,6.09887255859375,0.013905191233754157,0.09921206938028335,-0.06048902855850756
1783244238328883500,6.108883544921875,-0.0037584757506847377,0.1538790407218039,-0.012001403439044952
1783244238338895400,6.118895263671875,0.03709083651006222,0.14636749604791402,0.021795506092160938
1783244238348906500,6.128906494140625,0.0823041891992092,0.09537979774102569,0.002656725053861737
1783244238358918400,6.13891845703125,0.1019984852284193,0.08381459376215934,-0.07122545356303453
1783244238368929300,6.14892919921875,0.1083598369538784,0.09365253555700183,-0.07880472971089184
1783244238378940400,6.1589404296875,0.09923837286531925,0.08694353943765162,-0.057487873981148
1783244238388952600,6.16895263671875,0.04207388561964035,0.0453133059322834,-0.050742345243692394
1783244238398963500,6.17896337890625,-0.034305005183815955,0.045161914762854576,-0.041687662781029935
1783244238408974300,6.188974365234375,-0.12641747169196604,0.06014817923158407,-0.027585706866160034
1783244238418986200,6.198986328125,-0.15639467680454253,0.09724223061203956,0.013510785088688134
1783244238428997600,6.20899755859375,-0.10812661271989345,0.0721541127152741,-0.012666297088563441
1783244238439008500,6.219008544921875,-0.08098550781607627,-0.013958090464770792,-0.07322196114249527
1783244238449020400,6.2290205078125,-0.04001227691471577,-0.05843757592141628,-0.11987776772491633
1783244238459031300,6.23903125,0.02659633050262928,-0.02218450540974736,-0.0745223762165755
1783244238469042200,6.249042236328125,0.018583704438805578,0.026413082890212533,-0.011339651594683527
1783244238479054300,6.259054443359375,-0.041725510573387144,0.013943915808945894,0.02406820026449859
1783244238489065500,6.2690654296875,-0.09306348362267017,-0.018803923060745,0.04651917459070682
1783244238499077400,6.279077392578125,-0.122141109547019,0.0019546411991119383,0.04339994659163057
1783244238509088500,6.289088623046875,-0.27415128765702246,-0.0021441724218428135,0.08380122282393276
1783244238519099400,6.299099365234375,-0.32010172244906426,-0.04972995333075523,0.03884703252762556
1783244238529111300,6.309111328125,-0.18177870890796183,-0.0832154588252306,-0.1097349977646023
1783244238539122400,6.319122314453125,0.02863397381007671,-0.050112669038027524,-0.11988887364082038
1783244238549133300,6.32913330078125,0.1974006409317255,-0.01047697035074234,-0.05272504349350929
1783244238559145500,6.3391455078125,0.30084406427145005,0.012298925080895423,-0.024820845262706278
1783244238569156400,6.34915625,0.25190906071066854,-0.010890519587695598,-0.026823124995827674
1783244238579167500,6.35916748046875,0.14359890811741352,-0.055645460984855885,0.0054030280873179435
1783244238589179400,6.369179443359375,0.0749193396449089,-0.07956044344902038,0.054564899206534026
1783244238599190500,6.3791904296875,0.02232639809846878,-0.05888225094899535,0.11928630463778972
1783244238609201400,6.389201416015625,0.002179097604751587,0.03813099321275949,0.13275938806459306
1783244238619213800,6.3992138671875,-0.11024901170134543,0.14718655734583735,0.07208952304646372
1783244238629225000,6.409224853515625,-0.2526794605612755,0.0030599720925092696,0.011884499061107634
1783244238639236900,6.41923681640625,-0.2821148138821125,-0.11616671131253242,-0.043016646362468595
