time,seconds_elapsed,z,y,x
1783244278809193700,0.06419384765625,0.035787034779787064,-0.032488904893398285,-0.019040945917367935
1783244278819204900,0.074204833984375,0.0385814905166626,-0.0210247952491045,-0.018034804612398148
1783244278829217000,0.084217041015625,0.052697841078042984,-0.0054334369488060474,0.004945036955177784
1783244278839229000,0.09422900390625,0.05626487731933594,-0.00233511533588171,0.03261980786919594
1783244278849240800,0.10424072265625,0.045957136899232864,-0.0026743547059595585,0.053247544914484024
1783244278859251700,0.114251708984375,0.027778666466474533,0.00693033542484045,0.06352362036705017
1783244278869264000,0.124263916015625,0.006315828766673803,0.014545654878020287,0.06986307352781296
1783244278879275800,0.13427587890625,0.001703233690932393,0.04501860961318016,0.07052087038755417
1783244278889286700,0.14428662109375,0.004141532815992832,0.0636124536395073,0.06452622264623642
1783244278899298800,0.154298828125,0.013243418186903,0.05630101263523102,0.049464449286460876
1783244278909310700,0.164310791015625,0.027159439399838448,0.037317413836717606,0.027027033269405365
1783244278919322600,0.174322509765625,0.041153281927108765,0.01941564679145813,0.0012777261435985565
1783244278929334000,0.184333984375,0.0437358133494854,0.006494444794952869,-0.01852584071457386
1783244278939346000,0.194345947265625,0.04211687669157982,0.006295773200690746,-0.024673480540513992
1783244278949357800,0.20435791015625,0.04313858970999718,0.020604759454727173,-0.02241811528801918
1783244278959369000,0.214368896484375,0.04604383558034897,0.03564362972974777,-0.005215425975620747
1783244278969380900,0.224380859375,0.05015844479203224,0.03332832083106041,0.014219483360648155
1783244278979392800,0.234392822265625,0.05262985825538635,0.02965741977095604,0.02822052128612995
1783244278989404000,0.24440380859375,0.04944562911987305,0.03083467110991478,0.028791075572371483
1783244278999415800,0.254415771484375,0.04284977912902832,0.0299888513982296,0.017567448318004608
1783244279009427700,0.264427734375,0.03851020336151123,0.01983671635389328,0.006810247898101807
1783244279019439900,0.27443994140625,0.038953088223934174,0.009070889092981815,-0.0016460870392620564
1783244279029451000,0.284450927734375,0.04016376659274101,0.010512302629649639,-0.0060541145503520966
1783244279039463000,0.294462890625,0.045588359236717224,0.019184354692697525,-0.007024570368230343
1783244279049475000,0.30447509765625,0.051298920065164566,0.007416842505335808,0.0014321100898087025
1783244279059486000,0.31448583984375,0.06149669736623764,-0.006835596635937691,0.015024084597826004
1783244279069497900,0.324497802734375,0.06046196445822716,-0.005808891728520393,0.023406989872455597
1783244279079509800,0.334509765625,0.0471634715795517,0.003968372009694576,0.025687720626592636
1783244279089521000,0.34452099609375,0.03253663703799248,-0.012789197266101837,0.028924105688929558
1783244279099532800,0.35453271484375,0.025541044771671295,-0.03851347044110298,0.03567148745059967
1783244279109544700,0.364544677734375,0.02587594836950302,-0.036372654139995575,0.03365180268883705
1783244279119556900,0.374556884765625,0.017636394128203392,-0.009812681004405022,0.02569587528705597
1783244279129567700,0.384567626953125,0.009516952559351921,0.020757602527737617,0.017832938581705093
1783244279139579600,0.39457958984375,0.009362755343317986,0.0311130378395319,0.008865009993314743
1783244279149591800,0.404591796875,0.013043642044067383,0.03103361278772354,0.0006904136389493942
1783244279159603000,0.41460302734375,0.01626633293926716,0.03415004536509514,-0.013418215326964855
1783244279169614800,0.42461474609375,0.01641915924847126,0.02892439067363739,-0.025382250547409058
1783244279179627000,0.434626953125,0.018350750207901,0.002526340540498495,-0.026882143691182137
1783244279189639000,0.444638916015625,0.02587524615228176,-0.02559930458664894,-0.012647015042603016
1783244279199649800,0.45464990234375,0.025790290907025337,-0.033553365617990494,0.0013974313624203205
1783244279209662000,0.464661865234375,0.01721525564789772,-0.01989242248237133,0.01499190554022789
1783244279219673900,0.474673828125,0.004077083431184292,0.007606580853462219,0.022663140669465065
1783244279229684700,0.484684814453125,-0.004382525570690632,0.0241171196103096,0.026449788361787796
1783244279239696600,0.494696533203125,-0.005047517362982035,0.015773169696331024,0.03027328848838806
1783244279249708800,0.504708740234375,-0.003073927480727434,0.005390845239162445,0.03219226002693176
1783244279259720000,0.514719970703125,0.003997297957539558,0.006379410624504089,0.028832152485847473
1783244279269731800,0.52473193359375,0.009531306102871895,0.012686580419540405,0.021575521677732468
1783244279279744000,0.534743896484375,0.01643555238842964,0.019290421158075333,0.018319806084036827
1783244279289756000,0.544755859375,0.011648774147033691,0.004459057934582233,0.0247882641851902
1783244279299766800,0.554766845703125,0.015944186598062515,0.022562962025403976,0.021383412182331085
1783244279309779000,0.564779052734375,0.016934406012296677,0.05766056105494499,0.008755422197282314
1783244279319790800,0.574790771484375,0.01358201913535595,0.047863591462373734,-0.0035806060768663883
1783244279329801700,0.5848017578125,0.006681310944259167,0.035282157361507416,-0.017903827130794525
1783244279339814000,0.59481396484375,0.006637634709477425,0.03219981491565704,-0.029559684917330742
1783244279349825800,0.60482568359375,0.009345654398202896,0.01687890663743019,-0.022829722613096237
1783244279359837700,0.614837646484375,0.014509523287415504,-0.0015605541411787271,-0.014074847102165222
1783244279369848800,0.624848876953125,0.015416841953992844,-0.011063173413276672,0.00016968650743365288
1783244279379861000,0.634861083984375,0.015465045347809792,-0.01605074107646942,0.010927258990705013
1783244279389873000,0.644872802734375,0.014872167259454727,-0.017644444480538368,0.021864674985408783
1783244279399883800,0.6548837890625,0.009249435737729073,-0.008204870857298374,0.023093990981578827
1783244279409896000,0.66489599609375,0.002790894592180848,-0.002628765068948269,0.021928543224930763
1783244279419907800,0.674907958984375,0.0003634232562035322,-0.0010665548034012318,0.021163949742913246
1783244279429918700,0.684918701171875,-0.00040159327909350395,0.0019708017352968454,0.016530893743038177
1783244279439931000,0.694930908203125,0.004993704613298178,0.012560063041746616,0.008841817267239094
1783244279449942800,0.70494287109375,0.013769976794719696,0.006766300182789564,0.0012197773903608322
1783244279459954700,0.71495458984375,0.024460438638925552,-0.011434008367359638,-0.005875149741768837
1783244279469965800,0.7249658203125,0.0274631530046463,-0.02061792090535164,-0.008572399616241455
1783244279479977700,0.734977783203125,0.023876674473285675,-0.022235523909330368,-0.007806740701198578
1783244279489989600,0.74498974609375,0.01827920600771904,-0.02056320197880268,0.002507941797375679
1783244279500001000,0.7550009765625,0.019750868901610374,-0.00689559243619442,0.013925179839134216
1783244279510013000,0.765012939453125,0.021404994651675224,0.014279610477387905,0.02016976661980152
1783244279520024800,0.77502490234375,0.018090689554810524,0.027052130550146103,0.01865922287106514
1783244279530035700,0.78503564453125,0.012906732968986034,0.024871932342648506,0.00966694951057434
1783244279540048000,0.7950478515625,0.008477896451950073,0.01936744526028633,-0.00237160362303257
1783244279550059800,0.805059814453125,0.0076280077919363976,0.01822960190474987,-0.013249075040221214
1783244279560072000,0.815072021484375,0.008926831185817719,0.016821322962641716,-0.01580411195755005
1783244279570082800,0.825082763671875,0.01475604996085167,0.013867557048797607,-0.010227258317172527
1783244279580094700,0.8350947265625,0.02143365889787674,0.016910750418901443,-0.0050862920470535755
1783244279590107000,0.84510693359375,0.021434616297483444,0.01206111814826727,0.004717803560197353
1783244279600118000,0.855117919921875,0.014575112611055374,0.007636276073753834,0.00927447248250246
1783244279610130000,0.8651298828125,0.0029633105732500553,0.015415770001709461,0.011686605401337147
1783244279620141800,0.875141845703125,-0.007717563305050135,0.020178034901618958,0.01303123589605093
1783244279630153000,0.885153076171875,-0.018835749477148056,0.02506634220480919,0.012811875902116299
1783244279640164900,0.895164794921875,-0.023955410346388817,0.02477765642106533,0.00899876281619072
1783244279650176800,0.9051767578125,-0.02617654949426651,0.016957102343440056,0.009412124752998352
1783244279660188400,0.9151884765625,-0.01678810827434063,0.008869880810379982,0.009504538029432297
1783244279670199300,0.92519921875,-0.004446673206984997,0.005573940463364124,0.011210654862225056
1783244279680211500,0.93521142578125,0.005717281252145767,-0.0002778233028948307,0.016157209873199463
1783244279690223400,0.945223388671875,0.017823006957769394,-0.0007876330055296421,0.023131461814045906
1783244279700234500,0.955234375,0.024020448327064514,0.008834367617964745,0.020294928923249245
1783244279710246700,0.96524658203125,0.018308304250240326,0.009045847691595554,0.01341866422444582
1783244279720258600,0.975258544921875,0.00906766764819622,0.0066396817564964294,0.0044257016852498055
1783244279730269400,0.98526953125,-0.0037140375934541225,0.009186252020299435,-0.005713732913136482
1783244279740281600,0.995281494140625,-0.008906403556466103,0.012412937358021736,-0.013155403546988964
1783244279750293500,1.00529345703125,-0.006879002321511507,0.01693134568631649,-0.014907721430063248
1783244279760305400,1.015305419921875,0.0005802453961223364,0.02583189681172371,-0.01390104554593563
1783244279770316500,1.025316650390625,0.003414089558646083,0.0372454933822155,-0.008558116853237152
1783244279780328400,1.035328369140625,-0.000987849198281765,0.04345305263996124,-0.008347727358341217
1783244279790340400,1.04534033203125,-0.0007212907075881958,0.04128306359052658,-0.013026615604758263
1783244279800351700,1.055351806640625,0.002725904807448387,0.015223769471049309,-0.01153710950165987
1783244279810363600,1.06536376953125,0.0040061031468212605,-0.014482120983302593,-0.003073711646720767
1783244279820375600,1.07537548828125,0.008836278691887856,-0.030114345252513885,0.007151495665311813
1783244279830386400,1.085386474609375,0.0032645887695252895,-0.02260444313287735,0.014133574441075325
1783244279840398600,1.095398681640625,-0.006711346562951803,-0.00227520358748734,0.01981889083981514
1783244279850410500,1.105410400390625,-0.01837041787803173,-0.0002025363501161337,0.028735019266605377
1783244279860422700,1.115422607421875,-0.022745192050933838,-0.012602480128407478,0.03766433149576187
1783244279870433500,1.12543359375,-0.02751546911895275,-0.012723845429718494,0.03821409493684769
1783244279880445400,1.135445556640625,-0.031567465513944626,-0.01874551922082901,0.03565292805433273
1783244279890457600,1.14545751953125,-0.02778889425098896,-0.029448237270116806,0.03248147666454315
1783244279900468500,1.155468505859375,-0.0262738224118948,-0.016856547445058823,0.02163495123386383
1783244279910480400,1.16548046875,-0.02566537633538246,0.01937485672533512,0.005093119572848082
1783244279920492300,1.1754921875,-0.020219743251800537,0.034255534410476685,-0.010133769363164902
1783244279930503700,1.185503662109375,-0.010416802018880844,0.01483829878270626,-0.01959267631173134
1783244279940515600,1.195515625,-0.0032092230394482613,0.003545963205397129,-0.026848990470170975
1783244279950527500,1.205527587890625,-0.009236771613359451,0.007613600231707096,-0.031154930591583252
1783244279960539600,1.21553955078125,-0.007980292662978172,-0.0043482547625899315,-0.026395592838525772
1783244279970550500,1.225550537109375,0.004729780834168196,-0.034466952085494995,-0.013082167133688927
1783244279980562400,1.2355625,0.005922877229750156,-0.042169611901044846,0.004747429862618446
1783244279990574600,1.24557470703125,-0.004785830620676279,-0.019510962069034576,0.011929956264793873
1783244280000585500,1.25558544921875,-0.008574709296226501,-0.00843301136046648,0.01766826957464218
1783244280010597400,1.265597412109375,-0.0088857002556324,-0.005210548639297485,0.017964953556656837
1783244280020609500,1.275609619140625,-0.011059639044106007,0.01434557605534792,0.004897620063275099
1783244280030620700,1.28562060546875,-0.017536982893943787,0.029641319066286087,-0.012078214436769485
1783244280040632600,1.295632568359375,-0.01415956299751997,0.0008360362844541669,-0.022369200363755226
1783244280050644500,1.30564453125,-0.006008537951856852,-0.03687259554862976,-0.025536339730024338
1783244280060656600,1.31565673828125,-0.002955756615847349,-0.05106378346681595,-0.023940308019518852
1783244280070667500,1.32566748046875,-0.0007580257952213287,-0.04573405161499977,-0.010170502588152885
1783244280080679400,1.335679443359375,0.008555315434932709,-0.03806334733963013,0.008566432632505894
1783244280090691600,1.345691650390625,0.018664833158254623,-0.024665001779794693,0.022651292383670807
1783244280100702500,1.355702392578125,0.013416009023785591,-0.010155301541090012,0.025247609242796898
1783244280110714400,1.36571435546875,-0.0005568380001932383,-0.00010213186033070087,0.01616165041923523
1783244280120726500,1.3757265625,-0.008013423532247543,-0.014854446984827518,0.011008966714143753
1783244280130737700,1.385737548828125,-0.010471520945429802,-0.027618976309895515,0.0039689005352556705
1783244280140749600,1.39574951171875,-0.009401995688676834,-0.016305601224303246,-0.0043731858022511005
1783244280150761700,1.40576171875,-0.0034332280047237873,-0.002176254987716675,-0.004155142232775688
1783244280160772600,1.415772705078125,0.011263959109783173,0.001239781966432929,-0.006002577021718025
1783244280170784500,1.425784423828125,0.02111632376909256,0.008652957156300545,-0.012644766829907894
1783244280180796700,1.435796630859375,0.026930270716547966,0.013458365574479103,-0.01944221928715706
1783244280190808600,1.44580859375,0.03092999756336212,0.01230241172015667,-0.02340053580701351
1783244280200819500,1.4558193359375,0.039201244711875916,-0.000982767203822732,-0.022880153730511665
1783244280210831400,1.465831298828125,0.041591826826334,-0.0056990161538124084,-0.019602887332439423
1783244280220843500,1.475843505859375,0.040539879351854324,0.0012236048933118582,-0.01676422357559204
1783244280230854400,1.4858544921875,0.04062144458293915,0.00032359943725168705,-0.009810916148126125
1783244280240866300,1.4958662109375,0.043126147240400314,-0.013415382243692875,-0.0007417874876409769
1783244280250878500,1.50587841796875,0.04198088496923447,-0.021991189569234848,0.011602498590946198
1783244280260889600,1.5158896484375,0.03440578654408455,-0.024183237925171852,0.023261817172169685
1783244280270901500,1.525901611328125,0.029403410851955414,-0.021333759650588036,0.03200950473546982
1783244280280913700,1.53591357421875,0.020872773602604866,-0.009023563005030155,0.03334081172943115
1783244280290924500,1.545924560546875,0.01526661030948162,0.015586776658892632,0.02802799828350544
1783244280300936400,1.5559365234375,0.01568765565752983,0.03691816329956055,0.015142558142542839
1783244280310948600,1.565948486328125,0.015086201019585133,0.03535368666052818,-0.0026679730508476496
1783244280320960500,1.57596044921875,0.017414603382349014,0.023380912840366364,-0.020780663937330246
1783244280330971400,1.585971435546875,0.015269136056303978,0.020658979192376137,-0.03791828081011772
1783244280340983600,1.595983642578125,0.013447800651192665,0.004088792018592358,-0.04023149982094765
1783244280350995500,1.605995361328125,0.015930864959955215,-0.014918488450348377,-0.02948939800262451
1783244280361006600,1.616006591796875,0.011614680290222168,-0.023233678191900253,-0.008038168773055077
1783244280371018500,1.6260185546875,-0.004440486431121826,-0.02825574204325676,0.01460268720984459
1783244280381030700,1.63603076171875,-0.02246049977838993,-0.02494543232023716,0.03451088070869446
1783244280391041500,1.64604150390625,-0.03632447123527527,-0.003916419111192226,0.04229143261909485
1783244280401053400,1.656053466796875,-0.04560345411300659,0.02744443342089653,0.03470355272293091
1783244280411065600,1.666065673828125,-0.04818704351782799,0.05171801149845123,0.017804278060793877
1783244280421077500,1.676077392578125,-0.04472813010215759,0.05364613980054855,-0.0033694496378302574
1783244280431088400,1.68608837890625,-0.03908337652683258,0.03237282484769821,-0.015589725226163864
1783244280441100500,1.6961005859375,-0.03466812148690224,0.006644825451076031,-0.024442072957754135
1783244280451112400,1.706112548828125,-0.03339962661266327,-0.019872771576046944,-0.024169418960809708
1783244280461123600,1.71612353515625,-0.03425183892250061,-0.05124081298708916,-0.003471064381301403
1783244280471135700,1.7261357421875,-0.03740009292960167,-0.05079425871372223,0.024661216884851456
1783244280481147600,1.736147705078125,-0.03879718855023384,-0.022308290004730225,0.05484761670231819
1783244280491158500,1.746158447265625,-0.035525843501091,0.007531376555562019,0.07414611428976059
1783244280501170400,1.75617041015625,-0.02829349786043167,0.014591416344046593,0.07924819737672806
1783244280511182600,1.7661826171875,-0.022654956206679344,0.008522666990756989,0.06396535784006119
1783244280521193500,1.776193359375,-0.016987482085824013,-0.006176117807626724,0.03748953714966774
1783244280531205400,1.786205322265625,-0.011039545759558678,-0.028437862172722816,0.009064832702279091
1783244280541217500,1.796217529296875,-0.007032820489257574,-0.04656679928302765,-0.005844874307513237
1783244280551229400,1.8062294921875,-0.007806315552443266,-0.029079554602503777,-0.012204079888761044
1783244280561240300,1.816240234375,-0.0120569858700037,0.01884802244603634,-0.01088874414563179
1783244280571252500,1.82625244140625,-0.009907452389597893,0.052132271230220795,0.0003795912489295006
1783244280581264400,1.836264404296875,-0.0003240671940147877,0.0594295971095562,0.009403979405760765
1783244280591275500,1.846275634765625,0.007573316805064678,0.04976269602775574,0.012047519907355309
1783244280601287700,1.85628759765625,0.014098860323429108,0.039151329547166824,0.005299868993461132
1783244280611299600,1.866299560546875,0.01889735460281372,0.02254754863679409,-0.01098073273897171
1783244280621310500,1.876310546875,0.020915763452649117,0.007676457986235619,-0.020812325179576874
1783244280631322600,1.886322509765625,0.019884394481778145,0.004833678714931011,-0.021870603784918785
1783244280641334500,1.89633447265625,0.02148868329823017,0.01641416735947132,-0.016803406178951263
1783244280651346400,1.906346435546875,0.01959828846156597,0.014549975283443928,-0.0022783514577895403
1783244280661357600,1.916357666015625,0.016629396006464958,0.0011177891865372658,0.01644473522901535
1783244280671369500,1.926369384765625,0.014314278960227966,-0.00030715856701135635,0.0294039249420166
1783244280681381600,1.936381591796875,0.01265007071197033,0.0037150136195123196,0.0323062390089035
1783244280691392800,1.946392822265625,0.010014589875936508,-0.003385316813364625,0.03439561277627945
1783244280701404700,1.95640478515625,0.01182953454554081,-0.01538152527064085,0.036655306816101074
1783244280711416600,1.96641650390625,0.01058292482048273,-0.016318349167704582,0.036098312586545944
1783244280721427700,1.976427734375,0.007248114328831434,-0.007194093428552151,0.0336572602391243
1783244280731439600,1.986439697265625,0.004324899986386299,-0.00574687821790576,0.027905115857720375
1783244280741451500,1.996451416015625,0.0012558730086311698,-0.011106489226222038,0.023615028709173203
1783244280751462700,2.006462646484375,-0.004662010353058577,-0.008842412382364273,0.015705114230513573
1783244280761474600,2.016474609375,-0.00696750869974494,0.006357045844197273,0.00952604878693819
1783244280771486500,2.026486572265625,-0.0018139122985303402,0.01077190414071083,0.009455051273107529
1783244280781497600,2.03649755859375,0.0020769662223756313,0.00815561506897211,0.011079313233494759
1783244280791509500,2.046509521484375,0.006212329491972923,0.01316206343472004,0.008324380964040756
1783244280801521700,2.056521728515625,0.0034253313206136227,0.007911907508969307,0.009694577194750309
1783244280811533600,2.066533447265625,0.002158240182325244,-0.0066183083690702915,0.013586833141744137
1783244280821544700,2.076544677734375,-0.002289238851517439,-0.00048211938701570034,0.011720757000148296
1783244280831556600,2.086556640625,-0.006999264936894178,0.01961302012205124,0.0093916030600667
1783244280841568800,2.09656884765625,-0.005616551730781794,0.032705385237932205,0.00457927118986845
1783244280851579600,2.10657958984375,0.001221195561811328,0.025129210203886032,0.0017452300526201725
1783244280861591600,2.116591552734375,0.001438775914721191,0.0029030004516243935,0.0007255054078996181
1783244280871603500,2.126603515625,-0.001501128077507019,-0.01389248389750719,0.0042352378368377686
1783244280881614600,2.136614501953125,-0.008632807061076164,-0.02047954685986042,0.012515803799033165
1783244280891626500,2.14662646484375,-0.01045125350356102,-0.013835485093295574,0.024134330451488495
1783244280901638400,2.156638427734375,-0.011940494179725647,0.0031815823167562485,0.03184151649475098
1783244280911649800,2.16664990234375,-0.009482832625508308,0.010332230478525162,0.03784504905343056
1783244280921661700,2.17666162109375,-0.004737345036119223,0.007442967034876347,0.03689749538898468
1783244280931673600,2.186673583984375,-0.0033208662644028664,0.0036963634192943573,0.02511894889175892
1783244280941685800,2.196685791015625,-0.004524082411080599,0.006743552163243294,0.0071950750425457954
1783244280951696600,2.206696533203125,-0.002216832712292671,0.012164279818534851,-0.00788864679634571
1783244280961708500,2.21670849609375,0.004535079468041658,0.012537655420601368,-0.017980162054300308
1783244280971720700,2.226720703125,0.009828538633883,0.010163551196455956,-0.01714126393198967
1783244280981731600,2.236731689453125,0.008616533130407333,0.005241230130195618,-0.015269063413143158
1783244280991743500,2.246743408203125,0.00485055148601532,0.0030667849350720644,-0.010036861523985863
1783244281001755600,2.256755615234375,-0.005847100634127855,0.0101902075111866,-0.008104737848043442
1783244281011766800,2.266766845703125,-0.011311640962958336,0.012911958619952202,-0.002913171425461769
1783244281021778700,2.27677880859375,-0.012931641191244125,0.012739119119942188,0.0020570862106978893
1783244281031790600,2.28679052734375,-0.011608914472162724,0.009153532795608044,0.0066098058596253395
1783244281041801700,2.2968017578125,-0.008498076349496841,-0.005998522974550724,0.014653618447482586
1783244281051813600,2.306813720703125,0.00032802764326334,-0.025995958596467972,0.01943919248878956
1783244281061825500,2.316825439453125,0.0019011569675058126,-0.02326754853129387,0.017992563545703888
1783244281071837700,2.326837646484375,0.0026377371978014708,-0.003691810881718993,0.012334601953625679
1783244281081848600,2.3368486328125,0.00124943139962852,0.0064321961253881454,-0.002377233002334833
1783244281091860500,2.346860595703125,-0.00301724998280406,0.014240161515772343,-0.012875698506832123
1783244281101872600,2.35687255859375,-0.013924225233495235,0.008364695124328136,-0.016790011897683144
1783244281111883500,2.366883544921875,-0.017252927646040916,-0.012130802497267723,-0.013681710697710514
1783244281121895400,2.3768955078125,-0.013355657458305359,-0.030751893296837807,0.000690836925059557
1783244281131907600,2.386907470703125,-0.012196607887744904,-0.030458683148026466,0.013891109265387058
1783244281141918700,2.396918701171875,-0.013533782213926315,-0.015014748089015484,0.022427339106798172
1783244281151930600,2.4069306640625,-0.01741942949593067,0.0021228992845863104,0.023915544152259827
1783244281161942500,2.416942626953125,-0.023199288174510002,0.01184423640370369,0.015826458111405373
1783244281171953700,2.42695361328125,-0.03656189516186714,0.014571191743016243,0.006844210904091597
1783244281181965600,2.436965576171875,-0.04034837707877159,0.00024018960539251566,0.004809288773685694
1783244281191977500,2.4469775390625,-0.0390016995370388,-0.021607033908367157,0.00633199280127883
1783244281201988600,2.456988525390625,-0.0361662320792675,-0.025582866743206978,0.012411989271640778
1783244281212000500,2.46700048828125,-0.03232531249523163,-0.011643717996776104,0.017854690551757812
1783244281222012400,2.477012451171875,-0.025638114660978317,-0.0008190334774553776,0.020831305533647537
1783244281232024600,2.487024658203125,-0.02055705524981022,0.012041180394589901,0.01319270208477974
1783244281242035700,2.49703564453125,-0.0214657261967659,0.02796235680580139,0.001726195216178894
1783244281252047600,2.507047607421875,-0.01863887719810009,0.03002278506755829,-0.013492673635482788
1783244281262059800,2.517059814453125,-0.009099699556827545,0.01931288279592991,-0.024788737297058105
1783244281272070700,2.527070556640625,0.0007629985921084881,0.011106795631349087,-0.0314997099339962
1783244281282082600,2.53708251953125,0.008626780472695827,-0.0037192883901298046,-0.02986186556518078
1783244281292094700,2.5470947265625,0.009753549471497536,-0.012501941993832588,-0.019545722752809525
1783244281302105600,2.557105712890625,0.006429125554859638,-0.01641305908560753,-0.0017574045341461897
1783244281312117500,2.567117431640625,0.0031522936187684536,-0.014187308959662914,0.016921833157539368
1783244281322129400,2.57712939453125,0.0008902046829462051,-0.005526176653802395,0.03220704570412636
1783244281332140800,2.587140869140625,-0.004442865494638681,-0.002561367815360427,0.034704968333244324
1783244281342152700,2.597152587890625,-0.00530892563983798,-0.0026758837047964334,0.027714701369404793
1783244281352164600,2.60716455078125,-0.007378201466053724,-0.0019384545739740133,0.01410088874399662
1783244281362175700,2.61717578125,-0.01013617031276226,-0.01468088012188673,0.00621420331299305
1783244281372187600,2.627187744140625,-0.012160721234977245,-0.0280217994004488,0.005534155294299126
1783244281382199600,2.637199462890625,-0.008971585892140865,-0.03597426414489746,0.013547341339290142
1783244281392211700,2.647211669921875,-0.008325519040226936,-0.04990773648023605,0.02788672223687172
1783244281402222600,2.65722265625,-0.012878458946943283,-0.04935859143733978,0.04054872319102287
1783244281412234500,2.667234375,-0.02582939714193344,-0.03374733030796051,0.047102637588977814
1783244281422246700,2.67724658203125,-0.03923175483942032,-0.014364045113325119,0.04762328416109085
1783244281432257500,2.687257568359375,-0.043436307460069656,0.004104419145733118,0.03689224272966385
1783244281442269400,2.69726953125,-0.04485843703150749,0.019722795113921165,0.02336125448346138
1783244281452281600,2.707281494140625,-0.04216397553682327,0.025362882763147354,0.003992892801761627
1783244281462292700,2.717292724609375,-0.03479287773370743,0.024096816778182983,-0.01286678109318018
1783244281472304600,2.7273046875,-0.018483497202396393,0.016864225268363953,-0.0223929975181818
1783244281482316500,2.737316650390625,-0.006877974607050419,0.0071900272741913795,-0.028743570670485497
1783244281492327700,2.74732763671875,-0.0015480509027838707,0.0030427323654294014,-0.023333881050348282
1783244281502339600,2.757339599609375,0.00030204723589122295,-0.006618683226406574,-0.012425573542714119
1783244281512351500,2.7673515625,-0.0009348932653665543,-0.013674936257302761,0.0012137736193835735
1783244281522362600,2.777362548828125,-0.00587239395827055,-0.01009218581020832,0.013552997261285782
1783244281532374500,2.78737451171875,-0.007853883318603039,-0.0022377835121005774,0.022796597331762314
1783244281542386400,2.797386474609375,-0.009526615031063557,0.011662585660815239,0.025251764804124832
1783244281552397600,2.8073974609375,-0.004130112938582897,0.020430292934179306,0.0199278537184
1783244281562409700,2.81740966796875,0.0028625489212572575,0.015533538535237312,0.0105252955108881
1783244281572421600,2.827421630859375,0.007541554048657417,0.007068741135299206,0.0017962208949029446
1783244281582433800,2.837433837890625,0.005855772644281387,-0.00429549952968955,-0.00636796560138464
1783244281592444700,2.847444580078125,0.003366280347108841,-0.015598861500620842,-0.007551988121122122
1783244281602456600,2.85745654296875,0.001435488578863442,-0.01493014208972454,-0.0065727438777685165
1783244281612468500,2.867468505859375,0.0030937970150262117,0.0009441730799153447,-0.003097895998507738
1783244281622479600,2.877479736328125,0.0018498345743864775,0.023944297805428505,-0.0019090608693659306
1783244281632491500,2.887491455078125,0.0020972946658730507,0.031694184988737106,-0.0009265483822673559
1783244281642503400,2.89750341796875,0.009489164687693119,0.02334837056696415,0.0013991901651024818
1783244281652514800,2.907514892578125,0.018027206882834435,0.007533099967986345,0.00138766597956419
1783244281662527200,2.91752734375,0.022794798016548157,-0.010913285426795483,-0.000004102010279893875
1783244281672539400,2.927539306640625,0.022103436291217804,-0.01310930959880352,-0.005791532341390848
1783244281682550500,2.937550537109375,0.01323324628174305,-0.0033107404597103596,-0.011166057549417019
1783244281692562400,2.9475625,0.004027543123811483,0.009341108612716198,-0.0175995621830225
1783244281702574600,2.95757470703125,0.004543930292129517,0.016560938209295273,-0.021559149026870728
1783244281712585500,2.96758544921875,0.0064100781455636024,0.018021300435066223,-0.020524710416793823
1783244281722597400,2.977597412109375,0.009111056104302406,0.015152542851865292,-0.01630493253469467
1783244281732609300,2.987609375,0.010858915746212006,0.011788612231612206,-0.010120106860995293
1783244281742621400,2.997621337890625,0.011719116009771824,0.005717935971915722,-0.0062790303491055965
1783244281752632300,3.00763232421875,0.011539675295352936,0.008908206596970558,-0.006906548514962196
1783244281762644200,3.017644287109375,0.011705590412020683,0.017126720398664474,-0.011713555082678795
1783244281772656400,3.027656494140625,0.012157430872321129,0.010830683633685112,-0.014137797057628632
1783244281782667500,3.03766748046875,0.011279120109975338,-0.0028694160282611847,-0.01560173649340868
1783244281792679400,3.047679443359375,0.012123215943574905,0.0028854573611170053,-0.017549026757478714
1783244281802691600,3.057691650390625,0.017132088541984558,0.016249466687440872,-0.019855856895446777
1783244281812702500,3.067702392578125,0.023658277466893196,0.02265477180480957,-0.018108978867530823
1783244281822714400,3.07771435546875,0.03336017206311226,0.02066858671605587,-0.01839766651391983
1783244281832726500,3.0877265625,0.04075648635625839,0.012591241858899593,-0.01746964454650879
1783244281842737400,3.0977373046875,0.03930799290537834,-0.005416520871222019,-0.013649340718984604
1783244281852749300,3.107749267578125,0.03960134834051132,-0.010903393849730492,-0.007405688986182213
1783244281862761500,3.117761474609375,0.03385850787162781,-0.004376251716166735,0.00045196758583188057
1783244281872772400,3.1277724609375,0.0307251438498497,0.005077584646642208,0.00975464191287756
1783244281882784300,3.1377841796875,0.034051164984703064,0.018823225051164627,0.010337874293327332
1783244281892796200,3.147796142578125,0.04095377027988434,0.04556270316243172,0.0016969367861747742
1783244281902807600,3.1578076171875,0.04992036893963814,0.06928960233926773,-0.02395889163017273
1783244281912819500,3.1678193359375,0.05498582497239113,0.07459592074155807,-0.053385090082883835
1783244281922831400,3.177831298828125,0.0583491325378418,0.06010992452502251,-0.07513778656721115
1783244281932842500,3.187842529296875,0.055246829986572266,0.040063321590423584,-0.08563342690467834
1783244281942854400,3.1978544921875,0.05769374221563339,0.02025393210351467,-0.07828470319509506
1783244281952866300,3.2078662109375,0.0589548759162426,0.0026850115973502398,-0.053538624197244644
1783244281962878500,3.21787841796875,0.051591236144304276,0.0029159076511859894,-0.027899306267499924
1783244281972889300,3.227889404296875,0.041134558618068695,0.018256792798638344,-0.009859362617135048
1783244281982901200,3.2379013671875,0.030954357236623764,0.03393029421567917,0.0010550706647336483
1783244281992913400,3.247913330078125,0.023377496749162674,0.04275500401854515,0.001409504096955061
1783244282002924500,3.257924560546875,0.023905601352453232,0.042109984904527664,-0.002143152756616473
1783244282012936400,3.2679365234375,0.02755866013467312,0.02613820880651474,-0.009464714676141739
1783244282022948600,3.277948486328125,0.03340243548154831,0.0050853886641561985,-0.014833115041255951
1783244282032959500,3.28795947265625,0.03431334346532822,-0.01710631139576435,-0.014489574357867241
1783244282042971400,3.297971435546875,0.03126935288310051,-0.02967057377099991,-0.005676907487213612
1783244282052983300,3.3079833984375,0.022386673837900162,-0.02519923448562622,0.007483653724193573
1783244282062994400,3.317994384765625,0.016289900988340378,-0.011568642221391201,0.01728168874979019
1783244282073006300,3.32800634765625,0.010366188362240791,0.00006884965114295483,0.02330731227993965
1783244282083018200,3.338018310546875,0.0042915185913443565,0.024750759825110435,0.020737629383802414
1783244282093029400,3.348029296875,0.002618955448269844,0.039053209125995636,0.009884482249617577
1783244282103041500,3.35804150390625,0.006428075022995472,0.03077051229774952,-0.0013836193829774857
1783244282113053400,3.368053466796875,0.011698905378580093,0.02372106723487377,-0.013988327234983444
1783244282123064300,3.378064208984375,0.018503548577427864,0.02070983126759529,-0.026684148237109184
1783244282133076500,3.388076416015625,0.02348785102367401,0.013492513447999954,-0.033825747668743134
1783244282143088400,3.39808837890625,0.025324098765850067,-0.0030979150906205177,-0.033342115581035614
1783244282153099300,3.408099365234375,0.023913731798529625,-0.02158159576356411,-0.02393818460404873
1783244282163111400,3.418111328125,0.015531431883573532,-0.024548090994358063,-0.00866362452507019
1783244282173123300,3.428123291015625,0.0026387046091258526,-0.011983887292444706,0.005288176704198122
1783244282183135200,3.43813525390625,-0.006785157136619091,0.008164257742464542,0.014314694330096245
1783244282193146400,3.448146484375,-0.01002557948231697,0.024857887998223305,0.01557874120771885
1783244282203158300,3.458158203125,-0.009804537519812584,0.02357584238052368,0.012444466352462769
1783244282213170200,3.468170166015625,-0.008227300830185413,0.017569754272699356,0.0020806207321584225
1783244282223181600,3.478181640625,-0.004371309652924538,0.012248492799699306,-0.006822327151894569
1783244282233193500,3.488193359375,-0.0018494082614779472,0.004408273845911026,-0.011507736518979073
1783244282243205400,3.498205322265625,0.005185863934457302,0.0012862500734627247,-0.015056932345032692
1783244282253216500,3.508216552734375,0.008107534609735012,-0.0029710547532886267,-0.01366365421563387
1783244282263228400,3.518228515625,0.004184964578598738,-0.008465688675642014,-0.009973045438528061
1783244282273240300,3.528240234375,-0.004042815417051315,-0.011445430107414722,-0.006638046354055405
1783244282283251200,3.538251220703125,-0.014764435589313507,-0.008748712949454784,-0.003812166163697839
1783244282293263400,3.548263427734375,-0.0200112983584404,-0.006366191431879997,-0.0014039031229913235
1783244282303275300,3.558275146484375,-0.021837428212165833,-0.005366973578929901,0.0006459318101406097
1783244282313286400,3.568286376953125,-0.019830383360385895,-0.004182695876806974,0.0035625742748379707
1783244282323298600,3.578298583984375,-0.018762458115816116,-0.0006838350091129541,0.0031226198188960552
1783244282333310500,3.588310546875,-0.01984444260597229,-0.003281939774751663,-0.0009263874962925911
1783244282343321300,3.5983212890625,-0.02779611200094223,-0.006501701660454273,-0.003340276889503002
1783244282353333500,3.60833349609375,-0.030651843175292015,-0.005904793739318848,-0.005058181472122669
1783244282363345400,3.618345458984375,-0.023678356781601906,-0.008581803180277348,-0.0010964630637317896
1783244282373356300,3.628356201171875,-0.012876954860985279,-0.005290540866553783,0.0005971961654722691
1783244282383368400,3.638368408203125,-0.009488082490861416,0.0008778724586591125,-0.0014268062077462673
1783244282393380400,3.64838037109375,-0.014155890792608261,0.004775709938257933,-0.0049850004725158215
1783244282403391500,3.6583916015625,-0.019863311201334,0.005397291854023933,-0.010333426296710968
1783244282413403400,3.6684033203125,-0.022431395947933197,0.0011996086686849594,-0.014380241744220257
1783244282423415300,3.678415283203125,-0.024704137817025185,-0.007756602484732866,-0.014968001283705235
1783244282433427500,3.688427490234375,-0.021247606724500656,-0.013992574997246265,-0.0137606430798769
1783244282443438300,3.698438232421875,-0.012442930601537228,-0.013257276266813278,-0.008327262476086617
1783244282453450500,3.708450439453125,-0.005582192447036505,-0.011851980350911617,0.00007624784484505653
1783244282463462400,3.71846240234375,0.0016746548935770988,-0.0034286680165678263,0.006901663728058338
1783244282473473300,3.728473388671875,0.0035453569144010544,0.0004398974124342203,0.008505385369062424
1783244282483485400,3.7384853515625,-0.0018427507020533085,-0.020168175920844078,0.013675380498170853
1783244282493497300,3.748497314453125,-0.014268975704908371,-0.04154593497514725,0.020940694957971573
1783244282503508200,3.75850830078125,-0.021771898493170738,-0.03945322334766388,0.02789287641644478
1783244282513520400,3.768520263671875,-0.024345703423023224,-0.026810353621840477,0.03569301962852478
1783244282523532300,3.7785322265625,-0.016672872006893158,-0.00871231034398079,0.034811779856681824
1783244282533543400,3.78854345703125,-0.009975260123610497,0.019779151305556297,0.022067781537771225
1783244282543555600,3.7985556640625,-0.004066237714141607,0.041789647191762924,-0.0035648783668875694
1783244282553567500,3.8085673828125,0.0014337226748466492,0.04584084823727608,-0.031364817172288895
1783244282563578400,3.818578369140625,0.010668233968317509,0.025886045768857002,-0.05349648371338844
1783244282573590300,3.82859033203125,0.019529901444911957,0.0056260572746396065,-0.060679689049720764
1783244282583602400,3.8386025390625,0.023181628435850143,-0.001471000723540783,-0.056995734572410583
1783244282593613300,3.84861328125,0.023058127611875534,-0.0013515446335077286,-0.04198197275400162
1783244282603625200,3.858625244140625,0.018230082467198372,-0.002941451733931899,-0.014144482091069221
1783244282613637400,3.868637451171875,0.015711406245827675,0.000714310328476131,0.008386666886508465
1783244282623648500,3.8786484375,0.013258101418614388,0.009797554463148117,0.02288571372628212
1783244282633660400,3.888660400390625,0.012919597327709198,0.011734934523701668,0.022209804505109787
1783244282643672600,3.898672607421875,0.013017069548368454,0.0005941326962783933,0.012654383666813374
1783244282653683500,3.908683349609375,0.011759806424379349,-0.024268528446555138,0.0017406251281499863
1783244282663695000,3.918695068359375,0.008063072338700294,-0.04219932481646538,-0.008212140761315823
1783244282673707000,3.92870703125,0.0008302368223667145,-0.037544675171375275,-0.008203186094760895
1783244282683718100,3.93871826171875,-0.007104119285941124,-0.028810303658246994,-0.0026129446923732758
1783244282693730000,3.94872998046875,-0.013907808810472488,-0.013726034201681614,0.006464595440775156
1783244282703742000,3.958741943359375,-0.021633638069033623,0.01277295034378767,0.010075574740767479
1783244282713753000,3.968753173828125,-0.028829431161284447,0.025003138929605484,0.012624022550880909
1783244282723765200,3.97876513671875,-0.026308216154575348,0.012500395998358727,0.01067538745701313
1783244282733777200,3.988777099609375,-0.01561699714511633,0.000081291189417243,0.00001098262146115303
1783244282743789300,3.998789306640625,-0.00698995403945446,-0.0012167335953563452,-0.013706693425774574
1783244282753800200,4.00880029296875,-0.0018109180964529514,-0.0020458593498915434,-0.026168303564190865
1783244282763812000,4.01881201171875,0.004819820169359446,-0.004186241887509823,-0.03698179870843887
1783244282773824300,4.02882421875,0.008921701461076736,-0.0005270671099424362,-0.03999759629368782
1783244282783835100,4.038835205078125,0.013783834874629974,0.006682376377284527,-0.04142851382493973
1783244282793847000,4.048846923828125,0.013908613473176956,0.021458681672811508,-0.04225437343120575
1783244282803859000,4.05885888671875,0.010154621675610542,0.020603805780410767,-0.03724842518568039
1783244282813870000,4.0688701171875,0.00950549729168415,0.012801669538021088,-0.03297310322523117
1783244282823882000,4.078882080078125,0.005250831600278616,0.02665942721068859,-0.028737343847751617
1783244282833894000,4.088893798828125,0.002082398859784007,0.049647681415081024,-0.02526065520942211
1783244282843905300,4.0989052734375,0.00896374136209488,0.032985616475343704,-0.021422240883111954
1783244282853917200,4.108917236328125,0.019930118694901466,0.017182499170303345,-0.023297227919101715
1783244282863929000,4.11892919921875,0.02788471430540085,0.004871238488703966,-0.03455493971705437
1783244282873940000,4.12893994140625,0.03424428775906563,-0.004873337224125862,-0.042108118534088135
1783244282883952000,4.1389521484375,0.037662457674741745,-0.008249427191913128,-0.046819522976875305
1783244282893964000,4.148964111328125,0.0386604368686676,-0.005810181610286236,-0.04901213198900223
1783244282903975000,4.158974853515625,0.039334483444690704,-0.013987950049340725,-0.03765162080526352
1783244282913987000,4.168987060546875,0.036155108362436295,-0.02478872239589691,-0.0244526956230402
1783244282923999000,4.1789990234375,0.029180552810430527,-0.03279604762792587,-0.006834818981587887
1783244282934010000,4.189010009765625,0.022065596655011177,-0.030934568494558334,0.008613189682364464
1783244282944022300,4.199022216796875,0.014283306896686554,-0.0089717460796237,0.014634329825639725
1783244282954034200,4.2090341796875,0.010569319128990173,0.009754341095685959,0.011811036616563797
1783244282964045000,4.219045166015625,0.003641371615231037,0.013182894326746464,0.003000501077622175
1783244282974057200,4.22905712890625,-0.004319056402891874,0.018087541684508324,-0.010051357559859753
1783244282984069000,4.239069091796875,-0.007505794987082481,0.016578594222664833,-0.01903286762535572
1783244282994080000,4.249080078125,-0.0008646128699183464,0.0069502731785178185,-0.020958807319402695
1783244283004092000,4.259091796875,0.0030651476699858904,0.0031563336960971355,-0.0174463652074337
1783244283014104000,4.26910400390625,0.012847540900111198,0.0018565970240160823,-0.011102113872766495
1783244283024115200,4.279115234375,0.020173896104097366,-0.007948629558086395,0.0004999469965696335
1783244283034127000,4.289127197265625,0.022048985585570335,-0.024338774383068085,0.011344030499458313
1783244283044139300,4.29913916015625,0.0195554681122303,-0.027510866522789,0.02118733897805214
1783244283054150100,4.309150146484375,0.019717834889888763,-0.010737714357674122,0.022522831335663795
1783244283064162000,4.319162109375,0.021594565361738205,0.0024451985955238342,0.01623404212296009
1783244283074174200,4.32917431640625,0.017745625227689743,0.014188364148139954,0.00866573117673397
1783244283084185000,4.33918505859375,0.013188159093260765,0.024784017354249954,-0.0029315361753106117
1783244283094197000,4.349197021484375,0.011525588110089302,0.022665727883577347,-0.013440193608403206
1783244283104209200,4.359209228515625,0.01452697068452835,0.002515984233468771,-0.012185845524072647
1783244283114220000,4.369219970703125,0.01590851880609989,-0.014856137335300446,-0.008782023563981056
1783244283124232000,4.37923193359375,0.017971936613321304,-0.014112582430243492,0.0005307849496603012
1783244283134244000,4.389244140625,0.019335011020302773,-0.015617642551660538,0.010433290153741837
1783244283144256000,4.399256103515625,0.017905691638588905,-0.021070197224617004,0.018256591632962227
1783244283154267100,4.40926708984375,0.01645393669605255,-0.023177985101938248,0.026219768449664116
1783244283164279000,4.419279052734375,0.009800029918551445,-0.029671840369701385,0.03274345025420189
1783244283174291200,4.429291259765625,-0.0013372269459068775,-0.035744670778512955,0.04072222858667374
1783244283184302000,4.439302001953125,-0.01060289703309536,-0.026132259517908096,0.04254596307873726
1783244283194314000,4.44931396484375,-0.015059879049658775,-0.015594957396388054,0.03774649649858475
1783244283204326100,4.459326171875,-0.014535235241055489,-0.010529358871281147,0.031594060361385345
1783244283214337000,4.4693369140625,-0.009816072881221771,0.00226685032248497,0.016917157918214798
1783244283224349000,4.479348876953125,-0.0029365946538746357,0.025395605713129044,-0.0028749220073223114
1783244283234361000,4.489361083984375,0.0031733547803014517,0.04020567238330841,-0.028850197792053223
1783244283244372200,4.499372314453125,0.006636262871325016,0.04141315072774887,-0.04807395860552788
1783244283254384000,4.509384033203125,0.011553846299648285,0.03640434145927429,-0.059143342077732086
1783244283264396300,4.519396240234375,0.013033231720328331,0.024988166987895966,-0.06123099476099014
1783244283274407200,4.5294072265625,0.01108909584581852,0.007541369181126356,-0.05160222575068474
1783244283284419000,4.539419189453125,0.007742833811789751,-0.003413544036448002,-0.03309618681669235
1783244283294431200,4.54943115234375,0.0028784452006220818,-0.006295311264693737,-0.012630054727196693
1783244283304442000,4.559442138671875,0.0015508595388382673,-0.004648146219551563,0.009506139904260635
1783244283314454000,4.5694541015625,-0.0005186828784644604,-0.0042518675327301025,0.02697461098432541
1783244283324466000,4.5794658203125,-0.005900132469832897,-0.009360343217849731,0.03407992422580719
1783244283334477300,4.589477294921875,-0.012616526335477829,-0.00507472874596715,0.036010682582855225
1783244283344489200,4.5994892578125,-0.013979000970721245,-0.003951673861593008,0.028713885694742203
1783244283354501000,4.609501220703125,-0.011305984109640121,-0.00831126794219017,0.0182412751019001
1783244283364512300,4.61951220703125,-0.0055405073799192905,-0.01239735633134842,0.009848854504525661
1783244283374524200,4.629524169921875,-0.0032085315324366093,-0.009790514595806599,0.00436951220035553
1783244283384536000,4.6395361328125,-0.001898256130516529,-0.01909693144261837,0.00792190246284008
1783244283394547000,4.649546875,0.0000964086502790451,-0.024923378601670265,0.018565982580184937
1783244283404559000,4.65955908203125,0.0028621014207601547,-0.017098745331168175,0.029736611992120743
1783244283414571000,4.669571044921875,0.0010854885913431644,-0.01304229348897934,0.0325385145843029
1783244283424582000,4.679581787109375,0.001777111436240375,-0.005677321460098028,0.033770494163036346
1783244283434594000,4.689593994140625,0.006257898174226284,0.006877960171550512,0.026368245482444763
1783244283444606000,4.69960595703125,0.00689439382404089,0.017310360446572304,0.009786605834960938
1783244283454617000,4.7096171875,0.0073175146244466305,0.025083795189857483,-0.006324238143861294
1783244283464629200,4.719629150390625,0.014931758865714073,0.01711961068212986,-0.019475193694233894
1783244283474641200,4.72964111328125,0.028736965730786324,0.0024608022067695856,-0.02599962428212166
1783244283484652000,4.739652099609375,0.0444038100540638,-0.0036599410232156515,-0.028944015502929688
1783244283494664200,4.749664306640625,0.05022065341472626,-0.010661019012331963,-0.023501204326748848
1783244283504676000,4.759676025390625,0.045633893460035324,-0.020371170714497566,-0.013974543660879135
1783244283514687000,4.76968701171875,0.03183469921350479,-0.02474292740225792,0.000980136450380087
1783244283524699100,4.77969921875,0.022339995950460434,-0.016964631155133247,0.015848033130168915
1783244283534711000,4.7897109375,0.013372700661420822,0.006384154781699181,0.018774278461933136
1783244283544722200,4.79972216796875,0.009800336323678493,0.02286379411816597,0.019132208079099655
1783244283554734000,4.809734130859375,0.0143148023635149,0.02813130058348179,0.01131530199199915
1783244283564746200,4.819746337890625,0.024373028427362442,0.019908791407942772,-0.0034274247009307146
1783244283574757000,4.829757080078125,0.029697801917791367,-0.004140269476920366,-0.013968685641884804
1783244283584769000,4.83976904296875,0.028292186558246613,-0.0346587635576725,-0.01887875609099865
1783244283594781200,4.84978125,0.018895253539085388,-0.04401322454214096,-0.017179235816001892
1783244283604792000,4.8597919921875,0.008356859907507896,-0.032904114574193954,-0.012725898064672947
1783244283614804000,4.869803955078125,-0.004615874495357275,-0.006377093493938446,-0.0014799784403294325
1783244283624816000,4.879816162109375,-0.010932892560958862,0.020409779623150826,0.009688254445791245
1783244283634827300,4.8898271484375,-0.01452752947807312,0.035834331065416336,0.01269679144024849
1783244283644839200,4.899839111328125,-0.014434318989515305,0.03495468571782112,0.004841796588152647
1783244283654850600,4.9098505859375,-0.013539917767047882,0.019309822469949722,-0.006316468585282564
1783244283664861400,4.919861328125,-0.013753503561019897,0.009684094227850437,-0.020446136593818665
1783244283674873600,4.92987353515625,-0.016637440770864487,0.011687589809298515,-0.032126761972904205
1783244283684885500,4.939885498046875,-0.011714054271578789,0.013794682919979095,-0.03185831382870674
1783244283694896400,4.949896484375,-0.0006513260304927826,0.012880169786512852,-0.023077646270394325
1783244283704908300,4.959908203125,0.01074141077697277,0.006873676553368568,-0.012584790587425232
1783244283714920400,4.96992041015625,0.017152048647403717,0.003982054069638252,-0.006205184385180473
1783244283724931600,4.979931640625,0.015334973111748695,-0.002816196996718645,-0.01163563597947359
1783244283734943500,4.989943603515625,0.009048469364643097,-0.01347297802567482,-0.019179418683052063
1783244283744955600,4.99995556640625,0.009181361645460129,-0.011854041367769241,-0.022126737982034683
1783244283754966500,5.009966552734375,0.013282307423651218,-0.003229997819289565,-0.021535174921154976
1783244283764978400,5.019978515625,0.017146021127700806,0.004175188019871712,-0.016181688755750656
1783244283774990600,5.029990478515625,0.01779193803668022,0.0032463325187563896,-0.010850075632333755
1783244283785001500,5.04000146484375,0.013470691628754139,0.0018183457432314754,-0.003925323486328125
1783244283795013400,5.050013427734375,0.015996193513274193,-0.0065366169437766075,0.00114430021494627
1783244283805025500,5.060025634765625,0.019660968333482742,-0.0005626138299703598,-0.00007169879972934723
1783244283815036400,5.070036376953125,0.014497382566332817,0.004482290707528591,-0.002563606947660446
1783244283825048300,5.08004833984375,0.0032497881911695004,-0.000911675626412034,-0.006248090416193008
1783244283835060500,5.090060546875,-0.008537432178854942,0.000043979380279779434,-0.01160430908203125
1783244283845071600,5.100071533203125,-0.015224363654851913,-0.003050880040973425,-0.009069512598216534
1783244283855083500,5.11008349609375,-0.01227165199816227,-0.006113885436207056,-0.007791786454617977
1783244283865095400,5.120095458984375,-0.004201740957796574,-0.007973304018378258,-0.001598339295014739
1783244283875106600,5.1301064453125,0.01199592649936676,-0.019694071263074875,0.009985536336898804
1783244283885118500,5.140118408203125,0.022856831550598145,-0.024869658052921295,0.01682373508810997
1783244283895130400,5.15013037109375,0.021604711189866066,-0.016847630962729454,0.011239849030971527
1783244283905141200,5.160141357421875,0.008698233403265476,-0.013979673385620117,-0.002939087338745594
1783244283915153400,5.1701533203125,-0.007412460166960955,-0.02037147246301174,-0.014882603660225868
1783244283925165300,5.180165283203125,-0.020838787779211998,-0.022605864331126213,-0.017265066504478455
1783244283935176400,5.190176513671875,-0.02418241836130619,-0.022418804466724396,-0.008062402717769146
1783244283945188600,5.200188720703125,-0.024939287453889847,-0.013822386041283607,0.007695787586271763
1783244283955200500,5.210200439453125,-0.020205318927764893,-0.0006502859760075808,0.018801094964146614
1783244283965211400,5.22021142578125,-0.022227725014090538,0.006489915307611227,0.017771782353520393
1783244283975223600,5.2302236328125,-0.02623872458934784,0.012488331645727158,0.0004312591627240181
1783244283985235500,5.2402353515625,-0.02864888496696949,0.02621612697839737,-0.022009067237377167
1783244283995246300,5.250246337890625,-0.03127802535891533,0.025302773341536522,-0.03868958353996277
1783244284005258500,5.260258544921875,-0.024200141429901123,0.017846720293164253,-0.048414114862680435
1783244284015270400,5.2702705078125,-0.012498422525823116,0.009541191160678864,-0.049513548612594604
1783244284025281500,5.280281494140625,-0.004466329235583544,-0.005416186526417732,-0.03704063221812248
1783244284035293700,5.290293701171875,-0.0005812172312289476,-0.009151468053460121,-0.02388903684914112
1783244284045305600,5.3003056640625,-0.007391985040158033,-0.005553804337978363,-0.014096060767769814
1783244284055316500,5.31031640625,-0.02043287828564644,-0.004958976525813341,-0.003495950484648347
1783244284065328400,5.320328369140625,-0.03160776570439339,-0.0019988729618489742,0.0052538649179041386
1783244284075340500,5.330340576171875,-0.04073929041624069,0.0057808756828308105,0.006754093803465366
1783244284085351400,5.340351318359375,-0.03953980281949043,0.00030115549452602863,0.005439025349915028
1783244284095363300,5.35036328125,-0.037191860377788544,-0.010112017393112183,0.0016847294755280018
1783244284105375500,5.36037548828125,-0.03042769618332386,-0.03109905868768692,0.007519182283431292
1783244284115386400,5.370386474609375,-0.021990450099110603,-0.05566195771098137,0.01955035701394081
1783244284125398300,5.380398193359375,-0.014706704765558243,-0.0760364755988121,0.035219065845012665
1783244284135410400,5.390410400390625,-0.020196853205561638,-0.08300728350877762,0.04804347828030586
1783244284145421600,5.400421630859375,-0.027684863656759262,-0.06297152489423752,0.05484625697135925
1783244284155433500,5.41043359375,-0.02581036277115345,-0.042549390345811844,0.04961344599723816
1783244284165445600,5.420445556640625,-0.0238910224288702,-0.026027405634522438,0.028432795777916908
1783244284175456500,5.43045654296875,-0.02226874604821205,-0.008553458377718925,-0.0015714042820036411
1783244284185468400,5.440468505859375,-0.010767352767288685,0.013495118357241154,-0.03493735194206238
1783244284195480600,5.45048046875,-0.0018430231139063835,0.008126054890453815,-0.06082708388566971
1783244284205491500,5.460491455078125,0.001919757341966033,-0.0187793280929327,-0.07122912257909775
1783244284215503400,5.47050341796875,0.004438228439539671,-0.027561349794268608,-0.07092467695474625
1783244284225515300,5.480515380859375,0.0033905410673469305,-0.02457461506128311,-0.06168351322412491
1783244284235526700,5.490526611328125,-0.002059736754745245,-0.033508047461509705,-0.04227862134575844
1783244284245538600,5.50053857421875,-0.013374176807701588,-0.02963101491332054,-0.02274007350206375
1783244284255550500,5.510550537109375,-0.03413157910108566,-0.010927761904895306,-0.00982461404055357
1783244284265561600,5.5205615234375,-0.055262960493564606,0.002076986711472273,-0.004677522461861372
1783244284275573500,5.530573486328125,-0.06778459995985031,0.011705722659826279,-0.0030370051972568035
1783244284285585400,5.54058544921875,-0.0711154118180275,0.011257512494921684,-0.0035533923655748367
1783244284295596300,5.55059619140625,-0.07021985948085785,-0.011247295886278152,-0.00864312332123518
1783244284305608400,5.5606083984375,-0.06572844088077545,-0.013167701661586761,-0.018861405551433563
1783244284315620400,5.570620361328125,-0.06358236074447632,-0.012960190884768963,-0.02460455149412155
1783244284325631500,5.580631591796875,-0.05868854001164436,-0.009312192909419537,-0.02380240708589554
1783244284335643600,5.5906435546875,-0.05426793918013573,0.002207108773291111,-0.02061646804213524
1783244284345655600,5.600655517578125,-0.04543662816286087,0.010584348812699318,-0.019334422424435616
1783244284355666400,5.61066650390625,-0.04633921757340431,-0.008789065293967724,-0.014461941085755825
1783244284365678600,5.6206787109375,-0.05486799031496048,-0.02575606293976307,-0.007356894202530384
1783244284375690500,5.6306904296875,-0.058853767812252045,-0.013339568860828876,-0.003289789892733097
1783244284385701400,5.640701416015625,-0.055963970720767975,-0.012141678482294083,0.003980106674134731
1783244284395713500,5.650713623046875,-0.052062615752220154,-0.006561330519616604,0.011319588869810104
1783244284405725400,5.660725341796875,-0.047025781124830246,0.006547813303768635,0.018855001777410507
1783244284415736300,5.670736328125,-0.0424857921898365,0.009250707924365997,0.027799459174275398
1783244284425748500,5.68074853515625,-0.04048309475183487,0.004922538995742798,0.034165747463703156
1783244284435760400,5.690760498046875,-0.038314469158649445,0.006856882944703102,0.024955086410045624
1783244284445771500,5.700771484375,-0.03550137206912041,-0.005897528026252985,0.01229947805404663
1783244284455783400,5.710783447265625,-0.030042745172977448,-0.023938119411468506,0.0020570377819240093
1783244284465795600,5.720795654296875,-0.022437024861574173,-0.03117658942937851,-0.0027576913125813007
1783244284475806500,5.730806396484375,-0.01628704182803631,-0.027112144976854324,-0.0016414839774370193
1783244284485818400,5.740818359375,-0.016642041504383087,-0.008515025489032269,-0.001054256921634078
1783244284495830500,5.75083056640625,-0.018047481775283813,0.006078604608774185,-0.0005573867820203304
1783244284505841400,5.76084130859375,-0.017345737665891647,0.010111695155501366,-0.004625631496310234
1783244284515853300,5.770853271484375,-0.0123645830899477,0.004810757469385862,-0.007271254435181618
1783244284525865500,5.780865478515625,-0.013472193852066994,-0.00896604172885418,-0.010327231138944626
1783244284535876600,5.790876708984375,-0.014919478446245193,-0.02025940641760826,-0.010251861065626144
1783244284545888500,5.800888427734375,-0.01699594408273697,-0.019607732072472572,-0.0062722996808588505
1783244284555900700,5.810900634765625,-0.014808201231062412,-0.006789919920265675,-0.009080910123884678
1783244284565911600,5.82091162109375,-0.0190436914563179,-0.0005514647345989943,-0.005526388995349407
1783244284575923500,5.83092333984375,-0.022389724850654602,-0.0010923484805971384,0.0007390491664409637
1783244284585935400,5.840935302734375,-0.024947691708803177,0.0019519110210239887,0.0048512364737689495
1783244284595946500,5.850946533203125,-0.02733362466096878,-0.005788020323961973,0.010526042431592941
1783244284605958400,5.86095849609375,-0.028620995581150055,-0.01847611926496029,0.017108311876654625
1783244284615969500,5.870969482421875,-0.02812035381793976,-0.019719703122973442,0.02037479355931282
1783244284625981700,5.880981689453125,-0.023350367322564125,-0.016892224550247192,0.015252468176186085
1783244284635993600,5.89099365234375,-0.026599861681461334,-0.00985248014330864,0.007279162760823965
1783244284646004500,5.90100439453125,-0.030286207795143127,-0.0112104257568717,-0.00026823533698916435
1783244284656017000,5.911016845703125,-0.03346472233533859,-0.025088321417570114,-0.003748878138139844
1783244284666029000,5.921029052734375,-0.03055974654853344,-0.037964969873428345,0.004229952115565538
1783244284676040000,5.9310400390625,-0.02652032859623432,-0.04412703961133957,0.012047088705003262
1783244284686051800,5.9410517578125,-0.031356360763311386,-0.03685341402888298,0.019212055951356888
1783244284696064000,5.95106396484375,-0.03509913384914398,-0.01607314869761467,0.018561597913503647
1783244284706075000,5.961074951171875,-0.0341944582760334,0.00546783022582531,0.013037936761975288
1783244284716086800,5.971086669921875,-0.026194822043180466,0.012793929316103458,-0.0005860715173184872
1783244284726098700,5.9810986328125,-0.02008632943034172,0.009593343362212181,-0.015596180222928524
1783244284736110000,5.991110107421875,-0.005597790703177452,0.003879027906805277,-0.03108193166553974
1783244284746122000,6.0011220703125,0.005334485322237015,-0.007451390381902456,-0.037429843097925186
1783244284756134000,6.0111337890625,0.014469827525317669,-0.01970437914133072,-0.03542976826429367
1783244284766145000,6.02114501953125,0.021740522235631943,-0.025195550173521042,-0.023895084857940674
1783244284776157000,6.031156982421875,0.01545760314911604,-0.02411273494362831,-0.010246002115309238
1783244284786168800,6.0411689453125,0.0086641451343894,-0.01465931162238121,0.0004079737700521946
1783244284796179700,6.0511796875,0.005240718834102154,-0.0068294582888484,0.009095811285078526
1783244284806191900,6.06119189453125,0.002807122655212879,-0.01426287367939949,0.012239407747983932
1783244284816203800,6.071203857421875,0.000049320049583911896,-0.027785126119852066,0.014193937182426453
1783244284826215000,6.08121484375,0.001507667126134038,-0.03569178655743599,0.014928171411156654
1783244284836226800,6.091226806640625,0.003975773695856333,-0.032411444932222366,0.011637723073363304
1783244284846239000,6.101239013671875,0.006836807355284691,-0.023096773773431778,0.002921728417277336
1783244284856249900,6.111249755859375,0.008106255903840065,-0.01542631909251213,-0.004597930703312159
1783244284866262000,6.121261962890625,0.00831771083176136,-0.020513489842414856,-0.007246444467455149
1783244284876274000,6.13127392578125,0.005557391792535782,-0.04058830440044403,-0.0022225859574973583
1783244284886284800,6.141284912109375,-0.004530395846813917,-0.05321222171187401,0.0068350909277796745
1783244284896297000,6.151296875,-0.014322527684271336,-0.04916663467884064,0.01860283873975277
1783244284906308900,6.161308837890625,-0.01936176046729088,-0.03593365475535393,0.026290586218237877
1783244284916319700,6.17131982421875,-0.025825198739767075,-0.01584642194211483,0.02221454307436943
1783244284926332000,6.181331787109375,-0.025760749354958534,0.0029469728469848633,0.006279784254729748
1783244284936343800,6.19134375,-0.01987730711698532,0.0002889077877625823,-0.013147283345460892
1783244284946355000,6.20135498046875,-0.00903797522187233,-0.015262621454894543,-0.03383232280611992
1783244284956366800,6.211366943359375,-0.0030031949281692505,-0.02835317701101303,-0.0441197007894516
1783244284966379000,6.22137890625,0.005521050654351711,-0.03473065048456192,-0.047769032418727875
1783244284976390000,6.231389892578125,0.008877166546881199,-0.036214832216501236,-0.04814720153808594
1783244284986401800,6.24140185546875,0.011360297910869122,-0.0302171241492033,-0.04251834377646446
1783244284996413000,6.251412841796875,0.011072976514697075,-0.0012006436008960009,-0.01668761856853962
1783244285006424800,6.2614248046875,0.01200108788907528,0.0635482594370842,0.01586766168475151
1783244285016436700,6.271436767578125,0.010895985178649426,0.09604204446077347,0.03660896420478821
1783244285026448000,6.28144775390625,0.006057554390281439,0.08337578177452087,0.057596806436777115
1783244285036460000,6.2914599609375,0.009008915163576603,0.07878033071756363,0.06609529256820679
1783244285046472000,6.301471923828125,0.011408690363168716,0.0563352108001709,0.061770323663949966
1783244285056482800,6.31148291015625,0.009652001783251762,-0.009915348142385483,0.03709392622113228
1783244285066495000,6.321494873046875,0.006194153800606728,-0.04703928157687187,0.0015247482806444168
1783244285076507000,6.3315068359375,0.007716483436524868,-0.08438382297754288,-0.036010563373565674
1783244285086517800,6.341517822265625,0.009792150929570198,-0.13450665771961212,-0.06379346549510956
1783244285096530000,6.351530029296875,0.015604088082909584,-0.16333167254924774,-0.06385950744152069
1783244285106541800,6.361541748046875,0.027479389682412148,-0.16038382053375244,-0.01173212006688118
1783244285116552700,6.371552734375,0.033381830900907516,-0.08871428668498993,0.06360915303230286
