time,seconds_elapsed,z,y,x
1783244287559138600,0.062138671875,0.6260597687333822,-0.06620543344393372,0.14065711904447525
1783244287569149400,0.0721494140625,0.26992987056970597,-0.1963664755783975,-0.010074673160165548
1783244287579161300,0.082161376953125,-0.07011456971168517,-0.21807722599655388,-0.038272155249118804
1783244287589173200,0.09217333984375,-0.2791910353899002,-0.12445683914348482,0.03612257599979639
1783244287599184600,0.1021845703125,-0.4620908572822809,-0.06892769801467656,0.06804879628829658
1783244287609196500,0.112196533203125,-0.4523305107682943,-0.031880846776813264,0.08411880087312311
1783244287619208400,0.12220849609375,-0.3133294518351555,0.0003461830891668796,0.08486530839148908
1783244287629219600,0.132219482421875,-0.11184826359152793,0.04164966885820031,0.08465919136013836
1783244287639231500,0.1422314453125,0.10597148051261901,0.05679784589037299,0.05883523346949368
1783244287649243400,0.152243408203125,0.2558066526710987,0.025739275281876323,-0.01246376025378704
1783244287659254800,0.1622548828125,0.31171383333206176,0.008607961608469486,-0.052861492822133004
1783244287669266700,0.1722666015625,0.19467033918499946,0.03560951191112399,-0.03325783421844244
1783244287679277600,0.182277587890625,-0.018310148194432257,0.0755194974951446,-0.010703143789432943
1783244287689289700,0.192289794921875,-0.18465104947388172,0.13551950042769312,-0.02600139681678265
1783244287699301600,0.202301513671875,-0.2360515663653612,0.1402228558130562,-0.06130944156330079
1783244287709312800,0.212312744140625,-0.1860503948777914,0.0922374080620706,-0.11035901141446083
1783244287719325000,0.222324951171875,-0.08159107249379158,0.06114858844578266,-0.11632942759357393
1783244287729336800,0.2323369140625,0.04654781616330147,0.04571341116577387,-0.1271319766368717
1783244287739347700,0.24234765625,0.10150105710029601,0.03215834854394197,-0.08937756165154277
1783244287749359600,0.252359619140625,0.11057809752523898,0.03322510099261999,-0.016998590671829877
1783244287759371800,0.262371826171875,0.01613163511157036,0.03395589948520064,0.04573134868126362
1783244287769382700,0.272382568359375,-0.08472644791007042,0.028824381815642116,0.06851378345154226
1783244287779394600,0.28239453125,-0.14439911858439444,0.020281594397872686,0.07438523276820778
1783244287789405700,0.29240576171875,-0.17925649695396423,0.0142747551985085,0.03959565893784165
1783244287799417900,0.30241796875,-0.168743870767951,0.0041787469893693925,0.010151026332005857
1783244287809429800,0.3124296875,-0.08507949913144111,-0.0010894026719033716,0.0038573330152779817
1783244287819441000,0.32244091796875,-0.07694412347078323,-0.036569150723516936,-0.0038198870817199347
1783244287829452800,0.332452880859375,-0.05529284815490246,-0.0540239972628653,0.014793591440841554
1783244287839464700,0.342464599609375,-0.012151625564694403,0.009444412432610988,0.06687533206213266
1783244287849475600,0.3524755859375,0.03475742512643337,0.054672232038527724,0.06384867771733552
1783244287859487700,0.36248779296875,0.036986791613698,-0.006120236445963383,0.03815696790423244
1783244287869498600,0.37249853515625,0.03228782014250755,-0.016085896273702383,0.005701170783676207
1783244287879510500,0.382510498046875,0.046318683582544325,0.0017114800930023192,0.014716507616639136
1783244287889522700,0.392522705078125,0.04289923052787781,0.04039353131726384,0.007360372700169682
1783244287899533800,0.402533935546875,0.03178688488304615,0.07025543948709964,-0.0027813743468374013
1783244287909545700,0.412545654296875,-0.0685801997512579,0.019713439121097326,0.006228153799846768
1783244287919558000,0.422557861328125,-0.14568565126359462,0.01668868447244167,0.05445135582946241
1783244287929568800,0.43256884765625,-0.1614320864498615,0.1339680332019925,0.06851740018073468
1783244287939580700,0.44258056640625,-0.12364566889107227,0.1343953187033534,0.023237338930927217
1783244287949592800,0.4525927734375,-0.04442658622562885,0.013023586093634366,-0.05950852962117642
1783244287959603700,0.462603759765625,0.0539665679872036,0.011490531307458876,-0.10610931808073074
1783244287969615600,0.47261572265625,0.09376549441218375,0.09956322090551256,-0.08431468877140431
1783244287979626800,0.482626708984375,0.12884791370928286,0.11068857216238975,-0.06428272175304592
1783244287989639000,0.492638916015625,0.10776420914828777,0.07556684376820921,-0.05263535591606051
1783244287999650800,0.50265087890625,-0.0081476506203413,-0.02130202348679304,0.013466909414343534
1783244288009661700,0.51266162109375,-0.09190613028109074,0.04247136050462723,0.09444445311967282
1783244288019673900,0.522673828125,-0.19457915377020835,0.09857099499776958,0.09009791181534528
1783244288029685800,0.532685791015625,-0.20868834314346313,0.04430734376013279,-0.0022082141013815997
1783244288039696600,0.542696533203125,-0.21281389864087102,-0.007704436897486447,-0.02967595714367926
1783244288049708800,0.552708740234375,-0.19051848020255566,0.017902298045903445,-0.018196970143541692
1783244288059720700,0.562720703125,-0.13815525575876236,0.022688363278657198,-0.017247962323017417
1783244288069731800,0.57273193359375,-0.07465396670699119,0.01823591391444206,0.019996165052615106
1783244288079743700,0.58274365234375,-0.0025771570116281508,0.008233867599070072,0.045129985254630446
1783244288089755000,0.5927548828125,-0.08321779691278934,-0.07824424628391861,0.08028408154845237
1783244288099766800,0.602766845703125,-0.10123451511859893,-0.048921413426846264,0.14143475235346703
1783244288109778700,0.61277880859375,-0.08276946862339973,0.06419847753569484,0.17819971791002898
1783244288119789800,0.622789794921875,-0.12105389883220195,0.03321224151104688,0.16139716126695275
1783244288129801700,0.6328017578125,-0.02357026067972183,-0.020698943027108906,0.1415398566957563
1783244288139813600,0.642813720703125,0.09913900414407252,-0.017984277240931986,0.09219119430016726
1783244288149824500,0.652824462890625,0.18770751443505285,-0.052997284563630814,0.05845025273989886
1783244288159836700,0.662836669921875,0.2833265277594328,-0.06661211454868317,0.03488477783314883
1783244288169847800,0.672847900390625,0.35778058798015117,-0.055126843938231467,0.07385002991296351
1783244288179859700,0.682859619140625,0.2753910585850477,-0.06791559836268425,0.11292798511963337
1783244288189871900,0.692871826171875,0.048753801774978636,-0.1389873226687312,0.15524024607241152
1783244288199882800,0.7028828125,-0.13280454238057135,-0.06382262996062636,0.21094134623464195
1783244288209894700,0.712894775390625,-0.32572248494029044,0.03354308090060949,0.16586758467927573
1783244288219906800,0.72290673828125,-0.4304986181885004,0.02238514254838228,0.012123751177079974
1783244288229917700,0.732917724609375,-0.4743658169656992,0.020039602335542438,-0.16253679628875106
1783244288239929600,0.7429296875,-0.44390345868468284,0.07650821627154945,-0.2511851668829098
1783244288249940700,0.752940673828125,-0.361091319963336,0.10883856038153171,-0.2911418411528692
1783244288259953000,0.762952880859375,-0.17721534651517867,0.11550824740380049,-0.26390648209434003
1783244288269964800,0.77296484375,-0.024473346999287604,0.11424304977357387,-0.17748718572650105
1783244288279975700,0.7829755859375,0.06900397812128066,0.11330240792259573,-0.07548278221394866
1783244288289987800,0.79298779296875,0.08567337337136269,0.14153481519445776,-0.008114442470483482
1783244288299999700,0.802999755859375,0.05447802464067936,0.1737956011995673,0.030891689608991146
1783244288310010600,0.8130107421875,-0.04528583340346813,0.1789297492176294,0.022418898687511683
1783244288320022800,0.823022705078125,-0.11392565438747405,0.2097529036350548,-0.002515307289175689
1783244288330034700,0.83303466796875,-0.12172317639589308,0.2488986268483102,-0.025346586169861254
1783244288340045600,0.843045654296875,-0.07707096472084522,0.22643515836670994,-0.049049167992360886
1783244288350057700,0.8530576171875,0.05745791723430156,0.1889187899209559,-0.051446986381709574
1783244288360068900,0.86306884765625,0.16749533201158046,0.1489865925051272,-0.004246003539301455
1783244288370080800,0.873080810546875,0.2335761161625385,0.09793328161612153,0.05300510254390538
1783244288380092700,0.8830927734375,0.3173749278336763,0.12376432683467864,0.1651382840240374
1783244288390103800,0.893103759765625,0.33256606722474097,0.12596022944375873,0.2325113730078563
1783244288400115700,0.90311572265625,0.2580021168887615,0.06568827770203352,0.23846871050968765
1783244288410127600,0.913127685546875,0.12327274392545222,0.031833208242803814,0.21443700633067636
1783244288420138800,0.923138671875,-0.01310907242000103,0.037235651808232066,0.22948274590168147
1783244288430150700,0.933150634765625,-0.08475450496077537,0.08622121651247143,0.19285222037974745
1783244288440161800,0.943161865234375,-0.11860475211441517,0.05495309480652213,0.13566073552928865
1783244288450173700,0.953173583984375,-0.0992751977443695,-0.009795563957840203,0.08020897048562764
1783244288460185900,0.963185791015625,-0.07368132228255271,-0.021112638394534585,0.06165423641297966
1783244288470196700,0.97319677734375,-0.005660509979724884,0.002533756261318922,0.08771730028912425
1783244288480208600,0.983208740234375,0.01435293500125408,0.015369564697891473,0.12289916137270629
1783244288490220800,0.993220703125,-0.08238836035132407,-0.008503770581632852,0.12138258279729634
1783244288500231700,1.003231689453125,-0.13002104914188384,-0.002694207520037889,0.13350658970270304
1783244288510243600,1.01324365234375,-0.19385843828022478,0.0398342899993062,0.11136194137930869
1783244288520254700,1.023254638671875,-0.16827917586565017,0.045662703891843556,0.0110323026785627
1783244288530267000,1.033266845703125,-0.08087152604758739,0.01205810206234455,-0.08357515898309648
1783244288540278800,1.04327880859375,-0.03799626091718673,0.0001553366921842098,-0.13321699563898146
1783244288550289700,1.05328955078125,0.023997546181082723,0.04504033420979976,-0.13321699563898146
1783244288560301800,1.0633017578125,0.10481003551781178,0.06830386702790855,-0.0988714392490685
1783244288570313700,1.073313720703125,0.09083879331052302,0.0546558654256165,-0.026619857508689164
1783244288580324600,1.08332470703125,0.028881811091303822,0.041434418672323226,0.04944043233226984
1783244288590336800,1.093336669921875,-0.03145487644970417,0.0693808486096561,0.059572315572388464
1783244288600347600,1.10334765625,-0.112525139939785,0.06362462317049503,0.016098719222657383
1783244288610359600,1.113359619140625,-0.14077391382455826,0.052975949514657256,-0.04171469691842794
1783244288620371700,1.123371826171875,-0.09907762934565544,0.0723377987191081,-0.07994144212324172
1783244288630382800,1.1333828125,-0.08391922318041324,0.09772504569292068,-0.12854177036955952
1783244288640394800,1.143394775390625,-0.022463760742545125,0.11464300887659191,-0.18562763942107557
1783244288650407000,1.153406982421875,0.047753100299835205,0.0966666226811707,-0.19405987913645803
1783244288660417000,1.1634169921875,-0.03005260843634605,0.06475128911286591,-0.153606324727647
1783244288670429000,1.173428955078125,-0.07027531323134899,0.11239318412318824,-0.056544126857630904
1783244288680441000,1.183441162109375,-0.10040098690390586,0.15226532191485165,0.012137925832904874
1783244288690452200,1.1934521484375,-0.1169207445502281,0.09592179566323757,0.03751077895518392
1783244288700464000,1.203464111328125,-0.08295008588731288,0.02198810605481267,0.06564308685343712
1783244288710475000,1.21347509765625,-0.00597264466881752,0.0343302857555449,0.0911613032631576
1783244288720487200,1.223487060546875,0.055391047832369804,0.02341930790171027,0.07259403850249946
1783244288730499000,1.2334990234375,0.11786124027073383,0.01911021253094077,0.06868475610427557
1783244288740510000,1.243510009765625,0.13365969790518284,0.04197115589752793,0.1317522568486631
1783244288750522000,1.253522216796875,0.09813187292814254,0.02927899371534586,0.20034728884287178
1783244288760534000,1.263533935546875,-0.013413023802638053,-0.0024104221425950527,0.2528904364308342
1783244288770545000,1.273544921875,-0.1107563767015934,-0.032934301352500917,0.25064035594910383
1783244288780557000,1.28355712890625,-0.14455226331949234,-0.046362961115688085,0.2825084163095802
1783244288790568200,1.293568115234375,-0.15126725078821182,-0.004226239392906427,0.2818334031248465
1783244288800580000,1.303580078125,-0.0870411545932293,-0.002021276694536209,0.22771672260984777
1783244288810592300,1.31359228515625,-0.002466682374477386,-0.020402590429037807,0.16085435962714253
1783244288820603100,1.32360302734375,0.06935936743021011,-0.03999035734385252,0.09210852098539471
1783244288830615000,1.333614990234375,0.08169745547771454,-0.07146861466914414,0.07393489518482238
1783244288840627000,1.343626953125,0.0925479353159666,-0.06712327894121409,0.10741912203766404
1783244288850638000,1.35363818359375,0.06839432179033755,-0.048350920062512154,0.13742051174342632
1783244288860650000,1.36364990234375,-0.01628361080288887,-0.029930443361401556,0.12485482548512518
1783244288870661000,1.3736611328125,-0.08703530937433242,-0.011916793895512819,0.08389215251039712
1783244288880673300,1.38367333984375,-0.2021019504904747,0.0017214169651269913,0.056056270275451237
1783244288890685200,1.393685302734375,-0.2540232763856649,0.08223316978961229,0.023245924096181987
1783244288900696000,1.403696044921875,-0.26891864770054813,0.1359009009607136,-0.03021042934656143
1783244288910708000,1.4137080078125,-0.22484394365251062,0.14544906602874397,-0.1250413610331714
1783244288920719000,1.423718994140625,-0.15056407095491886,0.10596110524907708,-0.17388309681992978
1783244288930731000,1.43373095703125,-0.002855389431118965,0.1054373736359179,-0.15795297562982885
1783244288940743000,1.443742919921875,0.11134674381017684,0.11458251086100935,-0.10475293503571301
1783244288950754000,1.453754150390625,0.16919862879812717,0.152011054892838,-0.03174647980742156
1783244288960766000,1.463765869140625,0.16137304973900318,0.18061726391315458,-0.004877104517072439
1783244288970778000,1.473778076171875,0.11736322762072085,0.2089354497723281,0.007947999862395227
1783244288980789000,1.4837890625,0.04722001633644104,0.2127893487215042,-0.018441409891285
1783244288990801200,1.49380126953125,-0.016515081471204757,0.19120500116199254,-0.09505776271242648
1783244289000812000,1.50381201171875,-0.02779401585459709,0.17786007415950297,-0.12979904042165727
1783244289010824000,1.513823974609375,-0.003354571124911308,0.16757278116196392,-0.14515242116972804
1783244289020836000,1.523836181640625,0.05985504150390625,0.1304845750004053,-0.135855637046881
1783244289030847000,1.533846923828125,0.10944763219058513,0.08820566832795738,-0.03741170249488204
1783244289040859000,1.54385888671875,0.14632628725469113,0.022066139727085828,0.03748582717701793
1783244289050871000,1.55387109375,0.1240799686551094,-0.035480624834448096,0.12549199087750165
1783244289060882200,1.563882080078125,0.1152133561104536,-0.0628790655001998,0.20201123999971896
1783244289070894000,1.57389404296875,0.09678396545052528,-0.10791326223015785,0.23327658522669226
1783244289080905000,1.583905029296875,0.03047404871881008,-0.17598127467557786,0.23346692016702145
1783244289090917000,1.593917236328125,-0.03854863410294056,-0.2203368414916098,0.22147658611126242
1783244289100929000,1.603928955078125,-0.11274141303896903,-0.2301991870753467,0.22749979192353784
1783244289110940000,1.61393994140625,-0.15075637865662575,-0.23276801465004682,0.2206715898713097
1783244289120952000,1.6239521484375,-0.15449264257550238,-0.23867490060627458,0.20551760415285825
1783244289130964000,1.6339638671875,-0.14572306066453455,-0.23256460103243587,0.17918712151218205
1783244289140975000,1.64397509765625,-0.13353811735212803,-0.2292110528208315,0.1278882018316537
1783244289150987300,1.6539873046875,-0.0937900443315506,-0.23156360729634762,0.09840411399826407
1783244289160998100,1.663998046875,-0.046888007903099056,-0.22789748600423335,0.08720335941761731
1783244289171010000,1.674010009765625,-0.05596095667481422,-0.20428747783601284,0.09770108029544353
1783244289181022200,1.684022216796875,-0.0062742579638957975,-0.14062939078733325,0.10808456367645412
1783244289191033000,1.694033203125,0.0621837767124176,-0.08206234326735139,0.05855612426716834
1783244289201045000,1.704044921875,0.09452303478121757,-0.058329731632769104,-0.013698197419568896
1783244289211057000,1.714056884765625,0.21247429142296312,0.007478080795705318,-0.03187412477508187
1783244289221068000,1.724068115234375,0.24010990184545516,0.0525536324493587,-0.036441286560148
1783244289231080000,1.734079833984375,0.2997872486948967,0.08528437405377626,0.016289675217494366
1783244289241091000,1.744091064453125,0.32443302965164184,0.058616878011077636,0.021285729939118026
1783244289251103200,1.754103271484375,0.14750585242807865,0.001870177786052227,-0.050534913038089865
1783244289261115100,1.764115234375,-0.10187339754402637,0.045023090814054006,-0.08166242069695144
1783244289271126000,1.7741259765625,-0.31453765858113764,0.12081804424971342,-0.03513089808132499
1783244289281138000,1.784137939453125,-0.4306622843176126,0.16062442332878707,-0.0022309373898431657
1783244289291150000,1.794150146484375,-0.4546329424917698,0.10681742981746792,-0.030479236350581047
1783244289301161000,1.804160888671875,-0.496009493497014,0.011043518192321062,-0.145931150457263
1783244289311172900,1.8141728515625,-0.49117023677229876,0.026280980943143368,-0.15885113004595042
1783244289321184300,1.824184326171875,-0.3902905264407396,0.13342442784458397,-0.06961272113677114
1783244289331196200,1.834196044921875,-0.34134558600783343,0.20217326216101644,-0.04200699439588934
1783244289341208000,1.8442080078125,-0.23334698358178138,0.12900646527186035,-0.0940061713002622
1783244289351219200,1.85421923828125,-0.1242015492081642,0.07193871639892459,-0.11778788277357816
1783244289361231000,1.864231201171875,-0.052658992519974704,0.07732903113514185,-0.06532349951025099
1783244289371242000,1.874241943359375,0.019624737924337388,0.10125672695040702,0.007367021636664867
1783244289381254000,1.88425390625,0.08428045770823955,0.12183292038068175,0.08563245683908462
1783244289391266000,1.89426611328125,0.16515549088716505,0.12392214774489402,0.1332046110814437
1783244289401277200,1.904277099609375,0.22662147471904753,0.11406827772855758,0.15974409683030097
1783244289411289000,1.9142890625,0.22877777597010135,0.06292597338184713,0.1586769790554419
1783244289421301200,1.92430126953125,0.22212474782168865,0.019977935276180504,0.15068123106118292
1783244289431312100,1.93431201171875,0.18150807527303695,-0.012204378665238618,0.16039218547549097
1783244289441324000,1.944323974609375,0.12101415134370326,-0.04131561459824443,0.15393329165969044
1783244289451335000,1.9543349609375,0.08807926546931266,-0.031092472878098486,0.1589577687582001
1783244289461347000,1.96434716796875,0.05057926363646984,-0.03375160908475518,0.16329941469170153
1783244289471359000,1.97435888671875,0.018341712376475333,-0.0316083134457469,0.16428871798999606
1783244289481369900,1.984369873046875,-0.05065349791646003,-0.04772109772637486,0.1698577137613669
1783244289491382000,1.994382080078125,-0.0988783073812723,-0.05263897264525294,0.17964001637883484
1783244289501394000,2.004393798828125,-0.15052549251019953,-0.051505146309733386,0.1897081502003595
1783244289511405000,2.014405029296875,-0.20979951925575732,-0.019833412238955496,0.20538809602167457
1783244289521417200,2.024417236328125,-0.20533552558422088,-0.049440761125832795,0.1868915584096685
1783244289531428000,2.034427978515625,-0.1679635340452194,-0.037480274219065905,0.1811154957588762
1783244289541440000,2.04443994140625,-0.11751754139959812,-0.008672112885862589,0.16820819298867135
1783244289551452200,2.0544521484375,-0.06168751762807369,0.0047639995314180845,0.14944142360053955
1783244289561463000,2.064463134765625,0.019471008667349816,0.051833501481264824,0.14949286152683197
1783244289571475000,2.074474853515625,0.10854629943668842,0.08033741917088627,0.13849752985779196
1783244289581486000,2.084486083984375,0.1754232024013996,0.07340469729825853,0.12421576039660721
1783244289591498200,2.094498291015625,0.2263093400299549,0.052361763139069074,0.1199011486005038
1783244289601510100,2.10451025390625,0.21449849072694777,0.11508476129472255,0.16377287742234767
1783244289611521000,2.11452099609375,0.1674713666141033,0.16336933812275528,0.2073339328598231
1783244289621533200,2.124533203125,0.13196516894698143,0.17111892933622003,0.1808483327226713
1783244289631545000,2.134545166015625,0.17391688949167727,0.1872210460923612,0.10633823146577924
1783244289641556000,2.144555908203125,0.1927472621679306,0.16430705736428497,0.025394297769106924
1783244289651568000,2.154568115234375,0.18580021950900555,0.11740049089118837,-0.05377429681811481
1783244289661579500,2.16457958984375,0.07651566892564296,0.07090045939236879,-0.06929503348972647
1783244289671591400,2.17459130859375,-0.053283261898159975,0.10279606534689664,-0.028889921332523227
1783244289681603600,2.184603515625,-0.08460837448835372,0.12193199684098362,-0.02249835713189095
1783244289691614700,2.19461474609375,-0.11497604022324084,0.12049743399322033,-0.037478922512196
1783244289701626600,2.204626708984375,-0.15378127943575381,0.10479016177356243,-0.0780484314508736
1783244289711638800,2.214638671875,-0.1190776303231716,0.04338423756584525,-0.14782204223778098
1783244289721649700,2.224649658203125,-0.15619009414315224,-0.030781945624202486,-0.18364285881202666
1783244289731661600,2.23466162109375,-0.240330266597867,-0.08848945370540022,-0.12844550692085177
1783244289741672400,2.24467236328125,-0.26667992886304853,-0.07150105563402176,-0.002102050313167274
1783244289751684600,2.2546845703125,-0.27226503551900383,-0.007669803975522518,0.09113218676652758
1783244289761696500,2.264696533203125,-0.21463936050236224,-0.016470657807588576,0.12254340673759578
1783244289771707600,2.274707763671875,-0.10856734222471713,-0.074410951731354,0.09709087597522884
1783244289781719800,2.2847197265625,-0.06586334200799465,-0.12717574271336196,0.08869074843116104
1783244289791731700,2.294731689453125,-0.04654723164141178,-0.12064210316091775,0.11915708876755088
1783244289801742600,2.30474267578125,-0.04560673592090606,-0.0847965905368328,0.10099011190347373
1783244289811754800,2.314754638671875,-0.06412322034239769,-0.04075082032233476,0.041953437577746805
1783244289821765600,2.324765625,-0.06946925754547119,-0.03863105168938637,-0.023108817180432378
1783244289831777500,2.334777587890625,-0.028399580532312393,-0.009721768069267273,-0.11497604022324084
1783244289841789400,2.34478955078125,-0.0320808993935585,0.007716419596225023,-0.16560016591474414
1783244289851800600,2.354800537109375,-0.07759118920266628,0.04447714736908674,-0.1477559912642464
1783244289861812500,2.3648125,-0.08716858036518096,0.09937354355230926,-0.08315280538517981
1783244289871823600,2.37482373046875,-0.09026771542429923,0.14432313073873518,-0.08037420751731843
1783244289881835800,2.384835693359375,-0.06814940711855888,0.117541068405658,-0.14583024736605585
1783244289891847700,2.39484765625,-0.0329652810126543,0.10721505083292722,-0.19599486578702927
1783244289901858600,2.404858642578125,-0.0016980360895395277,0.13973434164375065,-0.1996366563554853
1783244289911870700,2.41487060546875,0.005518471160531044,0.18870865430161357,-0.16329839177839456
1783244289921882600,2.424882568359375,-0.051425651332736015,0.1866270257219672,-0.1226143165493384
1783244289931893500,2.4348935546875,-0.1178407820045948,0.1592998967267573,-0.12035638155471533
1783244289941905400,2.444905517578125,-0.18340835593640803,0.1572315660201013,-0.1084807233871892
1783244289951916800,2.454916748046875,-0.22998130654096602,0.18362959747165442,-0.08351418604347854
1783244289961928700,2.4649287109375,-0.2272287929624319,0.24723069363608954,-0.0260030773172155
1783244289971940600,2.474940673828125,-0.17133330273926256,0.2827989967539906,-0.0044607788011431695
1783244289981951700,2.48495166015625,-0.05611351688802242,0.2992785685203969,-0.03494209751095623
1783244289991963600,2.494963623046875,0.07266133158504963,0.2823268491975963,-0.11592702080514282
1783244290001974500,2.504974609375,0.19875731623768805,0.21841946356296538,-0.22648414860758928
1783244290011986400,2.514986328125,0.2175035177618265,0.06651523004546761,-0.3839352025972679
1783244290021998600,2.52499853515625,0.17235037082731722,-0.036492286095023155,-0.43082584084887054
1783244290032009700,2.535009765625,0.08534253398180007,-0.016823855159431696,-0.35458471454828977
1783244290042021600,2.545021728515625,-0.046340895414352413,0.006302315014600753,-0.23541787157170474
1783244290052033500,2.555033447265625,-0.1465788007110357,-0.05511909902319312,-0.12132117146626115
1783244290062044700,2.565044677734375,-0.15413783778846263,-0.10202303514778613,0.010913315941393375
1783244290072056600,2.575056640625,-0.13571429234743118,-0.11082827289402485,0.13158807926289737
1783244290082067500,2.5850673828125,-0.0073369187593460075,-0.0983583751603961,0.17080306832008063
1783244290092079600,2.59507958984375,0.18659633832275865,-0.10780278759300709,0.17599113848246634
1783244290102091500,2.605091552734375,0.3175672355353832,-0.1837491321980953,0.11450805738531053
1783244290112102400,2.615102294921875,0.3908405615389347,-0.1675705892048776,0.11732749872021377
1783244290122114600,2.625114501953125,0.38635961673259733,-0.06089212946668267,0.1396658064521849
1783244290132125700,2.635125732421875,0.3519885605752468,0.0587144931666553,0.1607792485643178
1783244290142137600,2.6451376953125,0.3930173210561275,0.14089023368060588,0.18213753228299318
1783244290152149800,2.655149658203125,0.42499592911899087,0.14449088852107525,0.18511311402767897
1783244290162160600,2.66516064453125,0.46685529520511626,0.042985009115189314,0.1525862974975258
1783244290172172500,2.675172607421875,0.39603053139746186,-0.06758432058170437,0.009973039416596293
1783244290182184700,2.685184814453125,0.06231938579082489,-0.16703063710927962,-0.030097032099962232
1783244290192195600,2.695195556640625,-0.09882511588931082,-0.09977905561327934,0.2708626213751733
1783244290202207500,2.70520751953125,-0.35408173346221444,-0.012325959218293428,0.42434236058108504
1783244290212218600,2.715218505859375,-0.5315308887332677,-0.025210575232654808,0.48169784035421903
1783244290222230800,2.725230712890625,-0.5838678096920251,-0.09396218602806329,0.4001616398528218
1783244290232242700,2.73524267578125,-0.6324982773482799,-0.09188961753770708,0.3280398219719529
1783244290242253600,2.745253662109375,-0.589929301688075,-0.09117401661425828,0.25090119884237644
1783244290252265700,2.755265625,-0.5436901130825281,-0.09456804296672344,0.16115275805182755
1783244290262276600,2.765276611328125,-0.5514549018651247,-0.08102744726166129,0.13376914962902664
1783244290272288500,2.77528857421875,-0.5297738159328699,-0.028790333415567873,0.19871888392344117
1783244290282300700,2.78530078125,-0.4669809674113989,0.06166062962114811,0.2685679345667362
1783244290292311600,2.7953115234375,-0.3681973525762558,0.07433174901530146,0.2957129849933088
1783244290302323500,2.805323486328125,-0.22983517606854437,0.0379487685136497,0.26787184206135567
1783244290312335600,2.815335693359375,-0.13384265325665473,-0.027556407706439492,0.17380626872405408
1783244290322346800,2.8253466796875,-0.09448796346783638,-0.06543313389718532,0.07728679942861198
1783244290332358700,2.835358642578125,-0.022485972574353218,-0.007992460058629513,0.03594875380285084
1783244290342369500,2.84536962890625,-0.006609773528575897,0.09892360782772303,0.054867462349683045
1783244290352381700,2.855381591796875,0.014705401700735091,0.1488590206027031,0.09080898269414901
1783244290362393600,2.8653935546875,0.09545359362959861,0.10339812289327382,0.0985231372680515
1783244290372404500,2.875404541015625,0.12331366045773029,0.044592005920410155,0.06744228176251053
1783244290382416400,2.88541650390625,0.10050152466893196,0.01892564974427223,0.05786839773133397
1783244290392427800,2.895427734375,0.07642506803274154,-0.0015308628290891647,0.08091258871033788
1783244290402439700,2.905439697265625,0.02501169165968895,0.003726765438169241,0.11961151800416409
1783244290412451600,2.91545166015625,-0.06328384690880776,-0.02443666825070977,0.13726568650789558
1783244290422462700,2.925462646484375,-0.13197393677532673,0.007226444122195244,0.147647379790619
1783244290432474600,2.935474609375,-0.22155425445735452,0.08280424767583608,0.15179638922885058
1783244290442485500,2.945485595703125,-0.262585353025794,0.17273074844703076,0.14576887256763874
1783244290452497400,2.955497314453125,-0.21600305007100104,0.18966200950369239,0.05380896627269685
1783244290462509600,2.965509521484375,-0.06659691697955131,0.18055194359198212,-0.06238682500384748
1783244290472520700,2.975520751953125,0.07489654329121112,0.14196736139282584,-0.16133016044534743
1783244290482532600,2.98553271484375,0.15107435856461524,0.08792524395138025,-0.23163630720637737
1783244290492544800,2.995544677734375,0.16690905655622482,0.08531082366928458,-0.23256628153286873
1783244290502555600,3.0055556640625,0.08840659772753715,0.11886544887721538,-0.1590213720463216
1783244290512567600,3.015567626953125,-0.00990530794262886,0.1534349502161145,-0.08746420231088996
1783244290522578700,3.02557861328125,-0.0954231984913349,0.16645488304793835,-0.0957984615445137
1783244290532590600,3.035590576171875,-0.12382920876443386,0.1600089217789471,-0.1586669325854629
1783244290542602500,3.0456025390625,-0.14179215095639228,0.16765782909691332,-0.21621296649463473
1783244290552613400,3.05561328125,-0.14982231267690657,0.20240414830744266,-0.2533488111902028
1783244290562625500,3.06562548828125,-0.10742167932093143,0.25012597668617964,-0.2750311392314732
1783244290572636700,3.07563671875,-0.1102028344720602,0.209770293161273,-0.2828420321781188
1783244290582648600,3.085648681640625,-0.04888298111259937,0.19523323376476764,-0.26571378724463285
1783244290592660700,3.09566064453125,0.005615501794219017,0.1980143889158964,-0.2299170091331005
1783244290602671600,3.105671630859375,0.024594927552342414,0.18333748265728353,-0.1935087480597198
1783244290612683500,3.11568359375,0.041076106753945345,0.1526524215362966,-0.16086531941257418
1783244290622695700,3.12569580078125,0.05071195010542869,0.10278203682154416,-0.17975085634216664
1783244290632706600,3.13570654296875,0.03315349706113338,0.037226445588469506,-0.200351526626572
1783244290642718500,3.145718505859375,-0.030088264271616934,0.0024339491486549377,-0.17165647027902303
1783244290652729600,3.1557294921875,-0.1097188503473997,0.004566577263176441,-0.15036752546951174
1783244290662742000,3.165741943359375,-0.11731880395710467,-0.023742110115289688,-0.09014226241372525
1783244290672754000,3.17575390625,-0.11827099011540412,-0.05738207551911473,0.002283507827296853
1783244290682764800,3.185764892578125,-0.14958265870213508,-0.08882847640141844,0.1306783440068364
1783244290692777000,3.19577685546875,-0.17413199354708195,-0.07926306793764233,0.28542510747388006
1783244290702787800,3.205787841796875,-0.17168167778551577,-0.06343143868595362,0.3774320677809417
1783244290712799700,3.2157998046875,-0.2021276694536209,-0.08124415875226258,0.363821621710062
1783244290722811600,3.225811767578125,-0.17592296861708162,-0.1252978200122714,0.2883412141162902
1783244290732822800,3.23582275390625,-0.11732815630733966,-0.12993322472795843,0.177605003419891
1783244290742834700,3.245834716796875,-0.08949147035479545,-0.12988997010812162,0.07533800344839692
1783244290752845800,3.255845703125,-0.024750410374999046,-0.07341741064935922,0.021861849326640367
1783244290762858000,3.26585791015625,0.08497896136641502,0.009298720351606607,0.026403365213796496
1783244290772870000,3.275869873046875,0.12086334469616412,0.0656463382564485,0.025789032707735894
1783244290782880800,3.285880859375,0.1244587388396263,0.03912833368703723,0.025514672745764255
1783244290792892700,3.295892578125,0.11989537644684314,0.03749138013496995,0.02501118020303547
1783244290802904800,3.30590478515625,0.06539397093057632,0.06350348100885748,0.03809416833370924
1783244290812915700,3.315915771484375,0.10371347245275973,0.08346855680346489,0.03869622588008642
1783244290822927600,3.325927734375,0.10466565861105918,0.03834697405099868,-0.03540967849008739
1783244290832939000,3.33593896484375,0.11491466542482376,0.01717252246662974,-0.09817198574282228
1783244290842951000,3.345950927734375,0.14524842889010905,0.07171323707997798,-0.10268946316726506
1783244290852962800,3.355962890625,0.12980185343325137,0.11854717670828104,-0.1144397413894534
1783244290862973700,3.3659736328125,0.13096271390616893,0.13670534921139477,-0.11797091119028627
1783244290872985900,3.37598583984375,0.12454290999174117,0.12706029964014887,-0.1181391804292798
1783244290882996700,3.385996826171875,0.09997954662144183,0.12319558703601359,-0.15024740622118116
1783244290893008600,3.396008544921875,0.04673720125555992,0.07682897265851497,-0.19143939443975685
1783244290903020800,3.406020751953125,0.014335399344563484,0.07372735338136553,-0.21984832732230425
1783244290913032000,3.416031982421875,-0.006351999375224113,0.13308467449620365,-0.2165962667237967
1783244290923043800,3.4260439453125,-0.056737201744318004,0.13366641990691422,-0.19900968356356025
1783244290933055000,3.436054931640625,-0.09220189835727215,0.09893734409213066,-0.1605889136239886
1783244290943067000,3.44606689453125,-0.10966799694299698,0.0801296216391027,-0.13212006724774836
1783244290953078800,3.456078857421875,-0.1709878503024578,0.06580547434091567,-0.1339485978491604
1783244290963089700,3.466089599609375,-0.22361235603094098,0.02391132920235395,-0.1336223615694791
1783244290973101800,3.476101806640625,-0.21837328633368014,0.004560147522389889,-0.13685279485806823
1783244290983112700,3.48611279296875,-0.19864450351297855,0.011163929701596497,-0.10592771443612872
1783244290993124600,3.49612451171875,-0.20287936460375786,0.010132248566299676,-0.06645159022472799
1783244291003136800,3.50613671875,-0.1766524519354105,-0.006534224074333906,-0.02037277981266379
1783244291013148000,3.51614794921875,-0.12218728677630424,-0.041872956220060584,0.004045475998520851
1783244291023159800,3.526159912109375,-0.032382512688636775,-0.046049803513288495,0.040280718592554325
1783244291033172000,3.536171875,0.009264087429642676,-0.03985679409205913,0.09353599650524556
1783244291043182800,3.546182861328125,0.0030249007791280746,-0.09520867895781994,0.08154138813316822
1783244291053194800,3.55619482421875,0.005562894824147224,-0.1577636270701885,0.08032689777687191
1783244291063205600,3.56620556640625,-0.05836392616331577,-0.16698416761904955,0.11316416849568485
1783244291073217800,3.5762177734375,-0.14161913247704505,-0.10995338975563644,0.18931831063255666
1783244291083229700,3.586229736328125,-0.20053893895745276,-0.05881254671365022,0.21284312473535535
1783244291093240800,3.59624072265625,-0.2091986307531595,0.005116173969954252,0.20656134105212987
1783244291103253000,3.6062529296875,-0.15758359432816504,0.01974675686880946,0.21297193874679504
1783244291113263900,3.616263916015625,-0.011979776129126547,0.0508443443134427,0.16401041250526904
1783244291123275800,3.62627587890625,0.10183131196796893,0.07144494153261184,0.0895187967531383
1783244291133288000,3.636287841796875,0.2023766757786274,0.09764613523781299,0.02694894333258271
1783244291143298800,3.646298828125,0.28078385753929613,0.11398527562022208,-0.013582023693993688
1783244291153310700,3.656310791015625,0.2779658775091171,0.12515709636732936,-0.04693966502510011
1783244291163321900,3.66632177734375,0.18691431823074817,0.11454144819825887,-0.03975749843604862
1783244291173333800,3.676333740234375,0.11456453681290149,0.10117211740687489,-0.02736629196181893
1783244291183346000,3.686345947265625,-0.03655190732777119,0.12986775827631353,-0.04797762977071106
1783244291193356800,3.696356689453125,-0.18456161762475967,0.14955401712954045,-0.07277502109259366
1783244291203369000,3.706368896484375,-0.28603812480568885,0.12022358548790216,-0.1362998371504247
1783244291213379800,3.7163798828125,-0.3059662295907736,0.10059007973521947,-0.18449556665122507
1783244291223391700,3.726391845703125,-0.2818792515605688,0.09186769796684384,-0.23359701282009482
1783244291233404000,3.73640380859375,-0.21739245860278605,0.1293443189240992,-0.21073387749642133
1783244291243414800,3.746414794921875,-0.16840952424705027,0.19371026198118924,-0.1345216484967619
1783244291253426700,3.7564267578125,-0.05715045872032642,0.2488471889220178,-0.046000776739791034
1783244291263438600,3.7664384765625,0.08062544233202934,0.2291372569322586,-0.001779284632205963
1783244291273450000,3.776449951171875,0.23894787232875822,0.1804667495265603,0.049868923410028215
1783244291283462000,3.7864619140625,0.37469548242390155,0.1444433961175382,0.08380531447716057
1783244291293472800,3.79647265625,0.4690320547223091,0.08143792775869368,0.03201587133333087
1783244291303485000,3.80648486328125,0.4964268421262502,0.014775544327497482,-0.02470123747102916
1783244291313496800,3.816496826171875,0.4046574899673462,-0.019061697214096784,-0.07324351538717747
1783244291323507700,3.8265078125,0.23740824167132377,-0.017661036635935306,-0.08009023947678506
1783244291333519600,3.83651953125,0.017851883032917976,0.007252016954869031,-0.0822987823717296
1783244291343531000,3.846531005859375,-0.18850363324880598,0.0340663741223514,-0.04548215969316661
1783244291353543000,3.85654296875,-0.3109609691381454,0.06227803086712956,-0.003998933443054556
1783244291363554800,3.866554931640625,-0.3615793957412243,0.06333513870462774,0.03864603006280958
1783244291373566000,3.87656591796875,-0.31460546312034127,0.03250336258932948,0.01836794279627502
1783244291383577900,3.886577880859375,-0.1914911246269941,-0.013870996703207492,-0.005835793481394648
1783244291393588700,3.896588623046875,-0.05103168357908725,-0.043830373898148534,-0.05061265444941818
1783244291403600600,3.9066005859375,0.03791208976507187,-0.08624298995286225,-0.07542780062370001
1783244291413612800,3.91661279296875,0.010909516549110413,-0.11326266043409705,-0.073179583305493
1783244291423623700,3.926623779296875,-0.037843700703978536,-0.10739771392345428,-0.057584831549599765
1783244291433635600,3.936635498046875,-0.1438742179274559,-0.06940919792130588,0.017908508590981365
1783244291443647000,3.94664697265625,-0.262124749776721,0.008033376590907573,0.08945786034613847
1783244291453659000,3.956658935546875,-0.3189315096259117,0.05892492104694247,0.11834076741598545
1783244291463670800,3.9666708984375,-0.2802846758455038,0.07685089222937821,0.08013970464169978
1783244291473682000,3.976681884765625,-0.13882102619111536,0.08310966036319732,0.030970234737917778
1783244291483693800,3.98669384765625,0.00019406126737594602,0.049372518195211886,0.005840834982693195
1783244291493704700,3.99670458984375,0.12304711847603321,-0.01554419061243534,-0.03963905968815088
1783244291503716600,4.006716552734375,0.1585176603078842,-0.04743614330515265,-0.06113521750755608
1783244291513728800,4.016728759765625,0.07685001544654368,-0.04013444198966026,-0.0038007805224508045
1783244291523740000,4.026739990234375,-0.04234568829834461,0.005091477920114993,0.09026990738138556
1783244291533751800,4.036751708984375,-0.1597159301817417,0.019672668719291686,0.18608648910447953
1783244291543763000,4.046762939453125,-0.25142624562978744,0.038447073424607514,0.30264599912688134
1783244291553774800,4.05677490234375,-0.21523615735173224,0.15286489524319766,0.3761817754589021
1783244291563786800,4.066786865234375,-0.11938918049037456,0.17413287032991648,0.30328765803128477
1783244291573797600,4.076797607421875,0.07399462601542472,0.12771321059092877,0.16604725209511814
1783244291583809800,4.086809814453125,0.24543080460727212,0.09270955561846494,0.03752382109984755
1783244291593821000,4.096821044921875,0.3571767768681049,0.07182634206563233,-0.08236571012809872
1783244291603832800,4.106832763671875,0.3862526492267847,0.0027377544008195397,-0.14695384456850588
1783244291613845000,4.116844970703125,0.26596622763574124,-0.06548048017024993,-0.08296060728132724
1783244291623855900,4.12685595703125,0.06459551402926444,-0.05468143825829029,0.06991532081253826
1783244291633867800,4.13686767578125,-0.10783376725316048,0.029821868420392274,0.1836477907154709
1783244291643880000,4.1468798828125,-0.24872400093376634,0.038978842213749886,0.20890995000489054
1783244291653890800,4.156890869140625,-0.2616121240794658,0.04907996498942375,0.18877916225455701
1783244291663902200,4.166902099609375,-0.16669278345704078,0.07839505293145775,0.1316780956339091
1783244291673913300,4.176913330078125,-0.029838088902831076,0.08023162070885301,0.005594970462843776
1783244291683925200,4.18692529296875,0.12548515927791595,0.026668811216950417,-0.10504954336211085
1783244291693937400,4.1969375,0.23487726188898086,-0.010178133534640072,-0.10766294073089956
1783244291703948300,4.2069482421875,0.23547815039157866,0.0021545476853847504,-0.010872399409115314
1783244291713960200,4.216960205078125,0.17213994294703006,-0.033958675964176656,0.11356383533775806
1783244291723971000,4.22697119140625,0.047964697223901745,-0.05619812643155455,0.2240020129356533
1783244291733983200,4.236983154296875,-0.11110299818217753,-0.06489113597497344,0.31549320574030276
1783244291743995100,4.2469951171875,-0.1564700801283121,-0.011216828932613134,0.3359662310570478
1783244291754006300,4.25700634765625,-0.18637129739522934,0.07048004202321172,0.2543775697160512
1783244291764018200,4.26701806640625,-0.15660802729427814,0.041492870861291886,0.027259835912659763
1783244291774029300,4.277029296875,-0.05336334139704704,0.004472030847519636,-0.1524411168731749
1783244291784041200,4.287041259765625,0.06719546739459037,0.000794072987139225,-0.19390804957561195
1783244291794053000,4.29705322265625,0.11520634184777737,-0.017935469663143157,-0.13054090829752385
1783244291804064300,4.307064208984375,0.13936229346096515,-0.024365941102057694,0.010403758984059095
1783244291814076200,4.317076171875,0.13888006290197372,0.029965953066200018,0.18950835331194102
1783244291824087000,4.327087158203125,0.06871113265454769,0.07008490522578359,0.31070334111526604
1783244291834099200,4.33709912109375,0.011402853024005889,0.08116758638471365,0.3090681411288678
1783244291844111000,4.347111083984375,0.038600656551122665,0.04904357850179076,0.1978840405344963
1783244291854122200,4.357122314453125,0.013970657685399054,0.012672726829349994,0.044672158484533424
1783244291864134100,4.367134033203125,-0.008607084825634955,0.0426554848998785,-0.07848875909689813
1783244291874145300,4.377145263671875,-0.015952771413326263,0.05391717588752508,-0.17963471914920956
1783244291884157200,4.3871572265625,-0.03792845637798309,0.07272226799204945,-0.2499814536489546
1783244291894169000,4.397169189453125,-0.05732289267778396,0.07532938175052405,-0.28556345649864523
1783244291904180200,4.40718017578125,-0.08360182779431342,0.03150295337513089,-0.28978870951086283
1783244291914192100,4.417192138671875,-0.1062245784908533,-0.010509265185147523,-0.23324195230472833
1783244291924203300,4.427203369140625,-0.0663747986614704,-0.02509454763755202,-0.17302198647856712
1783244291934215200,4.437215087890625,-0.04037117335498333,-0.0892258051559329,-0.18005301762651651
1783244291944227300,4.447227294921875,0.0034878421157598493,-0.1222936697602272,-0.18839067439362406
1783244291954238200,4.45723828125,0.03826514098644256,-0.09419541026204824,-0.17573581201452762
1783244291964250000,4.46725,0.05285714544057846,-0.07422142050862311,-0.17382164895627647
1783244291974261200,4.47726123046875,0.04371989926099777,-0.11504691350236534,-0.17227606348209082
1783244291984273200,4.487273193359375,-0.023278584256768226,-0.1650356638997793,-0.16465539587792008
1783244291994285000,4.49728515625,-0.09727847096920013,-0.15605448506474495,-0.10640698585305362
1783244292004296200,4.507296142578125,-0.1293394966185093,-0.12071312257051467,-0.036950149397738274
1783244292014308000,4.51730810546875,-0.161084295925498,-0.14347732756435871,0.012502521361596882
1783244292024319200,4.5273193359375,-0.15576573125123977,-0.17124357862919568,0.0446456358037889
1783244292034331100,4.5373310546875,-0.14788403809070585,-0.12398439932614565,0.08290752538722009
1783244292044343300,4.54734326171875,-0.140737088945508,-0.11365516688302159,0.11058660962525754
1783244292054354200,4.557354248046875,-0.12137363230586051,-0.1393579095467925,0.0793843927623704
1783244292064366000,4.567365966796875,-0.09751403329074382,-0.12332608154788613,0.03592259644828737
1783244292074377200,4.577377197265625,-0.1580512118399143,-0.11785612570419907,0.018993454283475875
1783244292084389000,4.58738916015625,-0.20112755250036715,-0.08347484041377902,0.035976153266429896
1783244292094401000,4.597401123046875,-0.22851941729485986,-0.02341404720470309,0.06190868609808385
1783244292104412200,4.607412109375,-0.25892332338690754,-0.015568009879440068,0.06792180890776217
1783244292114424300,4.61742431640625,-0.19599545030891893,0.005867430728673934,0.04299041594266891
1783244292124435200,4.627435302734375,-0.14852350503802297,-0.0065747022151947014,0.007858677611127496
1783244292134447000,4.637447021484375,-0.11713234147429466,0.023704846844822165,0.0010571809027343987
1783244292144459300,4.647459228515625,-0.06719839000403881,0.05715688846111297,0.014153686102107167
1783244292154470100,4.65747021484375,-0.06605740327537059,0.0689076781399548,0.03150024996139109
1783244292164482000,4.66748193359375,-0.0683838003963232,0.07454495337456464,0.09102686322852968
1783244292174493200,4.6774931640625,-0.10066811340749263,0.10558540380448102,0.1890294472211972
1783244292184505300,4.68750537109375,-0.10868132399320601,0.11459332451596856,0.237116163389571
1783244292194517200,4.697517333984375,-0.12237900995612144,0.07564239322245121,0.25683252512011673
1783244292204528000,4.707528076171875,-0.07666589105129241,0.06055661390200257,0.285126709049195
1783244292214540300,4.717540283203125,0.01831482436954975,0.09303381913676857,0.29559337720163165
1783244292224551200,4.72755126953125,0.10385083509683608,0.09414601816236973,0.27578221332710234
1783244292234563000,4.73756298828125,0.16114742428958415,0.0702152536071837,0.21906112246736884
1783244292244575200,4.7475751953125,0.16126666675508022,0.07066328963562846,0.1970833916760981
1783244292254586000,4.757586181640625,0.09291092340946197,0.10850596742630005,0.20929233691859989
1783244292264598000,4.767597900390625,-0.0006868132203817367,0.10045534743964671,0.20391027855407445
1783244292274609200,4.777609130859375,-0.05046119021475315,0.06878054462894798,0.16447649564705788
1783244292284621300,4.787621337890625,-0.13937164581120012,0.024727321760356424,0.12106021897513419
1783244292294633200,4.79763330078125,-0.21951544210612772,0.04334010616317391,0.07964925424363464
1783244292304644000,4.80764404296875,-0.2787584891915321,0.09782572958841919,0.09136424195673316
1783244292314656300,4.81765625,-0.32045009749531744,0.10123056959584355,0.10789839345458895
1783244292324667100,4.827667236328125,-0.29973113459348677,0.09163798086419701,0.09940218512490391
1783244292334679000,4.837678955078125,-0.2115916633695364,0.07364698162153363,0.022696400454640386
1783244292344691200,4.847691162109375,-0.10698387242555618,0.05219488213956356,-0.05496080318894237
1783244292354702300,4.857702392578125,0.04007189814746379,0.06088862233534455,-0.1032258350662887
1783244292364714200,4.86771435546875,0.09666706107258796,0.050481356219947336,-0.11096848508231341
1783244292374725000,4.87772509765625,0.10760814180374145,0.026617519421130418,-0.06890731281377374
1783244292384737300,4.8877373046875,0.07134966446459293,0.004187076426297426,-0.004003317357227206
1783244292394749200,4.897749267578125,-0.04783902501761913,-0.036742899855226274,0.04649323643185198
1783244292404760000,4.907760009765625,-0.1589011066675186,-0.03641264498755335,0.16115867633596062
1783244292414772200,4.917772216796875,-0.260462954044342,0.007726794859766959,0.24692425803542137
1783244292424783000,4.927783203125,-0.26276655481159683,0.045636108145862816,0.2541602737035602
1783244292434795300,4.937795166015625,-0.22403788796663282,0.06639174979627133,0.19375358966626227
1783244292444807200,4.94780712890625,-0.16669453702270984,0.09819543968364595,0.12002660161107778
1783244292454818300,4.957818359375,-0.12997779452204702,0.0696307317174971,0.031994536284357306
1783244292464830200,4.967830322265625,-0.09803075064122677,0.06940890566036105,0.029468598003312942
1783244292474841000,4.977841064453125,-0.03998655795156956,0.10539324223324656,0.06839658681266009
1783244292484853200,4.987853271484375,0.009879004457592964,0.15907017962411046,0.10227094549424946
1783244292494865200,4.997865234375,0.08990122019946574,0.20745982426181434,0.16507095440886912
1783244292504876000,5.0078759765625,0.18996844510436056,0.24338190925344824,0.2928700897175818
1783244292514888200,5.01788818359375,0.2520318103075027,0.2632933551646769,0.3671587302435189
1783244292524899300,5.0278994140625,0.3147299662828445,0.26700258494615553,0.35568105841763314
1783244292534911200,5.0379111328125,0.39410570081472396,0.26770941804125903,0.26636406784690914
1783244292544923100,5.047923095703125,0.43903556038737296,0.23090952730178832,0.12248893660400062
1783244292554934300,5.057934326171875,0.4514391148865223,0.16663126252815127,-0.055119537414610384
1783244292564946200,5.0679462890625,0.35918870121240615,0.1281244217403233,-0.16297602795623242
1783244292574957000,5.07795703125,0.1834136166334152,0.11241466530263423,-0.18624379855804143
1783244292584969200,5.08796923828125,-0.02122282077074051,0.1520388196825981,-0.12702997756712137
1783244292594981000,5.097981201171875,-0.1823684914946556,0.23031287658289074,-0.0031038112342357633
1783244292604992300,5.1079921875,-0.285054958987236,0.25858093969002366,0.08598485047332942
1783244292615004400,5.11800439453125,-0.2781371424227953,0.1888553692959249,0.077795223874785
1783244292625015300,5.128015380859375,-0.23185002302229404,0.09770341838300227,0.03756671039350331
1783244292635027200,5.138027099609375,-0.15727321320474147,0.010887596978247165,-0.011808913074247538
1783244292645039000,5.1480390625,-0.011250877332687377,-0.016180734950304032,-0.022409802065603435
1783244292655050200,5.15805029296875,0.07307751117050647,0.0014560440272092818,0.008230031674169004
1783244292665062100,5.168062255859375,0.13339023331403732,-0.006085311263054609,0.048365971501171584
1783244292675073000,5.178072998046875,0.16335457894504068,-0.006922931130975484,0.08699906901717186
1783244292685085200,5.188085205078125,0.10431377643346786,-0.017711597779393195,0.12491115878224372
1783244292695097000,5.19809716796875,-0.04918751701712608,-0.06466127274185418,0.1924300129123032
1783244292705108200,5.208108154296875,-0.1951741970539093,-0.027807021466642618,0.24746877670828252
1783244292715120400,5.218120361328125,-0.25939094089865683,0.04334858173057437,0.23662640711124985
1783244292725131300,5.22813134765625,-0.2644102303653955,0.037545010018348694,0.09413995374776422
1783244292735143200,5.23814306640625,-0.170866269749403,-0.006115706401318311,-0.08121175432000309
1783244292745155300,5.2481552734375,-0.06567571048140526,-0.025141309388726947,-0.18116123459674416
1783244292755166200,5.258166259765625,-0.01201367839872837,0.028126608809828757,-0.17028481659963726
1783244292765178000,5.26817822265625,0.013944938722252845,0.06377104590386153,-0.1259188379874453
1783244292775189200,5.278189208984375,0.012409984239935874,0.06101750941202044,-0.014677783041447401
1783244292785201400,5.288201416015625,0.04655015425086021,0.025660949348658323,0.03854604028705507
1783244292795213300,5.29821337890625,0.09607961657345294,0.026008447612076997,0.007279306820593774
1783244292805224200,5.30822412109375,0.09434475560486316,0.05177767964079976,-0.03082739220112562
1783244292815236400,5.318236328125,0.13116145134866236,0.04359846483841538,-0.09986841439716518
1783244292825247200,5.328247314453125,0.15421616372168062,0.044793812102824446,-0.08043255010843277
1783244292835259100,5.338259033203125,0.10574000984430312,0.04356339352503419,-0.07024064377676695
1783244292845270300,5.348270263671875,-0.011209960800409317,0.014469108726829289,-0.09500826101489364
1783244292855282400,5.358282470703125,-0.09884557415544987,0.005824906761199236,-0.07577146296221762
1783244292865294300,5.36829443359375,-0.11040624808967113,0.036423750903457404,-0.03543327856138349
1783244292875305200,5.37830517578125,-0.10243161594867706,0.0552472554475069,0.006016410745307803
1783244292885317400,5.3883173828125,-0.06643734250366687,0.05281418308168649,0.014615020003542303
1783244292895328300,5.398328369140625,-0.03123392717540264,0.06509133472219109,0.019723595188930628
1783244292905340200,5.408340087890625,0.05969897415935993,0.051227060020715,0.020745375984720885
1783244292915352000,5.41835205078125,0.12809154238402842,0.04239698009416461,0.07788962415996939
1783244292925363200,5.42836328125,0.0810673408806324,0.0583702097736299,0.1386557891594246
1783244292935375000,5.438375,0.0846791016370058,0.03675780516341329,0.155533602995798
1783244292945386200,5.44838623046875,0.127717448374629,-0.002926408840715885,0.1473784997213632
1783244292955398400,5.4583984375,0.08600538180470466,-0.030865093863010406,0.11812058532666414
1783244292965410300,5.468410400390625,-0.03186696438193321,-0.019246260000765323,0.08019928934182971
1783244292975421200,5.478421142578125,-0.061876318198442457,-0.004720744911581277,0.0015618424892425537
1783244292985433300,5.488433349609375,-0.14942133066058158,0.030951895363628863,-0.08848839425947516
1783244292995444200,5.4984443359375,-0.34972821442782875,0.0274875802539289,-0.11140282137896865
1783244293005456100,5.5084560546875,-0.32943770607113837,0.058541766948252916,-0.12006802960000931
1783244293015468000,5.518468017578125,-0.35225510255694387,0.0531308478154242,-0.17477540601715444
1783244293025479400,5.5284794921875,-0.2821393638014793,0.057591918877512215,-0.16152699819169938
1783244293035491300,5.5384912109375,-0.1194002864062786,0.05896320723071694,-0.09278042889758945
1783244293045502200,5.548502197265625,0.017973463585972786,-0.018327099329233168,-0.060640894651971755
1783244293055514400,5.558514404296875,0.15190671773552894,-0.0978081939317286,-0.07102591240294277
1783244293065526300,5.5685263671875,0.24082944829165934,-0.09798588858619332,-0.041781222815997894
1783244293075537200,5.578537109375,0.22971008838415144,-0.07956848062500357,0.02898647704217583
1783244293085549000,5.588549072265625,0.09213058668673038,-0.09101414987742901,0.07132168047912418
1783244293095560200,5.598560302734375,-0.046720250120759005,-0.08448562489151955,0.0640807329075411
1783244293105572000,5.608572021484375,-0.21906477572917937,-0.05350859508663416,0.04035553739443421
1783244293115584300,5.618584228515625,-0.33417174885571,-0.04599442006424069,0.03296078750062734
1783244293125595400,5.628595458984375,-0.3302601283699274,-0.04940963533520698,-0.011267390076071023
1783244293135607300,5.638607177734375,-0.27975509901344775,-0.055300593069940805,-0.08781392906401306
1783244293145618200,5.6486181640625,-0.16960019533634185,-0.06623948184400796,-0.08840656119491905
1783244293155630000,5.658630126953125,-0.005387538257241249,-0.06636544631123542,-0.04777925765439868
1783244293165642200,5.668642333984375,0.07876023298203945,-0.04562544062137604,0.0357898369140923
1783244293175653000,5.678653076171875,0.1190080722182989,0.004556348130106926,0.10126085513625294
1783244293185665000,5.6886650390625,0.10927812084257602,-0.0020395430035889148,0.09808953162375837
1783244293195676400,5.698676513671875,0.10344400786161422,-0.05557619514092803,0.07314513304661958
1783244293205688300,5.708688232421875,0.04713642970621586,-0.11265782640874385,0.0290369285877794
1783244293215699200,5.71869921875,-0.01602466760575771,-0.1074424298480153,0.005555186441726982
1783244293225711000,5.728711181640625,-0.09581891981065273,-0.09789075764864683,0.013559775329567491
1783244293235723300,5.73872314453125,-0.13306757723093032,-0.03689326811134815,0.028195399729721248
1783244293245734100,5.748734130859375,-0.09251052591502666,-0.033530952071398494,-0.01080331622827798
1783244293255746000,5.75874609375,-0.10846271280646323,0.015564356617629527,0.011575360046699642
1783244293265757400,5.76875732421875,-0.1281190149128437,0.033574937343597414,0.0594334550909698
1783244293275769300,5.778769287109375,-0.05260054033100605,0.001415858147293329,0.05056139918621629
1783244293285781200,5.78878125,0.024091654205322263,0.0017674480639398096,0.02433419425692409
1783244293295792400,5.79879248046875,-0.003963058412075043,0.019364771813899277,0.011767704281024634
1783244293305804300,5.80880419921875,0.029769699841737746,0.03742664433568716,0.02523205641210079
1783244293315815200,5.818815185546875,0.029879005435109136,0.08882423861771821,0.036185339037701485
1783244293325827000,5.8288271484375,0.04090308827459812,0.05813888523578643,0.040352943578548725
1783244293335839200,5.838839111328125,0.06744914989471436,0.011484978349506854,-0.022690189909562467
1783244293345850000,5.84885009765625,0.0842874719709158,0.05740238765478134,-0.043318259657546876
1783244293355862000,5.858862060546875,0.10285130266547203,0.08359569031447171,-0.00780322109684348
1783244293365873400,5.868873291015625,0.10792612171173095,0.10023644399195909,0.0024647461457177997
1783244293375885300,5.87888525390625,0.02636369079053402,0.07386003985032438,-0.02114054931476712
1783244293385897200,5.888897216796875,-0.08059972336888313,0.049849488057196134,0.0033334187390282747
1783244293395908000,5.898908203125,-0.12372574838995933,0.060267860088497396,0.0601653130294755
1783244293405920300,5.908920166015625,-0.12343757909834384,0.10925853935927152,0.08906023933067918
1783244293415931100,5.91893115234375,-0.07080489006340503,0.07722717819586396,0.05789871980436146
1783244293425943000,5.928943115234375,0.03142974200844764,0.02176204221397638,-0.011088380247354507
1783244293435954400,5.938954345703125,0.09471826509237288,0.0072403265170753,-0.02796184670217335
1783244293445966300,5.94896630859375,0.0763221921801567,-0.031164661331474778,-0.006174450851231813
1783244293455978200,5.958978271484375,0.06975918040275574,-0.05919131689816713,0.06394556222055107
1783244293465989000,5.968989013671875,-0.01730360150039196,-0.03908624811097979,0.13690788604617118
1783244293476001300,5.979001220703125,-0.1767564968317747,0.016979337982088328,0.15297504108678547
1783244293486012200,5.98901220703125,-0.2901695255219936,-0.024476123478263615,0.1568920684000477
1783244293496024000,5.999024169921875,-0.37783027331829067,-0.04569923650994897,0.11682356778606771
1783244293506036200,6.0090361328125,-0.39641748488843437,-0.027656945471465588,0.08375891805216669
1783244293516047400,6.01904736328125,-0.31835926269590853,-0.0029531507171690462,0.048464134646020826
1783244293526059300,6.029059326171875,-0.16088088230788708,-0.005898118127882481,0.0005801014428958297
1783244293536070100,6.039070068359375,0.04543605552911758,-0.01656155096143484,0.007473148892261088
1783244293546082300,6.049082275390625,0.16428104614019393,-0.012457768904417752,-0.012659100162796675
1783244293556094200,6.05909423828125,0.20968670653104782,-0.005799333928525448,0.03380754052307457
1783244293566105000,6.06910498046875,0.23439035515487192,0.03810512811914086,0.12070943277608602
1783244293576117200,6.0791171875,0.17807517821490765,0.03702449327558279,0.1659659304872155
1783244293586128100,6.089128173828125,0.06561316663920878,0.025386516321450472,0.15462043367363512
1783244293596140000,6.09914013671875,-0.0256891525298357,0.06919467838779092,0.14905454317480324
1783244293606152200,6.109152099609375,-0.08727320978343486,0.09228285463899373,0.1277274583119899
1783244293616163300,6.119163330078125,-0.1048649805754423,0.05548004129007458,0.08769888784959912
1783244293626175200,6.12917529296875,-0.12288754400014877,0.034596389345824714,0.03555646654963493
1783244293636186000,6.13918603515625,-0.10947452019751071,0.0821921071268618,0.014577501004748045
1783244293646198300,6.1491982421875,-0.06010930852591991,0.12689093442261218,0.011245799298770724
1783244293656210200,6.159210205078125,-0.0052425768285989756,0.11064444075971841,-0.025556466060876845
1783244293666221800,6.169221923828125,0.03737491414844989,0.09949030179977417,-0.04317096014134585
1783244293676233700,6.179233642578125,0.056022915995121,0.06109101303964853,-0.027171280846372246
1783244293686244600,6.18924462890625,0.08471768008172512,0.10060206243395804,0.028843597972765565
1783244293696256800,6.1992568359375,0.09562368949949741,0.10092632595226168,0.06692267833519727
1783244293706268000,6.209267822265625,0.0778255824804306,0.08047171307504176,0.1026904130153358
1783244293716279800,6.21927978515625,0.06922434287369252,0.047564884251356125,0.060146790992096064
1783244293726292000,6.2292919921875,-0.004039630779623985,0.0013908698365092276,0.006638780427351594
1783244293736302800,6.239302734375,-0.058796472361683845,0.03136149907782674,0.049756037620082495
1783244293746314800,6.249314697265625,-0.13180851708054542,0.04817892449647188,0.10354275552835315
1783244293756325600,6.25932568359375,-0.18828619110584258,0.01749649372398853,0.08875091765318065
1783244293766337800,6.269337890625,-0.18289046954214572,0.03309840587303042,0.06199720463175326
1783244293776349700,6.279349609375,-0.1519482187896967,0.08632014684230088,0.003995864703133702
1783244293786360800,6.28936083984375,-0.08672083659768104,0.09442235088571906,-0.03798226892445236
1783244293796373000,6.299373046875,0.021491700839996335,0.03873290462866425,-0.08285751223303377
1783244293806383900,6.3093837890625,0.08492284726500511,0.010376578716188668,-0.05981883767936378
1783244293816395800,6.319395751953125,0.11066869841814041,0.026012685395777224,0.00030249007791280743
1783244293826406700,6.32940673828125,0.07538695715665816,0.05644026462435722,0.07294478816892952
1783244293836418800,6.339418701171875,0.04807692542672157,0.05814692241176962,0.10161755961943417
1783244293846430700,6.3494306640625,0.07260229487419129,0.10482231047749518,0.07467208688557148
1783244293856441900,6.35944189453125,0.0873889451175928,0.05830284362584352,0.01708696307502687
1783244293866453800,6.369453857421875,0.11975742928087711,-0.01169058392420411,-0.06670768387764692
1783244293876465000,6.37946484375,0.14296996256411074,-0.06252732945308088,-0.07109086739793419
1783244293886476800,6.389476806640625,0.10527648398578167,-0.1022407695516944,-0.009970153339765966
1783244293896489000,6.399489013671875,0.05330605825185775,-0.06139087276905775,0.08729070890750736
1783244293906499800,6.409499755859375,-0.011891513323783874,-0.029706571477651593,0.12236710032261908
1783244293916511700,6.41951171875,-0.08783142818808555,-0.06129837218001485,0.0681225921768695
1783244293926522600,6.429522705078125,-0.17295768907070158,-0.06739537388086318,-0.022619207032583653
1783244293936534800,6.43953466796875,-0.23900632451772688,-0.026174451828747985,-0.068517509778589
1783244293946546700,6.449546630859375,-0.2821440399765968,0.005792904187738895,-0.09202245013713836
1783244293956557800,6.459557861328125,-0.2809428474932909,0.014223755663633346,-0.10521722807921469
1783244293966570000,6.469570068359375,-0.24119828160405157,0.017233458873629568,-0.08472180826757103
1783244293976580900,6.479580810546875,-0.19673896215260028,-0.019298428579419852,-0.08527874803058802
1783244293986592800,6.4895927734375,-0.20246084693074226,0.058286184751987456,-0.04435344792418182
1783244293996603600,6.499603759765625,-0.12372341030240058,0.011545622495561838,-0.05782327994797378
1783244294006615800,6.50961572265625,-0.020897826600074765,-0.012616174336522817,-0.048607707835175096
1783244294016627700,6.519627685546875,0.0228700034558773,0.02591901576295495,0.020711619845591483
1783244294026638800,6.529638916015625,-0.015203998872637748,0.04803133271932602,0.05066369051691144
1783244294036651000,6.539651123046875,0.0032838439762592313,0.052906537540256975,0.00577829114049673
1783244294046662000,6.549661865234375,0.023694763842225075,0.06768558899909258,-0.031103213467821477
1783244294056673800,6.559673828125,0.062462009131908414,0.10015504931882023,-0.0626901187993586
1783244294066686000,6.56968603515625,0.09195639916360378,0.09227774007245898,-0.05658876971695572
1783244294076696800,6.57969677734375,0.11042729087769984,0.0846636118069291,-0.03727539929673075
1783244294086708700,6.589708740234375,0.09523790505230426,0.10852116499543189,0.00596069850269705
1783244294096719600,6.5997197265625,0.06901625308096408,0.09241232623755931,0.05044208365548402
1783244294106731800,6.609731689453125,0.07314473118782043,0.054826691947877405,0.04748407410010695
1783244294116743700,6.61974365234375,0.0317541516572237,0.07854673636183142,0.03783577312584966
1783244294126754800,6.6297548828125,-0.03921148192584514,0.08002616126462817,0.0476153723295778
1783244294136767000,6.63976708984375,-0.05067863235771656,0.06078223935142159,0.037547530768997965
1783244294146777900,6.64977783203125,-0.0557873536735773,0.04946195004433393,0.021325258231908083
1783244294156789800,6.659789794921875,-0.08667524389028548,0.037219723586738106,0.006339505219832063
1783244294166800600,6.669800537109375,-0.10568681835234164,0.051245180199295276,0.011238017851114272
1783244294176812800,6.679812744140625,-0.06975041257441043,0.04599778106510639,0.015607720835320651
1783244294186824700,6.68982470703125,-0.07457330268621444,0.04785962941423058,-0.004136332619749009
1783244294196835800,6.6998359375,-0.015195815566182136,0.06888546630814671,-0.006051664721779525
1783244294206848000,6.709847900390625,0.0361895037561655,0.052285483032464976,-0.017000125041790305
1783244294216859000,6.71985888671875,0.00935585736632347,0.018100304836034774,-0.01771386280171573
1783244294226870800,6.729870849609375,-0.00961421604156494,0.0015057283878326415,-0.0016753493336960673
1783244294236883000,6.739883056640625,-0.08626023334860801,0.033590573304146526,0.06330762964319438
1783244294246893800,6.749893798828125,-0.09813538005948066,0.04567804759144783,0.04084167694356292
1783244294256905700,6.75990576171875,-0.07343640761077404,0.047168140018731354,0.02050871768463403
1783244294266916900,6.769916748046875,-0.048529929891228674,0.024558541064709425,-0.00039206805750727653
1783244294276929000,6.779928955078125,-0.03925882819890976,0.017776479709148404,0.016892171155288814
1783244294286940000,6.78993994140625,0.027020108872652052,0.03244710235744715,0.0526191354336217
1783244294296951800,6.799951904296875,0.048558571463823315,0.017388503304868935,0.04221859131995588
1783244294306964000,6.8099638671875,0.0016875146955251693,-0.018963351406157014,0.02567033823151141
1783244294316974800,6.819974853515625,-0.06415186191499232,0.022502777578681705,0.056044031848385925
1783244294326986800,6.82998681640625,-0.160644150942564,0.0469091968216002,0.07522705388721078
1783244294336997600,6.83999755859375,-0.2195382384598255,0.03315817323625087,0.04573346757311374
1783244294347009800,6.850009765625,-0.2823018608868122,0.041466275115311146,-0.006643894993886351
1783244294357021700,6.860021728515625,-0.36144378666281696,0.041150194903463125,-0.1077489385139197
1783244294367032800,6.87003271484375,-0.21081717186570167,0.006612988398969173,-0.1276707596886903
1783244294377045000,6.880044921875,0.09770400290489197,0.0015048516049981117,-0.0654997693926096
1783244294387055900,6.890055908203125,0.26911972323060035,0.13120733631700277,0.09231306711416691
1783244294397067800,6.90006787109375,0.2969154926508665,0.134337304905802,0.1944180449243635
1783244294407078700,6.91007861328125,0.20265607724189758,-0.004134323325753211,0.1512348098233342
1783244294417090800,6.9200908203125,0.07385141815245151,-0.052489335041493175,0.17309041207227854
1783244294427102700,6.930102783203125,0.03770809162557125,0.006015607027709484,0.2522982061587274
1783244294437113900,6.94011376953125,0.01910509796440601,0.25464403863251206,0.23916553366743026
1783244294447126000,6.9501259765625,-0.19258885673582551,0.3756510295830667,0.07156542610712349
