time,seconds_elapsed,z,y,x
1783244232282030800,0.06203076171875,-0.028555957600474358,0.2955801784992218,0.18145297467708588
1783244232292042800,0.072042724609375,-0.020354218780994415,0.2928594648838043,0.14860154688358307
1783244232302053600,0.0820537109375,-0.010277783498167992,0.29499003291130066,0.11548890918493271
1783244232312064800,0.092064697265625,0.0028840911109000444,0.2948076128959656,0.10199573636054993
1783244232322076700,0.10207666015625,0.01518246904015541,0.2675168514251709,0.10938863456249237
1783244232332087800,0.112087890625,0.021366063505411148,0.22725145518779755,0.1326681226491928
1783244232342098700,0.1220986328125,0.024911824613809586,0.20715074241161346,0.16206462681293488
1783244232352110600,0.132110595703125,0.03058968484401703,0.21987399458885193,0.20002692937850952
1783244232362121700,0.142121826171875,0.038237303495407104,0.22581085562705994,0.23727072775363922
1783244232372132900,0.1521328125,0.04495539143681526,0.20468959212303162,0.25881409645080566
1783244232382144800,0.162144775390625,0.04380006715655327,0.18010415136814117,0.2526364028453827
1783244232392155600,0.17215576171875,0.03398312255740166,0.19313527643680573,0.22762955725193024
1783244232402166800,0.182166748046875,0.01607770100235939,0.1780700832605362,0.1987183541059494
1783244232412178700,0.1921787109375,-0.0023127589374780655,0.1352616399526596,0.1644301563501358
1783244232422189800,0.20218994140625,-0.018137793987989426,0.10742201656103134,0.1328410655260086
1783244232432200700,0.21220068359375,-0.025761626660823822,0.10599882900714874,0.09928656369447708
1783244232442212900,0.222212890625,-0.029912760481238365,0.12078187614679337,0.06430845707654953
1783244232452223700,0.2322236328125,-0.031714122742414474,0.13456852734088898,0.03414762392640114
1783244232462234600,0.242234619140625,-0.02986779808998108,0.11810663342475891,0.013240533880889416
1783244232472246500,0.25224658203125,-0.025834444910287857,0.09149312973022461,0.008655103854835033
1783244232482258000,0.2622578125,-0.022120531648397446,0.057979073375463486,0.016932442784309387
1783244232492268800,0.272268798828125,-0.024113375693559647,0.03178608417510986,0.0359514094889164
1783244232502280700,0.28228076171875,-0.030777975916862488,0.038584839552640915,0.045009009540081024
1783244232512291600,0.29229150390625,-0.048686668276786804,0.08119221776723862,0.0359361506998539
1783244232522302700,0.302302734375,-0.06288250535726547,0.1181606575846672,0.016511689871549606
1783244232532315000,0.31231494140625,-0.06899338960647583,0.1341465413570404,-0.005838890094310045
1783244232542325800,0.32232568359375,-0.06644893437623978,0.14150473475456238,-0.022684764117002487
1783244232552336600,0.332336669921875,-0.05877823382616043,0.15982195734977722,-0.04038919135928154
1783244232562348800,0.342348876953125,-0.057029493153095245,0.19023436307907104,-0.05010311305522919
1783244232572359700,0.352359619140625,-0.05662788823246956,0.20164628326892853,-0.049845851957798004
1783244232582370800,0.362370849609375,-0.0578836090862751,0.19237065315246582,-0.042022425681352615
1783244232592382700,0.3723828125,-0.06008604168891907,0.17347899079322815,-0.0373041033744812
1783244232602393600,0.3823935546875,-0.06071433052420616,0.13902245461940765,-0.028764555230736732
1783244232612407800,0.39240771484375,-0.04816924408078194,0.09776263684034348,-0.015778714790940285
1783244232622419700,0.402419677734375,-0.03216532990336418,0.05064018443226814,-0.0027226582169532776
1783244232632430600,0.4124306640625,-0.022991804406046867,0.022267663851380348,0.0022792909294366837
1783244232642441700,0.422441650390625,-0.022714845836162567,0.008061844855546951,0.0040243929252028465
1783244232652453600,0.43245361328125,-0.024130580946803093,0.0014185896143317223,0.008300631307065487
1783244232662464500,0.442464599609375,-0.023272348567843437,0.01185072585940361,0.015061039477586746
1783244232672475600,0.4524755859375,-0.02256368100643158,0.02369806356728077,0.013373127207159996
1783244232682487800,0.46248779296875,-0.0244918130338192,0.04510863497853279,0.0050180633552372456
1783244232692498700,0.472498779296875,-0.02637360244989395,0.07124010473489761,-0.01657857373356819
1783244232702509600,0.482509521484375,-0.019097473472356796,0.07308478653430939,-0.03724874183535576
1783244232712521500,0.492521484375,-0.010297058150172234,0.04163844510912895,-0.04467230662703514
1783244232722532900,0.502532958984375,-0.002678459044545889,0.004770562052726746,-0.03966626897454262
1783244232732543700,0.512543701171875,-0.0030374531634151936,-0.017597327008843422,-0.025314228609204292
1783244232742555600,0.5225556640625,-0.005577652249485254,-0.01706795021891594,-0.0036668749526143074
1783244232752566500,0.53256640625,-0.003907850477844477,-0.0007457027677446604,0.017025088891386986
1783244232762577700,0.54257763671875,0.003079620422795415,0.013609223067760468,0.03109665960073471
1783244232772589600,0.552589599609375,0.004595492035150528,0.023633627220988274,0.026429470628499985
1783244232782600700,0.5626005859375,-0.0035770093090832233,0.02435757964849472,0.01826627179980278
1783244232792612600,0.572612548828125,-0.011979282833635807,0.006519193761050701,0.013252604752779007
1783244232802623700,0.582623779296875,-0.012004685588181019,-0.005962430499494076,0.014171965420246124
1783244232812634600,0.592634521484375,-0.00737984012812376,-0.002353315008804202,0.005967565346509218
1783244232822646500,0.602646484375,0.0002547469921410084,0.014347901567816734,-0.006090933457016945
1783244232832657700,0.61265771484375,0.014044594950973988,0.002901634434238076,-0.007455270737409592
1783244232842668800,0.622668701171875,0.03298161178827286,-0.03460698574781418,0.008880243636667728
1783244232852680700,0.6326806640625,0.043677132576704025,-0.060099028050899506,0.021815218031406403
1783244232862691600,0.642691650390625,0.04139096289873123,-0.049292705953121185,0.018293622881174088
1783244232872702700,0.65270263671875,0.02446683868765831,-0.010414551012217999,0.012742528691887856
1783244232882714600,0.662714599609375,0.012157974764704704,0.0036466731689870358,0.02607378177344799
1783244232892725800,0.672725830078125,0.01730080507695675,-0.019878361374139786,0.04786216840147972
1783244232902736600,0.682736572265625,0.025340288877487183,-0.03497783839702606,0.06292539089918137
1783244232912748500,0.69274853515625,0.019812632352113724,-0.04305014759302139,0.06653930246829987
1783244232922759700,0.702759765625,0.00416677026078105,-0.03603892773389816,0.06348836421966553
1783244232932770800,0.712770751953125,-0.002758513670414686,-0.029644673690199852,0.0632481500506401
1783244232942782700,0.72278271484375,0.00216886680573225,-0.023944444954395294,0.06442473828792572
1783244232952793600,0.732793701171875,0.010924541391432285,0.006563661620020866,0.05051930621266365
1783244232962804500,0.742804443359375,0.015079900622367859,0.04212595894932747,0.025766296312212944
1783244232972816600,0.752816650390625,0.012729926034808159,0.02907380647957325,0.0066200317814946175
1783244232982827800,0.762827880859375,0.020855486392974854,-0.015026528388261795,-0.003939468879252672
1783244232992838700,0.772838623046875,0.03280402719974518,-0.03803624212741852,-0.009895361959934235
1783244233002850800,0.782850830078125,0.03765809163451195,-0.04449488967657089,-0.013454960659146309
1783244233012861700,0.79286181640625,0.029780196025967598,-0.04949311167001724,-0.0039357575587928295
1783244233022872600,0.80287255859375,0.024965601041913033,-0.03650110960006714,0.006673506461083889
1783244233032884500,0.812884521484375,0.020737299695611,0.004494525492191315,0.014395342208445072
1783244233042895600,0.8228955078125,0.01880539581179619,0.05751689895987511,0.01677493192255497
1783244233052906800,0.83290673828125,0.02086082473397255,0.05752835050225258,0.023228568956255913
1783244233062918700,0.842918701171875,0.031846027821302414,0.02050155960023403,0.024416795000433922
1783244233072929500,0.852929443359375,0.04456848278641701,-0.0019776506815105677,0.008143549785017967
1783244233082940700,0.862940673828125,0.051261767745018005,-0.012008298188447952,-0.016659149900078773
1783244233092952800,0.872952880859375,0.050712089985609055,-0.04202238842844963,-0.035909540951251984
1783244233102963700,0.882963623046875,0.05175316706299782,-0.07143876701593399,-0.0398273728787899
1783244233112974600,0.892974609375,0.05602487921714783,-0.07061265408992767,-0.033534325659275055
1783244233122986500,0.902986572265625,0.05302051827311516,-0.05292297154664993,-0.02054763212800026
1783244233132997600,0.91299755859375,0.04197585582733154,-0.01939777098596096,-0.007559394929558039
1783244233143008800,0.9230087890625,0.02678127959370613,0.005598253570497036,0.012461738660931587
1783244233153020700,0.933020751953125,0.01356001477688551,0.006499467417597771,0.03300376608967781
1783244233163031600,0.943031494140625,0.0023078550584614277,-0.0040307012386620045,0.04123818501830101
1783244233173042700,0.953042724609375,-0.010465730912983418,-0.005933263339102268,0.037522006779909134
1783244233183054600,0.9630546875,-0.018044695258140564,-0.003102085320279002,0.026852216571569443
1783244233193065700,0.973065673828125,-0.01717757061123848,-0.005628892220556736,0.016744986176490784
1783244233203076600,0.98307666015625,-0.00692790187895298,-0.0011032270267605782,-0.0003984547220170498
1783244233213088800,0.9930888671875,0.0004898004699498415,0.006113140378147364,-0.016949201002717018
1783244233223099600,1.003099609375,0.003427743213251233,-0.005330015905201435,-0.023451058194041252
1783244233233110800,1.01311083984375,0.010809225961565971,-0.035029321908950806,-0.019251519814133644
1783244233243122700,1.023122802734375,0.01700400561094284,-0.05170204117894173,-0.007892871275544167
1783244233253133800,1.0331337890625,0.011015089228749275,-0.048449259251356125,0.00714813033118844
1783244233263144700,1.043144775390625,-0.0006782235577702522,-0.026106471195816994,0.016928747296333313
1783244233273156600,1.053156494140625,-0.010002749040722847,0.008960170671343803,0.01756976917386055
1783244233283167500,1.06316748046875,-0.011351906694471836,0.04148269444704056,0.0069815730676054955
1783244233293179600,1.0731796875,-0.012745806016027927,0.05856873467564583,-0.01270131766796112
1783244233303190800,1.083190673828125,-0.014135768637061119,0.058946821838617325,-0.03113173507153988
1783244233313201700,1.09320166015625,-0.011106954887509346,0.05236269161105156,-0.04327281937003136
1783244233323213600,1.103213623046875,0.002409739885479212,0.03689491003751755,-0.041356123983860016
1783244233333224700,1.113224609375,0.01183253712952137,-0.001727852039039135,-0.03210829943418503
1783244233343235800,1.12323583984375,0.014585807919502258,-0.02385985665023327,-0.02137134224176407
1783244233353247700,1.133247802734375,0.015412718988955021,-0.018467487767338753,-0.010684342123568058
1783244233363258600,1.143258544921875,0.02062012068927288,-0.00883512757718563,-0.000004902016371488571
1783244233373269500,1.15326953125,0.02146700583398342,-0.0041647423058748245,0.010388350114226341
1783244233383281700,1.16328173828125,0.01299399696290493,0.00426274910569191,0.017233168706297874
1783244233393292500,1.17329248046875,0.0023096618242561817,0.013393929228186607,0.01948700100183487
1783244233403303700,1.1833037109375,-0.00457336287945509,0.019010407850146294,0.015388906933367252
1783244233413315800,1.19331591796875,-0.0018188552930951118,0.02036409266293049,0.008650309406220913
1783244233423326700,1.20332666015625,0.0051278285682201385,0.015574061311781406,0.002115869428962469
1783244233433337600,1.213337646484375,0.010748695582151413,-0.0035961715038865805,0.0024487641640007496
1783244233443349500,1.223349609375,0.01690843515098095,-0.025723671540617943,0.003561730030924082
1783244233453360600,1.233360595703125,0.02370748668909073,-0.03938169404864311,0.003738031256943941
1783244233463371800,1.243371826171875,0.02087493985891342,-0.042263757437467575,0.0006156694144010544
1783244233473383700,1.2533837890625,0.017583005130290985,-0.019701190292835236,-0.003578276839107275
1783244233483394600,1.26339453125,0.016512926667928696,0.016395773738622665,-0.006422469858080149
1783244233493405700,1.27340576171875,0.02028076723217964,0.031250618398189545,-0.0005517974495887756
1783244233503417900,1.28341796875,0.018983816727995872,0.02573421783745289,0.010182742029428482
1783244233513428700,1.2934287109375,0.016468727961182594,0.01196274533867836,0.017733069136738777
1783244233523439600,1.303439697265625,0.011983946897089481,0.008910705335438251,0.018308373168110847
1783244233533451500,1.313451416015625,0.009426513686776161,0.01855640858411789,0.012650219723582268
1783244233543462700,1.323462646484375,0.013814356178045273,0.01954902522265911,0.006353116128593683
1783244233553473800,1.333473876953125,0.02005520649254322,0.007461469620466232,0.0033453418873250484
1783244233563485700,1.343485595703125,0.02139258198440075,-0.00894482247531414,0.006952974945306778
1783244233573496600,1.35349658203125,0.016981855034828186,-0.008430033922195435,0.01379809807986021
1783244233583507500,1.363507568359375,0.008559814654290676,-0.01077369786798954,0.026478726416826248
1783244233593519600,1.37351953125,0.0041879694908857346,-0.01848168484866619,0.04418288916349411
1783244233603530800,1.38353076171875,-0.001591688022017479,-0.019437914714217186,0.05764235556125641
1783244233613538600,1.39353857421875,-0.008807523176074028,0.01116979494690895,0.05860481783747673
1783244233623550500,1.403550537109375,-0.00599747896194458,0.05674130469560623,0.04892539605498314
1783244233633561600,1.4135615234375,0.0016921322094276547,0.0660298764705658,0.035786960273981094
1783244233643572500,1.423572509765625,0.007066818885505199,0.04807484894990921,0.021000530570745468
1783244233653584400,1.43358447265625,0.010189374908804893,0.0304910596460104,-0.005657711531966925
1783244233663595500,1.443595458984375,0.015552535653114319,0.022067155689001083,-0.03615667670965195
1783244233673606700,1.453606689453125,0.026018759235739708,0.012623852118849754,-0.058116570115089417
1783244233683618600,1.46361865234375,0.039079729467630386,0.0143917016685009,-0.0642213299870491
1783244233693629400,1.47362939453125,0.04457862302660942,0.03237016871571541,-0.052805956453084946
1783244233703640600,1.483640625,0.04696492850780487,0.03541254997253418,-0.03190883621573448
1783244233713652700,1.49365283203125,0.044475406408309937,0.020404571667313576,-0.005882826633751392
1783244233723663600,1.50366357421875,0.043132953345775604,0.019607853144407272,0.0032275267876684666
1783244233733674500,1.513674560546875,0.044338565319776535,0.02735685184597969,-0.003415195969864726
1783244233743686400,1.523686279296875,0.05409626662731171,0.02171151340007782,-0.01678842306137085
1783244233753697500,1.533697509765625,0.059259071946144104,-0.0009927346836775541,-0.02803601697087288
1783244233763708700,1.543708740234375,0.05782107263803482,-0.027795331552624702,-0.029331812635064125
1783244233773720600,1.553720458984375,0.05103720352053642,-0.045680321753025055,-0.019796097651124
1783244233783731500,1.5637314453125,0.04484393820166588,-0.04635538160800934,-0.00750516913831234
1783244233793742300,1.573742431640625,0.033991292119026184,-0.040323320776224136,0.012134578078985214
1783244233803754500,1.58375439453125,0.019767727702856064,-0.03455279767513275,0.03208441659808159
1783244233813765600,1.593765625,0.003419381333515048,-0.019300607964396477,0.04311443120241165
1783244233823776500,1.603776611328125,-0.006854800507426262,0.017895998433232307,0.03314829617738724
1783244233833788700,1.61378857421875,-0.009932083077728748,0.05015780031681061,0.00529748760163784
1783244233843799600,1.623799560546875,-0.007387146353721619,0.027358073741197586,-0.012015989050269127
1783244233853810400,1.633810546875,-0.005180184729397297,-0.0158221535384655,-0.01414571888744831
1783244233863822300,1.643822265625,-0.0023398841731250286,-0.03392816334962845,-0.010061156004667282
1783244233873833500,1.65383349609375,0.0068128677085042,-0.03418116271495819,-0.0066384607926011086
1783244233883845600,1.663845703125,0.012337282299995422,-0.037993304431438446,0.0035063745453953743
1783244233893856500,1.6738564453125,0.010660555213689804,-0.03448326140642166,0.016432825475931168
1783244233903867400,1.683867431640625,0.0042941453866660595,-0.017400119453668594,0.02614281326532364
1783244233913879600,1.693879638671875,-0.005672734696418047,0.008786209858953953,0.029957257211208344
1783244233923890700,1.703890625,-0.007075716741383076,0.0405355729162693,0.017270218580961227
1783244233933901600,1.713901611328125,-0.003798963036388159,0.05436510220170021,-0.006160273216664791
1783244233943913500,1.72391357421875,-0.0019291103817522526,0.03723601624369621,-0.026004072278738022
1783244233953924400,1.73392431640625,0.0046688709408044815,0.010198007337749004,-0.039374206215143204
1783244233963935500,1.743935546875,0.017725322395563126,0.005188100505620241,-0.05119616910815239
1783244233973947600,1.75394775390625,0.029774261638522148,-0.0018855214584618807,-0.05564231425523758
1783244233983958500,1.76395849609375,0.03932224586606026,-0.024628596380352974,-0.044874683022499084
1783244233993969400,1.773969482421875,0.039007194340229034,-0.04495038092136383,-0.025870369747281075
1783244234003981600,1.783981689453125,0.03385181725025177,-0.0459003709256649,-0.0056769573129713535
1783244234013992400,1.793992431640625,0.024370700120925903,-0.031106512993574142,0.011622937396168709
1783244234024003600,1.804003662109375,0.015546534210443497,-0.01851651817560196,0.03251709043979645
1783244234034015500,1.814015380859375,0.013532917946577072,-0.007322186604142189,0.04558655247092247
1783244234044026600,1.824026611328125,0.012572523206472397,0.010609060525894165,0.05017170310020447
1783244234054037500,1.83403759765625,0.010917901992797852,0.024211954325437546,0.043114855885505676
1783244234064049400,1.84404931640625,0.014191488735377789,0.010845589451491833,0.03461059182882309
1783244234074060500,1.854060546875,0.021847810596227646,-0.01922309584915638,0.022231953218579292
1783244234084071700,1.86407177734375,0.029650293290615082,-0.03783629462122917,0.009410485625267029
1783244234094083600,1.87408349609375,0.03774550184607506,-0.039244309067726135,-0.0006280341185629368
1783244234104094500,1.884094482421875,0.0435192734003067,-0.034223150461912155,-0.0027984310872852802
1783244234114105300,1.894105224609375,0.04338371753692627,-0.029229456558823586,0.0029380181804299355
1783244234124117500,1.904117431640625,0.040173180401325226,-0.021228637546300888,0.012066710740327835
1783244234134128600,1.914128662109375,0.036856211721897125,-0.002268261043354869,0.020910002291202545
1783244234144139500,1.924139404296875,0.03411152586340904,0.02175280451774597,0.020713582634925842
1783244234154151400,1.9341513671875,0.028402771800756454,0.02662825398147106,0.016531089320778847
1783244234164162600,1.94416259765625,0.023247472941875458,-0.00023149233311414719,0.01731853187084198
1783244234174173700,1.954173583984375,0.017879605293273926,-0.02951241470873356,0.01923920214176178
1783244234184185600,1.964185546875,0.011891249567270279,-0.028921950608491898,0.014708638191223145
1783244234194196500,1.974196533203125,0.007205151487141848,-0.012762420810759068,0.005686382297426462
1783244234204207400,1.984207275390625,0.0070878202095627785,-0.001140933483839035,0.00010156258940696716
1783244234214219500,1.994219482421875,0.006486744619905949,0.007011269219219685,-0.0010358733125030994
1783244234224230400,2.00423046875,0.003563706297427416,0.011298789642751217,-0.001171482726931572
1783244234234241500,2.014241455078125,0.004516585264354944,0.01098666712641716,-0.0035385002847760916
1783244234244253700,2.024253662109375,0.007416026666760445,0.01812349073588848,-0.008691169321537018
1783244234254264600,2.0342646484375,0.005640763323754072,0.007797084283083677,-0.013652904890477657
1783244234264275500,2.044275390625,0.00318625895306468,-0.008180318400263786,-0.01461246982216835
1783244234274287400,2.054287353515625,0.0024677379988133907,-0.010453326627612114,-0.015667881816625595
1783244234284298500,2.064298583984375,0.00021121441386640072,0.0014171358197927475,-0.017688697203993797
1783244234294309600,2.0743095703125,0.0019350784132257104,-0.0008018100634217262,-0.014115002006292343
1783244234304321500,2.084321533203125,0.005638917908072472,-0.027694808319211006,0.008214780129492283
1783244234314332400,2.09433251953125,0.012925060465931892,-0.04674519971013069,0.03356248140335083
1783244234324343600,2.104343505859375,0.013682777062058449,-0.04470405355095863,0.0497770830988884
1783244234334355700,2.114355712890625,0.012786624021828175,-0.011312540620565414,0.04613734036684036
1783244234344366600,2.12436669921875,0.01387292705476284,0.01693694107234478,0.027264315634965897
1783244234354377500,2.13437744140625,0.013400748372077942,0.02384944260120392,0.004370453301817179
1783244234364389400,2.144389404296875,0.011533606797456741,0.0327683687210083,-0.021861949935555458
1783244234374400500,2.154400390625,0.007275744341313839,0.047706302255392075,-0.05110665410757065
1783244234384412400,2.164412353515625,0.0035896440967917442,0.04344385862350464,-0.07170907407999039
1783244234394423600,2.174423583984375,0.0030141351744532585,0.018513210117816925,-0.07839200645685196
1783244234404434400,2.184434326171875,0.005545364692807198,-0.007846674881875515,-0.06885545700788498
1783244234414446600,2.194446533203125,0.00580156035721302,-0.028293360024690628,-0.045119766145944595
1783244234424457500,2.20445751953125,0.0035059733781963587,-0.03585425391793251,-0.014183939434587955
1783244234434468600,2.214468505859375,0.0011195146944373846,-0.018546106293797493,0.012580562382936478
1783244234444480500,2.22448046875,0.007557981181889772,-0.002291511045768857,0.03496130555868149
1783244234454491600,2.23449169921875,0.016477705910801888,-0.008836229331791401,0.04774820804595947
1783244234464502500,2.24450244140625,0.02025856077671051,-0.027558818459510803,0.05035270005464554
1783244234474514400,2.254514404296875,0.014757001772522926,-0.029440077021718025,0.035818763077259064
1783244234484525600,2.264525634765625,0.0035996015649288893,-0.016641927883028984,0.017941147089004517
1783244234494536700,2.27453662109375,-0.00338347302749753,-0.0324922651052475,0.009657383896410465
1783244234504548600,2.284548583984375,-0.01229185052216053,-0.04767540097236633,0.013498498126864433
1783244234514559500,2.2945595703125,-0.024242253974080086,-0.026572508737444878,0.01601039245724678
1783244234524570400,2.3045703125,-0.027329513803124428,0.0074661788530647755,0.020820163190364838
1783244234534582500,2.31458251953125,-0.02246631495654583,0.015111847780644894,0.030513271689414978
1783244234544593700,2.32459375,-0.007752464152872562,0.007919731549918652,0.03401150554418564
1783244234554604500,2.3346044921875,0.0053494893945753574,0.00736579392105341,0.02747397869825363
1783244234564616400,2.344616455078125,0.009793715551495552,-0.006744252983480692,0.011827358044683933
1783244234574627600,2.354627685546875,0.008547089993953705,-0.021247560158371925,-0.004582507535815239
1783244234584638700,2.364638671875,0.005432019010186195,-0.020475201308727264,-0.014606371521949768
1783244234594650600,2.374650634765625,0.00022021285258233547,-0.007686968892812729,-0.016350742429494858
1783244234604661500,2.38466162109375,-0.006032956298440695,0.012877276167273521,-0.012656554579734802
1783244234614672100,2.394672119140625,-0.003955424763262272,0.037692878395318985,-0.012184642255306244
1783244234624684300,2.404684326171875,0.0018882646691054106,0.044901393353939056,-0.012510635890066624
1783244234634695200,2.414695068359375,0.006970374844968319,0.0168862696737051,-0.007816014811396599
1783244234644706300,2.424706298828125,0.00977627094835043,-0.012149974703788757,0.0010591023601591587
1783244234654718200,2.43471826171875,0.010415695607662201,-0.019882196560502052,0.005659180693328381
1783244234664729300,2.444729248046875,0.015464631840586662,-0.016135413199663162,0.007932014763355255
1783244234674740200,2.454740234375,0.011607842519879341,-0.010591777041554451,0.013273783028125763
1783244234684752100,2.464752197265625,0.005720058456063271,0.0018237291369587183,0.017448939383029938
1783244234694763300,2.47476318359375,0.0016502157086506486,0.015830624848604202,0.015787392854690552
1783244234704774100,2.484774169921875,0.004772533196955919,0.017709076404571533,0.016456186771392822
1783244234714786300,2.494786376953125,0.007096674293279648,0.012923642992973328,0.009611064568161964
1783244234724797200,2.504797119140625,0.009054564870893955,0.011144229210913181,0.00306832417845726
1783244234734808300,2.514808349609375,0.011847155168652534,0.010539424605667591,-0.0077491700649261475
1783244234744820500,2.524820556640625,0.013444785960018635,0.011202818714082241,-0.015719212591648102
1783244234754831400,2.534831298828125,0.008742175996303558,0.0005898550152778625,-0.014448617585003376
1783244234764842200,2.54484228515625,-0.0003122203052043915,-0.0006092374678701162,-0.00909350998699665
1783244234774854100,2.554854248046875,-0.008838329464197159,0.013177947141230106,-0.0015924510080367327
1783244234784865000,2.564864990234375,-0.004823405761271715,0.028198089450597763,0.00218203105032444
1783244234794877200,2.574877197265625,-0.003202871885150671,0.040668074041604996,-0.0004449109546840191
1783244234804888300,2.584888427734375,-0.004771874751895666,0.05378970131278038,-0.009914075955748558
1783244234814899200,2.594899169921875,-0.008102424442768097,0.06809327006340027,-0.027886152267456055
1783244234824911400,2.604911376953125,-0.0005948289763182402,0.057794854044914246,-0.048760972917079926
1783244234834922200,2.614922119140625,0.001475512282922864,0.024015583097934723,-0.05781066045165062
1783244234844933400,2.624933349609375,0.00004289369098842144,-0.007162228226661682,-0.05689769238233566
1783244234854945300,2.6349453125,-0.004195527173578739,-0.0067486390471458435,-0.04688580334186554
1783244234864956200,2.6449560546875,-0.0034402264282107353,0.024937428534030914,-0.035583872348070145
1783244234874967300,2.65496728515625,0.0019236464286223054,0.0648379698395729,-0.032576363533735275
1783244234884979200,2.664979248046875,0.005095614120364189,0.08876597136259079,-0.03422955423593521
1783244234894990000,2.674989990234375,0.0022087476681917906,0.07279951870441437,-0.03512197732925415
1783244234905001200,2.685001220703125,-0.0025822892785072327,0.027436045929789543,-0.03305596485733986
1783244234915013400,2.695013427734375,-0.005416159052401781,-0.017675772309303284,-0.022646469995379448
1783244234925024300,2.705024169921875,-0.0013144351541996002,-0.047462645918130875,-0.0037436329293996096
1783244234935035100,2.71503515625,0.00711287185549736,-0.055173296481370926,0.020222686231136322
1783244234945047000,2.725047119140625,0.014238111674785614,-0.039277251809835434,0.03889256715774536
1783244234955058400,2.735058349609375,0.013398949056863785,-0.01608564704656601,0.051184918731451035
1783244234965069300,2.7450693359375,0.0030027783941477537,0.001920314272865653,0.0516633540391922
1783244234975081200,2.755081298828125,-0.011959126219153404,0.02293718233704567,0.04107728600502014
1783244234985092000,2.765092041015625,-0.028534574434161186,0.04674173519015312,0.015533993020653725
1783244234995103200,2.775103271484375,-0.040335044264793396,0.0537027083337307,-0.013692067936062813
1783244235005115400,2.785115478515625,-0.04306058585643768,0.03468118980526924,-0.035080596804618835
1783244235015126300,2.795126220703125,-0.04080542176961899,0.014041692018508911,-0.04231294244527817
1783244235025137200,2.80513720703125,-0.03181276470422745,0.013118799775838852,-0.0350266769528389
1783244235035149300,2.8151494140625,-0.021934300661087036,0.01364530622959137,-0.013303536921739578
1783244235045160200,2.82516015625,-0.01834569126367569,0.0012179313926026225,0.01744159311056137
1783244235055171300,2.83517138671875,-0.02363446354866028,0.0036182384938001633,0.03903770074248314
1783244235065183200,2.845183349609375,-0.03478582203388214,0.02076146751642227,0.04506778344511986
1783244235075194400,2.8551943359375,-0.04264987260103226,0.04169950634241104,0.03569132462143898
1783244235085205200,2.865205322265625,-0.043820008635520935,0.027915075421333313,0.026024604216217995
1783244235095217200,2.875217041015625,-0.041113171726465225,-0.008981156162917614,0.03197091072797775
1783244235105228300,2.885228271484375,-0.032579466700553894,-0.02851833961904049,0.039681851863861084
1783244235115239200,2.8952392578125,-0.02171989716589451,-0.008581915870308876,0.03442583978176117
1783244235125251300,2.905251220703125,-0.004998604767024517,0.013502800837159157,0.01988361030817032
1783244235135262200,2.91526220703125,0.002507248427718878,0.02260442078113556,0.0014718463644385338
1783244235145274000,2.925274169921875,0.005017154850065708,0.025430327281355858,-0.02059314027428627
1783244235155285200,2.93528515625,0.003731647040694952,0.03236093744635582,-0.034647174179553986
1783244235165296400,2.94529638671875,0.010708481073379517,0.033109571784734726,-0.0473012775182724
1783244235175308300,2.955308349609375,0.019057758152484894,0.026181358844041824,-0.05072396993637085
1783244235185319200,2.965319091796875,0.02571002207696438,0.011441002599895,-0.04394557699561119
1783244235195330000,2.975330078125,0.02325671724975109,0.006236386951059103,-0.03449508547782898
1783244235205342200,2.98534228515625,0.023609822615981102,0.006520960945636034,-0.02172423154115677
1783244235215353300,2.995353271484375,0.0282911267131567,0.00527726486325264,-0.006598275154829025
1783244235225364200,3.0053642578125,0.03275711089372635,-0.006820703856647015,0.011598816141486168
1783244235235376400,3.01537646484375,0.02916610613465309,-0.02342071942985058,0.0245396476238966
1783244235245387300,3.02538720703125,0.020452037453651428,-0.030230270698666573,0.03247354179620743
1783244235255398400,3.0353984375,0.012087580747902393,-0.01861409656703472,0.026785027235746384
1783244235265410300,3.045410400390625,0.006344596855342388,0.0023209864739328623,0.011210493743419647
1783244235275421200,3.055421142578125,0.007519050966948271,0.01322183758020401,-0.003114915918558836
1783244235285432300,3.065432373046875,0.008369171991944313,0.007537425961345434,-0.012664872221648693
1783244235295444200,3.0754443359375,0.00657420139759779,-0.0037029781378805637,-0.013592984527349472
1783244235305455000,3.085455078125,0.0038269953802227974,-0.014907780103385448,-0.010678648948669434
1783244235315466200,3.09546630859375,-0.002251936122775078,-0.024715669453144073,-0.004194917157292366
1783244235325478400,3.105478515625,-0.011064724996685982,-0.024077817797660828,0.007367297075688839
1783244235335489300,3.1154892578125,-0.0183282308280468,-0.01650671660900116,0.019416237249970436
1783244235345500200,3.125500244140625,-0.02379707433283329,-0.002135863993316889,0.028460467234253883
1783244235355512000,3.135511962890625,-0.02727622725069523,0.01681838557124138,0.025378655642271042
1783244235365523500,3.1455234375,-0.027963602915406227,0.036431774497032166,0.016040924936532974
1783244235375534300,3.155534423828125,-0.027042681351304054,0.02236415632069111,0.0029259230941534042
1783244235385546200,3.165546142578125,-0.02094360440969467,-0.0030684261582791805,-0.006155611947178841
1783244235395557000,3.17555712890625,-0.01829295977950096,0.0015100801829248667,-0.017355268821120262
1783244235405568000,3.185568115234375,-0.014340687543153763,0.01446105819195509,-0.028908492997288704
1783244235415580200,3.195580078125,-0.007162935566157103,0.00034976692404598,-0.02660619094967842
1783244235425591300,3.20559130859375,-0.003994068130850792,-0.019573384895920753,-0.012752702459692955
1783244235435602200,3.215602294921875,-0.007134467829018831,-0.019050605595111847,0.001664852723479271
1783244235445614300,3.2256142578125,-0.010522553697228432,0.00010065850801765919,0.008807589299976826
1783244235455625200,3.235625244140625,-0.005877201911062002,0.01393471471965313,0.006942844018340111
1783244235465637000,3.24563720703125,-0.002870329190045595,0.014402177184820175,0.0053119598887860775
1783244235475648300,3.255648193359375,0.0017222919268533587,0.014271948486566544,0.0009939102455973625
1783244235485659100,3.2656591796875,0.004390424583107233,0.010821624659001827,-0.005123183596879244
1783244235495671300,3.27567138671875,0.01034285593777895,0.0020590254571288824,-0.01486609224230051
1783244235505682200,3.28568212890625,0.012727757915854454,-0.02269469015300274,-0.01696319691836834
1783244235515693300,3.295693359375,0.006503949873149395,-0.0390065498650074,-0.006980071775615215
1783244235525705200,3.305705322265625,-0.002325208391994238,-0.029463326558470726,-0.00007109716534614563
1783244235535716400,3.31571630859375,-0.006635268218815327,-0.0012636471074074507,0.009415881708264351
1783244235545727200,3.325727294921875,-0.00687113543972373,0.016563158482313156,0.018004950135946274
1783244235555739100,3.3357392578125,-0.0027874442748725414,0.013908252120018005,0.02826317958533764
1783244235565750000,3.34575,-0.0028509022668004036,0.004125783685594797,0.029552994295954704
1783244235575761400,3.355761474609375,-0.0017645987682044506,0.003733500139787793,0.02218322642147541
1783244235585773300,3.365773193359375,0.00015787524171173573,-0.0009715957567095757,0.011671634390950203
1783244235595784200,3.3757841796875,0.010456851683557034,-0.005673140287399292,-0.00186414853669703
1783244235605795000,3.385795166015625,0.010578880086541176,0.00298222410492599,-0.019072677940130234
1783244235615807700,3.395807861328125,0.005406222306191921,0.018406718969345093,-0.03302710875868797
1783244235625819000,3.40581884765625,-0.0005732299759984016,0.02489713579416275,-0.037473421543836594
1783244235635830000,3.415830078125,0.0036569349467754364,0.023618819192051888,-0.03337428346276283
1783244235645842000,3.425842041015625,0.007938895374536514,0.007172440178692341,-0.01898045465350151
1783244235655852800,3.435852783203125,0.013389852829277515,-0.010846773162484169,-0.0007079732604324818
1783244235665863700,3.44586376953125,0.011886615306138992,-0.004082368686795235,0.011508299969136715
1783244235675875800,3.455875732421875,0.005962413735687733,0.012546142563223839,0.01733849197626114
1783244235685887000,3.465886962890625,0.002189734485000372,0.017892945557832718,0.022836171090602875
1783244235695897900,3.47589794921875,0.0038480849470943213,0.022924188524484634,0.016497313976287842
1783244235705910000,3.485909912109375,0.007441805209964514,0.02885347604751587,0.007261171471327543
1783244235715921000,3.4959208984375,0.011077020317316055,0.011074746027588844,-0.0010004870127886534
1783244235725932800,3.505932861328125,0.01115256454795599,-0.02105669490993023,-0.0000019096769392490387
1783244235735943700,3.515943603515625,0.011250835843384266,-0.0424669124186039,0.007447750773280859
1783244235745954800,3.525954833984375,0.015536866150796413,-0.046623196452856064,0.02168254181742668
1783244235755967000,3.535967041015625,0.022572670131921768,-0.022850221022963524,0.030432622879743576
1783244235765977900,3.545977783203125,0.022435545921325684,0.00720972428098321,0.032747190445661545
1783244235775988700,3.55598876953125,0.009305895306169987,0.03914076089859009,0.022562993690371513
1783244235786001000,3.5660009765625,-0.004398512654006481,0.06128591299057007,0.0034141237847507
1783244235796012000,3.576011962890625,-0.014970996417105198,0.05659422278404236,-0.014495901763439178
1783244235806023000,3.58602294921875,-0.009105123579502106,0.01652110368013382,-0.018355166539549828
1783244235816034800,3.596034912109375,0.0038751233369112015,-0.030855998396873474,-0.006052959710359573
1783244235826045700,3.606045654296875,0.020322920754551888,-0.0584263913333416,0.018335293978452682
1783244235836056800,3.616056884765625,0.027100667357444763,-0.053839098662137985,0.039897844195365906
1783244235846068700,3.62606884765625,0.025499384850263596,-0.0302132535725832,0.05575479194521904
1783244235856080000,3.636079833984375,0.012784120626747608,-0.0067215110175311565,0.06599225103855133
1783244235866090800,3.6460908203125,-0.007818177342414856,0.015321340411901474,0.06649742275476456
1783244235876103000,3.65610302734375,-0.026571892201900482,0.025334559381008148,0.058066923171281815
1783244235886113800,3.66611376953125,-0.03188725560903549,0.020126517862081528,0.04418128356337547
1783244235896125000,3.676125,-0.03007257916033268,0.024754559621214867,0.02750430256128311
1783244235906136800,3.68613671875,-0.01791299693286419,0.0396176353096962,0.0074631148017942905
1783244235916148000,3.69614794921875,0.003908945247530937,0.04545102268457413,-0.009812012314796448
1783244235926158800,3.706158935546875,0.025314949452877045,0.03688906133174896,-0.02392442524433136
1783244235936170800,3.716170654296875,0.03799772262573242,0.030594676733016968,-0.03515923395752907
1783244235946182000,3.726181884765625,0.037488583475351334,0.02419339492917061,-0.04113902151584625
1783244235956194000,3.736194091796875,0.032815802842378616,0.00795556977391243,-0.04000424966216087
1783244235966205000,3.746204833984375,0.02583513967692852,-0.004782077856361866,-0.025223292410373688
1783244235976215800,3.7562158203125,0.015160124748945236,0.007827190682291985,-0.006359856575727463
1783244235986227700,3.766227783203125,0.007771928794682026,0.029582994058728218,0.01141805574297905
1783244235996238800,3.77623876953125,0.006759661249816418,0.04814043268561363,0.023293623700737953
1783244236006250000,3.78625,0.018461816012859344,0.051757436245679855,0.023396551609039307
1783244236016262000,3.796261962890625,0.030079856514930725,0.04583509638905525,0.013135658577084541
1783244236026272800,3.806272705078125,0.038426484912633896,0.030880972743034363,-0.005217389669269323
1783244236036284000,3.816283935546875,0.04560130462050438,0.012740851379930973,-0.026229197159409523
1783244236046295800,3.8262958984375,0.049467913806438446,-0.005096306558698416,-0.043108634650707245
1783244236056307000,3.836306884765625,0.049637824296951294,-0.01650608703494072,-0.053466200828552246
1783244236066317800,3.84631787109375,0.04315836727619171,-0.019132979214191437,-0.04721910133957863
1783244236076330000,3.856330078125,0.035899654030799866,-0.014295878820121288,-0.02773062326014042
1783244236086340900,3.8663408203125,0.028636731207370758,-0.007347593549638987,0.00301125505939126
1783244236096351700,3.876351806640625,0.018248271197080612,-0.0067750136367976665,0.030273236334323883
1783244236106363600,3.88636376953125,0.0012905254261568189,-0.0112087931483984,0.05221647396683693
1783244236116375000,3.896375,-0.014900429174304008,-0.012847436591982841,0.06284088641405106
1783244236126386000,3.906385986328125,-0.02310267835855484,-0.004208623431622982,0.05884261801838875
1783244236136397800,3.916397705078125,-0.0221340861171484,0.0018487366614863276,0.044976603239774704
1783244236146408700,3.92640869140625,-0.018288666382431984,0.006928325165063143,0.02758432924747467
1783244236156419800,3.936419921875,-0.013790586963295937,0.012573428452014923,0.007284916937351227
1783244236166432000,3.946431884765625,-0.007336307782679796,0.014179295860230923,-0.015025701373815536
1783244236176443000,3.95644287109375,-0.0063855587504804134,0.00655067153275013,-0.032235316932201385
1783244236186454800,3.966454833984375,-0.0057257902808487415,0.004452022723853588,-0.045552752912044525
1783244236196466000,3.9764658203125,-0.010407095775008202,0.01014719344675541,-0.04824254661798477
1783244236206476800,3.986476806640625,-0.01277200412005186,0.014113122597336769,-0.04084794595837593
1783244236216489000,3.996489013671875,-0.00960417278110981,0.011394301429390907,-0.025579245761036873
1783244236226499800,4.006499755859375,-0.006160065531730652,0.009012621827423573,-0.00708091352134943
1783244236236510700,4.0165107421875,-0.0072761960327625275,0.0066171083599328995,0.005091064143925905
1783244236246523000,4.02652294921875,-0.013587339781224728,-0.0025388493668287992,0.013705477118492126
1783244236256533800,4.03653369140625,-0.009701255708932877,0.00037305080331861973,0.011905446648597717
1783244236266545000,4.046544921875,-0.0010179230011999607,0.017697906121611595,-0.0018339136149734259
1783244236276557000,4.05655712890625,0.011311180889606476,0.020761873573064804,-0.016557466238737106
1783244236286568000,4.06656787109375,0.02066584676504135,0.014249475672841072,-0.032753802835941315
1783244236296578800,4.076578857421875,0.02963510900735855,0.0023914852645248175,-0.046773213893175125
1783244236306590700,4.0865908203125,0.03304293751716614,-0.015227359719574451,-0.05470602959394455
1783244236316601900,4.096601806640625,0.031466614454984665,-0.026578549295663834,-0.058163076639175415
1783244236326613000,4.106613037109375,0.02187194675207138,-0.01692851260304451,-0.056259870529174805
1783244236336625000,4.116625,0.014937074854969978,0.006873488426208496,-0.05040624365210533
1783244236346635800,4.1266357421875,0.015344483777880669,0.02392455004155636,-0.040987465530633926
1783244236356646700,4.136646728515625,0.01903029903769493,0.01610684022307396,-0.021225210279226303
1783244236366658800,4.146658935546875,0.02283594198524952,-0.002055436372756958,-0.00021165888756513596
1783244236376670000,4.156669921875,0.02681390568614006,-0.02234606072306633,0.014781404286623001
1783244236386681900,4.166681884765625,0.03298347443342209,-0.036705099046230316,0.023701738566160202
1783244236396692700,4.176692626953125,0.03503570705652237,-0.032299432903528214,0.023719582706689835
1783244236406703900,4.186703857421875,0.03447146713733673,-0.02124817669391632,0.016522737219929695
1783244236416715800,4.1967158203125,0.027102768421173096,-0.019627908244729042,0.012499500066041946
1783244236426727000,4.206726806640625,0.01627129688858986,-0.015946121886372566,0.013789055868983269
1783244236436737800,4.21673779296875,0.005308127962052822,-0.00896065030246973,0.011574903503060341
1783244236446750000,4.22675,-0.0013770130462944508,-0.004725304432213306,0.010693173855543137
1783244236456760800,4.2367607421875,-0.006062844768166542,-0.0002314867451786995,0.0055282399989664555
1783244236466772000,4.24677197265625,-0.007018557749688625,0.00535974744707346,-0.00004107365384697914
1783244236476783900,4.256783935546875,-0.0051815090700984,0.01032787375152111,-0.006225732620805502
1783244236486795000,4.266794921875,-0.00032971473410725594,0.006996889598667622,-0.007741659879684448
1783244236496806000,4.276805908203125,0.0008023949339985847,0.005287672858685255,-0.009812001138925552
1783244236506817800,4.28681787109375,-0.0022993474267423153,0.00612294115126133,-0.010584183037281036
1783244236516828700,4.29682861328125,-0.004950790666043758,0.003995608538389206,-0.013542421162128448
1783244236526840000,4.306840087890625,-0.0020506493747234344,0.0022399513982236385,-0.014680526219308376
1783244236536852000,4.31685205078125,-0.0023270854726433754,0.0032546157017350197,-0.018692046403884888
1783244236546862800,4.32686279296875,-0.00702133122831583,-0.00460198987275362,-0.01708933897316456
1783244236556874800,4.336874755859375,-0.01764734461903572,-0.0053756386041641235,-0.014979582279920578
1783244236566886000,4.346885986328125,-0.032061927020549774,0.00470313336700201,-0.009452028200030327
1783244236576897000,4.35689697265625,-0.04845448210835457,0.012624174356460571,0.000341746024787426
1783244236586909000,4.366908935546875,-0.05455091968178749,0.018909646198153496,0.005619556177407503
1783244236596919800,4.376919921875,-0.051380425691604614,0.02139624021947384,0.007772455457597971
1783244236606931000,4.386930908203125,-0.04652794077992439,0.021657399833202362,0.001165849156677723
1783244236616942800,4.39694287109375,-0.042268481105566025,0.011787991970777512,-0.011855943128466606
1783244236626954000,4.4069541015625,-0.03975898399949074,-0.004687654320150614,-0.020944513380527496
1783244236636965000,4.416965087890625,-0.03777652606368065,-0.01758800633251667,-0.021044382825493813
1783244236646977000,4.42697705078125,-0.03815328702330589,-0.03243178874254227,-0.012049865908920765
1783244236656988000,4.43698779296875,-0.040869180113077164,-0.044154226779937744,0.006960843224078417
1783244236666999000,4.4469990234375,-0.04781252145767212,-0.050832539796829224,0.03152080625295639
1783244236677011000,4.457010986328125,-0.05841962248086929,-0.04449820891022682,0.054233573377132416
1783244236687022000,4.46702197265625,-0.06502000987529755,-0.02439773455262184,0.06430849432945251
1783244236697033000,4.477032958984375,-0.06639553606510162,0.0007004275685176253,0.06156464293599129
1783244236707045000,4.487045166015625,-0.06546095013618469,0.0287921279668808,0.04436510428786278
1783244236717056000,4.497055908203125,-0.06361857801675797,0.04945346340537071,0.01483784057199955
1783244236727067000,4.50706689453125,-0.053858015686273575,0.05420255661010742,-0.020904486998915672
1783244236737078800,4.517078857421875,-0.03998454660177231,0.04182950779795647,-0.05337747558951378
1783244236747090200,4.527090087890625,-0.030566174536943436,0.021189941093325615,-0.07255333662033081
1783244236757102000,4.53710205078125,-0.01820564642548561,-0.007664077915251255,-0.0691215842962265
1783244236767113000,4.547113037109375,-0.007841255515813828,-0.028106696903705597,-0.04574725404381752
1783244236777123800,4.557123779296875,0.004868680145591497,-0.03527006879448891,-0.013208752498030663
1783244236787136000,4.567135986328125,0.009344436228275299,-0.02462984248995781,0.015117639675736427
1783244236797147100,4.577147216796875,0.004983510356396437,0.00104116543661803,0.029485393315553665
1783244236807158000,4.587157958984375,-0.0037949448451399803,0.01695139892399311,0.028510309755802155
1783244236817170000,4.597169921875,-0.008103407919406891,0.020356781780719757,0.018211867660284042
1783244236827181000,4.60718115234375,-0.009533455595374107,0.015130739659070969,0.00035045482218265533
1783244236837192000,4.61719189453125,-0.00598266301676631,0.0004346187924966216,-0.014468705281615257
1783244236847204000,4.6272041015625,0.0022715176455676556,-0.022253964096307755,-0.020779529586434364
1783244236857215000,4.637215087890625,0.008914506062865257,-0.04321756958961487,-0.014863584190607071
1783244236867225900,4.647225830078125,0.010135797783732414,-0.05313042923808098,0.0020972024649381638
1783244236877238000,4.657238037109375,0.004239292815327644,-0.04936924949288368,0.022802215069532394
1783244236887249000,4.667248779296875,-0.003671722486615181,-0.041138410568237305,0.04479071497917175
1783244236897260800,4.6772607421875,-0.01125400885939598,-0.02811528742313385,0.05904768034815788
1783244236907272200,4.687272216796875,-0.020005831494927406,-0.006125592160969973,0.06409959495067596
1783244236917283000,4.697282958984375,-0.028188927099108696,0.009244043380022049,0.05419077351689339
1783244236927295000,4.707294921875,-0.03437553346157074,0.01870286650955677,0.034279920160770416
1783244236937305900,4.717305908203125,-0.033687904477119446,0.020588649436831474,0.009843820706009865
1783244236947317000,4.72731689453125,-0.02577333152294159,0.02182687260210514,-0.015495583415031433
1783244236957329200,4.7373291015625,-0.021281111985445023,0.027632564306259155,-0.0368991419672966
1783244236967340000,4.747340087890625,-0.01254827156662941,0.026831096038222313,-0.0448266975581646
1783244236977351000,4.757350830078125,-0.0014591342769563198,0.010716307908296585,-0.040735017508268356
1783244236987363000,4.767363037109375,0.004797184839844704,-0.003948871977627277,-0.0222008153796196
1783244236997374000,4.7773740234375,0.0051239547319710255,-0.010636602528393269,-0.001273163128644228
1783244237007385000,4.787385009765625,-0.001008458435535431,-0.004006299190223217,0.01501494087278843
1783244237017397000,4.79739697265625,-0.006980597041547298,0.013306111097335815,0.022809479385614395
1783244237027408000,4.807407958984375,-0.010426189750432968,0.029451526701450348,0.01996557042002678
1783244237037419000,4.8174189453125,-0.00620960583910346,0.03724340349435806,0.005686233285814524
1783244237047431000,4.827430908203125,0.001601562136784196,0.033706434071063995,-0.014377668499946594
1783244237057442000,4.837442138671875,0.011735156178474426,0.018714169040322304,-0.04005426913499832
1783244237067453000,4.847452880859375,0.01903682015836239,-0.007303704973310232,-0.05532487854361534
1783244237077465000,4.857465087890625,0.0232014711946249,-0.03247696906328201,-0.052347730845212936
1783244237087476000,4.86747607421875,0.02656892128288746,-0.04310055449604988,-0.03340102359652519
1783244237097488000,4.87748779296875,0.029384147375822067,-0.04431016370654106,0.0007849093526601791
1783244237107499000,4.8874990234375,0.025814250111579895,-0.026605060324072838,0.03539815545082092
1783244237117510100,4.89751025390625,0.018308131024241447,-0.005020939279347658,0.0642194151878357
1783244237127522000,4.90752197265625,0.006249167025089264,0.004088063724339008,0.07646878063678741
1783244237137533000,4.917532958984375,-0.005330790299922228,0.01959218829870224,0.06536020338535309
1783244237147543800,4.927543701171875,-0.0074195340275764465,0.016120176762342453,0.040766432881355286
1783244237157556000,4.937555908203125,-0.00584427360445261,0.0001257644034922123,0.01027989573776722
1783244237167567000,4.947567138671875,-0.002151153050363064,-0.007147882599383593,-0.016376659274101257
1783244237177578000,4.957577880859375,0.0035719801671802998,-0.013580482453107834,-0.03420039638876915
1783244237187590000,4.96758984375,0.009639876894652843,-0.017966153100132942,-0.038843441754579544
1783244237197601000,4.97760107421875,0.014601878821849823,-0.014635871164500713,-0.031394314020872116
1783244237207612200,4.987612060546875,0.00827698688954115,-0.0004878495819866657,-0.022509120404720306
1783244237217624000,4.9976240234375,-0.002303485758602619,0.007658493705093861,-0.012284712865948677
1783244237227635000,5.007635009765625,-0.015605928376317024,0.005028187297284603,0.0021884473972022533
1783244237237647000,5.017647216796875,-0.027035949751734734,0.006044182926416397,0.01394523773342371
1783244237247658000,5.027657958984375,-0.031218089163303375,0.009974355809390545,0.022899702191352844
1783244237257668900,5.0376689453125,-0.02895813062787056,0.006227022036910057,0.029988769441843033
1783244237267680800,5.0476806640625,-0.02196137048304081,-0.00400886032730341,0.03606363385915756
1783244237277692200,5.057692138671875,-0.015083223581314087,-0.02184538170695305,0.035657770931720734
1783244237287703000,5.067703125,-0.008631826378405094,-0.025742633268237114,0.028780410066246986
1783244237297715000,5.07771484375,-0.00826963596045971,-0.017372317612171173,0.01942605711519718
1783244237307725800,5.087725830078125,-0.011815587058663368,-0.015079505741596222,0.014926590956747532
1783244237317737200,5.0977373046875,-0.014378080144524574,-0.009154237806797028,0.010438365861773491
1783244237327749000,5.1077490234375,-0.015457458794116974,0.0064204600639641285,0.0033839186653494835
1783244237337760000,5.117760009765625,-0.011574838310480118,0.0037413202226161957,-0.0003333217464387417
1783244237347771000,5.12777099609375,-0.00788032915443182,-0.006645733490586281,0.0002660006284713745
1783244237357783000,5.137782958984375,-0.006599615328013897,0.0020606722682714462,-0.0025241931434720755
1783244237367794000,5.1477939453125,-0.004378955345600843,0.019024984911084175,-0.009242461994290352
1783244237377805000,5.15780517578125,-0.004002917092293501,0.017328018322587013,-0.009849662892520428
1783244237387817000,5.16781689453125,-0.004086988512426615,0.015023472718894482,-0.009331022389233112
1783244237397828000,5.177828125,-0.008110757917165756,0.013580039143562317,0.000003889668732881546
1783244237407840000,5.187840087890625,-0.008546194061636925,0.0007862042402848601,0.013970671221613884
1783244237417851000,5.197850830078125,-0.00918428786098957,-0.01115887239575386,0.02575036510825157
1783244237427862000,5.207862060546875,-0.007469266653060913,-0.012360051274299622,0.030891574919223785
1783244237437874200,5.217874267578125,-0.007415204308927059,0.0018745437264442444,0.03062872216105461
1783244237447885000,5.227885009765625,-0.009577050805091858,0.031130626797676086,0.01961260288953781
1783244237457896000,5.23789599609375,-0.0005966059397906065,0.05273259058594704,0.001860504038631916
1783244237467907800,5.247907958984375,0.012765180319547653,0.05522219464182854,-0.013382432982325554
1783244237477919000,5.2579189453125,0.022401029244065285,0.043294694274663925,-0.029575519263744354
1783244237487930000,5.26793017578125,0.022556543350219727,0.02574685402214527,-0.036499183624982834
1783244237497942000,5.27794189453125,0.027951840311288834,0.004176313988864422,-0.03637028485536575
1783244237507953000,5.287952880859375,0.03501346334815025,-0.013833364471793175,-0.027528446167707443
1783244237517963800,5.2979638671875,0.03982153534889221,-0.018124515190720558,-0.014649398624897003
1783244237527976000,5.307975830078125,0.03755216300487518,-0.014977910555899143,0.004873101133853197
1783244237537987000,5.317987060546875,0.03838013857603073,-0.006057385355234146,0.020187342539429665
1783244237547999000,5.3279990234375,0.03259633481502533,0.0029844087548553944,0.025700028985738754
1783244237558010000,5.338010009765625,0.027019143104553223,0.0110697653144598,0.02159396931529045
1783244237568021000,5.34802099609375,0.022394798696041107,0.013085190206766129,0.005940608214586973
1783244237578033000,5.358032958984375,0.018475957214832306,0.008128780871629715,-0.009726768359541893
1783244237588044000,5.3680439453125,0.015748027712106705,0.0072061666287481785,-0.02078104019165039
1783244237598055000,5.378054931640625,0.019887112081050873,-0.0037599317729473114,-0.021245760843157768
1783244237608067000,5.388067138671875,0.020897645503282547,-0.030338570475578308,-0.007325438782572746
1783244237618077400,5.398077392578125,0.016807295382022858,-0.04778573662042618,0.01618947461247444
1783244237628088600,5.408088623046875,0.003965581301599741,-0.0435008779168129,0.043219439685344696
1783244237638100500,5.4181005859375,-0.007884420454502106,-0.02546941675245762,0.06302936375141144
1783244237648111400,5.428111328125,-0.01579151675105095,0.0036242143251001835,0.07010287046432495
1783244237658122200,5.438122314453125,-0.017581693828105927,0.02596094459295273,0.06276213377714157
1783244237668134400,5.448134521484375,-0.013188419863581657,0.028880810365080833,0.04604271426796913
1783244237678145500,5.4581455078125,-0.008042126893997192,0.020942460745573044,0.0203943382948637
1783244237688157400,5.468157470703125,-0.0024400241672992706,0.005561397410929203,-0.0012386853341013193
1783244237698168600,5.47816845703125,-0.0028855707496404648,-0.008863614872097969,-0.014702295884490013
1783244237708179500,5.488179443359375,0.00006799120455980301,-0.015155356377363205,-0.014905408024787903
1783244237718191400,5.49819140625,0.0063232239335775375,-0.012274082750082016,-0.007500221952795982
1783244237728202200,5.5082021484375,0.01713370345532894,-0.006563393399119377,0.009646465070545673
1783244237738213400,5.51821337890625,0.02163497731089592,0.00149826193228364,0.023088505491614342
1783244237748225500,5.5282255859375,0.0202646367251873,0.001324068522080779,0.0334843248128891
1783244237758236400,5.538236328125,0.016183609142899513,-0.005012390669435263,0.037248700857162476
1783244237768247300,5.548247314453125,0.014377139508724213,0.0008062535198405385,0.033426590263843536
1783244237778259500,5.558259521484375,0.016739629209041595,0.004218561574816704,0.02357928454875946
1783244237788270600,5.5682705078125,0.01863279566168785,-0.006356731988489628,0.015629256144165993
1783244237798281500,5.578281494140625,0.02235855907201767,-0.024173544719815254,0.011029710993170738
1783244237808293400,5.58829345703125,0.022349299862980843,-0.034467581659555435,0.015304682776331902
1783244237818304300,5.59830419921875,0.0215626023709774,-0.030638225376605988,0.019219528883695602
1783244237828316400,5.60831640625,0.017018165439367294,-0.03684716671705246,0.025112105533480644
1783244237838327300,5.618327392578125,0.017075423151254654,-0.03815824165940285,0.029752928763628006
1783244237848338400,5.62833837890625,0.015129498206079006,-0.03311225399374962,0.0313238725066185
1783244237858350600,5.6383505859375,0.015434962697327137,-0.025391215458512306,0.0326293520629406
1783244237868361500,5.648361572265625,0.010418228805065155,-0.012926047667860985,0.03241681680083275
1783244237878372400,5.658372314453125,0.003572572721168399,-0.0015562139451503754,0.028965359553694725
1783244237888384300,5.66838427734375,0.0035199164412915707,0.004968678113073111,0.02099474146962166
1783244237898395400,5.6783955078125,0.003993692807853222,-0.009541022591292858,0.020364372059702873
1783244237908406500,5.688406494140625,0.005623233504593372,-0.033146314322948456,0.026762139052152634
1783244237918418400,5.69841845703125,0.0076331207528710365,-0.03721801936626434,0.03113478422164917
1783244237928429300,5.70842919921875,-0.0017166570760309696,-0.03673216328024864,0.031088389456272125
1783244237938440400,5.7184404296875,-0.02294258214533329,-0.035549718886613846,0.028635885566473007
1783244237948452400,5.728452392578125,-0.027068549767136574,-0.02985973283648491,0.02736942283809185
1783244237958463500,5.73846337890625,-0.024302590638399124,-0.024434076622128487,0.03341293707489967
1783244237968475400,5.748475341796875,-0.017206620424985886,-0.02505117654800415,0.04302781820297241
1783244237978486300,5.758486328125,-0.012955947779119015,-0.019256936386227608,0.043692540377378464
1783244237988497400,5.768497314453125,-0.015632137656211853,-0.014377713203430176,0.031738076359033585
1783244237998509300,5.77850927734375,-0.02450712025165558,-0.00556957395747304,0.00895925797522068
1783244238008520400,5.7885205078125,-0.03637957200407982,-0.0009885490871965885,-0.016418037936091423
1783244238018531300,5.79853125,-0.03379444405436516,-0.014601031318306923,-0.031108565628528595
1783244238028543500,5.80854345703125,-0.025008689612150192,-0.036166559904813766,-0.035087183117866516
1783244238038554400,5.818554443359375,-0.020423524081707,-0.040900859981775284,-0.029589353129267693
1783244238048565500,5.8285654296875,-0.021741624921560287,-0.029462510719895363,-0.015400532633066177
1783244238058577400,5.838577392578125,-0.02205321565270424,-0.0026183808222413063,-0.0008815117180347443
1783244238068588500,5.848588623046875,-0.02590220794081688,0.02176620066165924,0.014351725578308105
1783244238078599400,5.858599365234375,-0.029078025370836258,0.017503278329968452,0.022157717496156693
1783244238088611300,5.868611328125,-0.032513875514268875,0.01381247490644455,0.019672486931085587
1783244238098622200,5.878622314453125,-0.03730063885450363,0.002307353774085641,0.01106142159551382
1783244238108634400,5.88863427734375,-0.02692841924726963,-0.025389522314071655,0.0053551471792161465
1783244238118645500,5.8986455078125,-0.007380283437669277,-0.04883146286010742,-0.00017996691167354584
1783244238128656400,5.908656494140625,0.007975012063980103,-0.05109824985265732,-0.008580776862800121
1783244238138668300,5.918668212890625,0.01042112521827221,-0.024773435667157173,-0.021046500653028488
1783244238148679400,5.928679443359375,0.00881304033100605,-0.0016078082844614983,-0.029877953231334686
1783244238158690600,5.938690673828125,0.0041695525869727135,0.01755390129983425,-0.036298301070928574
1783244238168702500,5.948702392578125,0.0014104485744610429,0.032614465802907944,-0.041423164308071136
1783244238178713300,5.95871337890625,0.00312765478156507,0.03522196784615517,-0.05082172527909279
1783244238188724500,5.968724365234375,0.002810568315908313,0.019310038536787033,-0.06834037601947784
1783244238198736400,5.978736328125,0.005188505165278912,0.0033952551893889904,-0.08681046217679977
1783244238208747300,5.988747314453125,0.008199255913496017,-0.005039145704358816,-0.086290143430233
1783244238218759400,5.998759521484375,0.022908959537744522,-0.01452665776014328,-0.06718116253614426
1783244238228770600,6.0087705078125,0.041584234684705734,-0.02743448317050934,-0.03925606608390808
1783244238238781400,6.018781494140625,0.05108586326241493,-0.03879552707076073,-0.012375184334814548
1783244238248793300,6.02879345703125,0.04204505681991577,-0.03987045958638191,0.004400137346237898
1783244238258804200,6.03880419921875,0.024008531123399734,-0.03065698780119419,0.013126783072948456
1783244238268815600,6.048815673828125,0.008919134736061096,-0.024920925498008728,0.017296984791755676
1783244238278827500,6.05882763671875,0.0053640808910131454,-0.026537995785474777,0.012368537485599518
1783244238288838400,6.06883837890625,0.0027740560472011566,-0.02879388816654682,0.00307280570268631
1783244238298849300,6.078849365234375,-0.002671841997653246,-0.024835899472236633,-0.009295180439949036
1783244238308861400,6.088861328125,-0.011299124918878078,-0.026786882430315018,-0.01837734691798687
1783244238318872600,6.09887255859375,-0.009765943512320518,-0.0299238208681345,-0.01897469349205494
1783244238328883500,6.108883544921875,-0.005950602702796459,-0.03475566208362579,-0.013612797483801842
1783244238338895400,6.118895263671875,0.002192278392612934,-0.04180345684289932,-0.010340837761759758
1783244238348906500,6.128906494140625,0.00376426731236279,-0.03603226691484451,-0.014056170359253883
1783244238358918400,6.13891845703125,0.0018542481120675802,-0.016431665048003197,-0.018945466727018356
1783244238368929300,6.14892919921875,-0.0014425478875637054,0.011918339878320694,-0.02617902122437954
1783244238378940400,6.1589404296875,-0.0019868980161845684,0.025155847892165184,-0.03597306087613106
1783244238388952600,6.16895263671875,-0.0011707092635333538,0.019554011523723602,-0.04156504198908806
1783244238398963500,6.17896337890625,0.00045648240484297276,0.0030834265053272247,-0.043698232620954514
1783244238408974300,6.188974365234375,0.002094465307891369,-0.013330679386854172,-0.03606453165411949
1783244238418986200,6.198986328125,0.005003169644623995,-0.035306286066770554,-0.027664123103022575
1783244238428997600,6.20899755859375,0.005677413195371628,-0.051203906536102295,-0.026829365640878677
1783244238439008500,6.219008544921875,-0.0025560157373547554,-0.04828428104519844,-0.03218098729848862
1783244238449020400,6.2290205078125,-0.015452736057341099,-0.0422699935734272,-0.03968113660812378
1783244238459031300,6.23903125,-0.019788093864917755,-0.04278957471251488,-0.051511697471141815
1783244238469042200,6.249042236328125,-0.021254021674394608,-0.05183923617005348,-0.06560691446065903
1783244238479054300,6.259054443359375,-0.022149376571178436,-0.06785335391759872,-0.07460839301347733
1783244238489065500,6.2690654296875,-0.03376104682683945,-0.09439792484045029,-0.0674622654914856
1783244238499077400,6.279077392578125,-0.02349083311855793,-0.10132081061601639,-0.03245581313967705
1783244238509088500,6.289088623046875,0.010923093184828758,-0.06364423036575317,0.041243188083171844
1783244238519099400,6.299099365234375,0.03501085191965103,0.039257388561964035,0.09573119878768921
1783244238529111300,6.309111328125,0.03463950753211975,0.10829724371433258,0.12884922325611115
1783244238539122400,6.319122314453125,0.01694280281662941,0.1259305626153946,0.12940768897533417
1783244238549133300,6.32913330078125,0.004382732789963484,0.09559835493564606,0.08903349936008453
1783244238559145500,6.3391455078125,-0.0006234773900359869,0.04703720659017563,0.03490235656499863
1783244238569156400,6.34915625,-0.009689437225461006,0.00993852224200964,-0.021875718608498573
1783244238579167500,6.35916748046875,-0.010898245498538017,-0.020908605307340622,-0.06823255866765976
1783244238589179400,6.369179443359375,-0.008875984698534012,-0.056789930909872055,-0.10760243982076645
1783244238599190500,6.3791904296875,-0.003243399318307638,-0.1064634770154953,-0.13860324025154114
1783244238609201400,6.389201416015625,0.009785875678062439,-0.14750753343105316,-0.14402168989181519
1783244238619213800,6.3992138671875,0.026314251124858856,-0.1332377791404724,-0.10342498868703842
1783244238629225000,6.409224853515625,0.036841168999671936,-0.07608293741941452,-0.03046717494726181
1783244238639236900,6.41923681640625,0.04143379256129265,0.010702293366193771,0.04871925711631775
