time,seconds_elapsed,z,y,x
1783244278809193700,0.06419384765625,0.08229016067385674,-0.12113032506927847,0.11312445753980427
1783244278819204900,0.074204833984375,-0.04790273790359497,-0.043768560708314176,0.1400565593354404
1783244278829217000,0.084217041015625,-0.19058803830742835,0.034877544374763966,0.1526199075061828
1783244278839229000,0.09422900390625,-0.24982231756448744,0.13440364814028144,0.12969905064590276
1783244278849240800,0.10424072265625,-0.16016659655869006,0.16086641539111732,0.07622980118896812
1783244278859251700,0.114251708984375,-0.09766834706962108,0.13570172512680292,0.01583111779503524
1783244278869264000,0.124263916015625,-0.04531622854173183,0.11288783577233552,0.0013032646182924508
1783244278879275800,0.13427587890625,0.012001987960934638,0.09111439538151025,0.028463731809705493
1783244278889286700,0.14428662109375,0.008804653224349021,0.08693988617584109,0.09154734343867749
1783244278899298800,0.154298828125,0.08110942645668982,0.03537248828485608,0.13665244998037815
1783244278909310700,0.164310791015625,0.12834873201549052,0.014775836588442325,0.15288900677114725
1783244278919322600,0.174322509765625,0.1307335813254118,0.05218479913696646,0.1757397940699011
1783244278929334000,0.184333984375,0.11489420715868473,0.07782207534909248,0.1621313938256353
1783244278939346000,0.194345947265625,0.08086801891624927,0.07653875754028558,0.11940214956980198
1783244278949357800,0.20435791015625,0.026210546055436133,0.09735475107580423,0.06742836283501237
1783244278959369000,0.214368896484375,-0.07336217333078383,0.09585691373348236,0.047072241896204646
1783244278969380900,0.224380859375,-0.15889526144862173,0.08446502049490809,0.04264773998484015
1783244278979392800,0.234392822265625,-0.15777181037664412,0.12213935598134994,0.04786573036145419
1783244278989404000,0.24440380859375,-0.10727554884850979,0.13589856287315488,0.028750111003033815
1783244278999415800,0.254415771484375,-0.03674830668270588,0.08460325992181897,-0.005314546086266637
1783244279009427700,0.264427734375,-0.009307342049479484,0.06433277143985032,-0.012975253439880907
1783244279019439900,0.27443994140625,-0.007478957578539848,0.0921029680274427,0.014001966139115392
1783244279029451000,0.284450927734375,-0.003832710030674934,0.1365003281585872,0.022651026942953466
1783244279039463000,0.294462890625,-0.06269231075644492,0.11822744323462248,0.04834207916893065
1783244279049475000,0.30447509765625,-0.1463099206417799,0.04893573421314359,0.0498749147593975
1783244279059486000,0.31448583984375,-0.18511223724484444,0.052326545695215464,0.05738105260580778
1783244279069497900,0.324497802734375,-0.1791308247476816,0.12075330845043063,0.0427932128701359
1783244279079509800,0.334509765625,-0.15547463935017586,0.13388663852885366,-0.0016538681542500853
1783244279089521000,0.34452099609375,-0.15729542503654956,0.05796352866888046,-0.06433806866947561
1783244279099532800,0.35453271484375,-0.10216448944509028,0.07104542082101106,-0.011092033509165048
1783244279109544700,0.364544677734375,-0.04074643640816211,0.1594067181020975,0.056132258121110494
1783244279119556900,0.374556884765625,0.01711713901758194,0.15397051839753984,0.028760668929666278
1783244279129567700,0.384567626953125,0.09363865316212176,0.06473828350082039,-0.03130596949830651
1783244279139579600,0.39457958984375,0.08857786264121532,0.0398072558619082,-0.004028451798483729
1783244279149591800,0.404591796875,0.10676350767314434,0.08646861540228128,0.05497903296537697
1783244279159603000,0.41460302734375,0.09063421064913273,0.11881386482045053,0.10205244390536099
1783244279169614800,0.42461474609375,0.06990998705029487,0.08250131920650601,0.09682835258152335
1783244279179627000,0.434626953125,0.010068974071741104,0.04550254489406943,0.11116524976342916
1783244279189639000,0.444638916015625,-0.09350713573694229,0.07692059646472335,0.142279678745009
1783244279199649800,0.45464990234375,-0.16430968771278856,0.14827274514734745,0.16550090679135174
1783244279209662000,0.464661865234375,-0.17831015601456165,0.14523542327806352,0.10406502583678812
1783244279219673900,0.474673828125,-0.10827858841121196,0.10850742873102426,0.032494156369566915
1783244279229684700,0.484684814453125,-0.06256663855016231,0.09724033091589808,0.035301907266676424
1783244279239696600,0.494696533203125,-0.046452539095282554,0.10611264254897833,0.045152270151674744
1783244279249708800,0.504708740234375,-0.002973462852835655,0.14304974980205296,0.10493727862667292
1783244279259720000,0.514719970703125,0.046070261779427524,0.17458499801158903,0.14677275238055734
1783244279269731800,0.52473193359375,0.10379881264865398,0.1771966418147087,0.13478640038017184
1783244279279744000,0.534743896484375,0.13709259496331214,0.12498188593089579,0.11369820230714976
1783244279289756000,0.544755859375,0.06832417916357517,0.10383534526675939,0.08803283251170069
1783244279299766800,0.554766845703125,0.03226093213558197,0.08106967896819114,0.07734517855234443
1783244279309779000,0.564779052734375,-0.0469517207890749,0.13284428986907004,0.046090866176038976
1783244279319790800,0.574790771484375,-0.04827858547866344,0.07803922523111105,-0.00037657822743058204
1783244279329801700,0.5848017578125,-0.002393032616376877,0.037675650660693644,-0.03856014187764376
1783244279339814000,0.59481396484375,-0.07689853076338768,0.09417115260362624,-0.0030552593847736715
1783244279349825800,0.60482568359375,-0.1629664564102888,0.10638502974957227,0.040151612320169804
1783244279359837700,0.614837646484375,-0.21190379805862902,0.11597440361082553,0.06607015315908939
1783244279369848800,0.624848876953125,-0.24299568641483782,0.12439151882231235,0.05313954257853329
1783244279379861000,0.634861083984375,-0.23829262329041956,0.1101914362952113,0.030990729536674914
1783244279389873000,0.644872802734375,-0.21287936509251593,0.09757073191404342,0.010247545509040355
1783244279399883800,0.6548837890625,-0.1599602603316307,0.10516133317351341,-0.0014927593084052204
1783244279409896000,0.66489599609375,-0.11019757377505301,0.10008359151780605,-0.02011617470309138
1783244279419907800,0.674907958984375,-0.06492518437504768,0.07502046193182468,0.0031315029587596654
1783244279429918700,0.684918701171875,-0.03948445364832878,0.04995061034411192,0.03153192374128848
1783244279439931000,0.694930908203125,0.015981997507810593,0.05581657976806163,0.0703766912465915
1783244279449942800,0.70494287109375,0.028710546177625654,0.03675064477026462,0.08788545993026345
1783244279459954700,0.71495458984375,0.026104747593402863,0.02470277184098959,0.14180928475428373
1783244279469965800,0.7249658203125,0.02682546308338642,0.07223346156179905,0.1531067046424374
1783244279479977700,0.734977783203125,0.0021498715102672575,0.10066256044954061,0.11182137558460235
1783244279489989600,0.74498974609375,-0.04557575626075268,0.059462535054981704,0.07583152258638293
1783244279500001000,0.7550009765625,-0.05991933891177177,0.03660743690729141,0.09033150137551128
1783244279510013000,0.765012939453125,-0.0717477238714695,0.06935264542847872,0.09850034091435372
1783244279520024800,0.77502490234375,-0.04031330568790435,0.026304069557785987,0.05815141592379659
1783244279530035700,0.78503564453125,0.05274550175964832,0.027590017715096473,0.03301836290676147
1783244279540048000,0.7950478515625,0.08653378959298133,0.0516024692043662,0.07300985276177525
1783244279550059800,0.805059814453125,0.06782265938222408,0.09969429993927478,0.08115772257782518
1783244279560072000,0.815072021484375,0.017273206362128257,0.09053893358111381,0.07105404251888393
1783244279570082800,0.825082763671875,-0.05428045624196529,0.04679711474925279,0.05116437004804611
1783244279580094700,0.8350947265625,-0.09365969595015049,0.08640168764591216,0.05886288866139948
1783244279590107000,0.84510693359375,-0.1686649603128433,0.08009937263131141,0.05629208832532167
1783244279600118000,0.855117919921875,-0.17006372119486332,0.07722352493405342,0.012236162042990327
1783244279610130000,0.8651298828125,-0.13747136514782904,0.10122983894348143,-0.03710446317661553
1783244279620141800,0.875141845703125,-0.10494213746488093,0.12322481313049792,-0.06253127497583627
1783244279630153000,0.885153076171875,-0.07093406940102577,0.12797843739837408,-0.08569547560531646
1783244279640164900,0.895164794921875,-0.06486848575174808,0.11780395712554455,-0.08972429272998124
1783244279650176800,0.9051767578125,-0.08627192378640175,0.10638532201051712,-0.0680091218650341
1783244279660188400,0.9151884765625,-0.09985738154649734,0.10156184737682342,0.0163884594168514
1783244279670199300,0.92519921875,-0.11374386807978153,0.08699439284205436,0.08820986957903951
1783244279680211500,0.93521142578125,-0.12320610843002795,0.036599838122725485,0.08671773132514209
1783244279690223400,0.945223388671875,-0.09465922838151454,0.06006488486230373,0.07425064660310744
1783244279700234500,0.955234375,-0.0426817883849144,0.10857201839983463,0.05364672491569072
1783244279710246700,0.96524658203125,-0.012763619983196257,0.11249620610624551,-0.013803484424948692
1783244279720258600,0.975258544921875,0.05014788648188114,0.0877399505123496,-0.07973284087385982
1783244279730269400,0.98526953125,0.07349076814651488,0.11067892755120992,-0.08901998038552701
1783244279740281600,0.995281494140625,0.08613280757665634,0.14164718952775002,-0.05218037869017571
1783244279750293500,1.00529345703125,0.07596680287122726,0.12836509862840176,-0.027445019753836095
1783244279760305400,1.015305419921875,0.05362403815984726,0.1128147705361247,-0.009927008317783474
1783244279770316500,1.025316650390625,0.0005108721315860748,0.1243999943897128,-0.012899375192075967
1783244279780328400,1.035328369140625,-0.04120587061345577,0.0960448375210166,-0.030691673524864016
1783244279790340400,1.04534033203125,-0.07612929995656013,0.08133125251382589,-0.027928492421843108
1783244279800351700,1.055351806640625,-0.15569208149313926,0.05480564915984869,-0.017143259839527306
1783244279810363600,1.06536376953125,-0.21713585349321365,0.06137742876559495,0.014299780041910707
1783244279820375600,1.07537548828125,-0.2480412793666124,0.13801029433012008,0.05318729071039706
1783244279830386400,1.085386474609375,-0.2157213105201721,0.12697861270606517,0.0018181553378701209
1783244279840398600,1.095398681640625,-0.17507658092081546,0.08170885365456342,-0.0676884020106867
1783244279850410500,1.105410400390625,-0.17820026589930058,0.05991495499759912,-0.10204659868646412
1783244279860422700,1.115422607421875,-0.12464753940999507,0.09623451487421988,-0.07513327465653419
1783244279870433500,1.12543359375,-0.044862055033445356,0.17060995690077543,-0.008868987164832651
1783244279880445400,1.135445556640625,-0.008301379877328872,0.17845511744320391,0.018744886349886653
1783244279890457600,1.14545751953125,0.07356558694839477,0.14353139583915472,0.01664068061225116
1783244279900468500,1.155468505859375,0.17923779225349426,0.14930997924059627,0.02007891143262386
1783244279910480400,1.16548046875,0.23084815250337123,0.1683273989215493,0.008999299013614653
1783244279920492300,1.1754921875,0.22273966484963892,0.10347644882649183,0.02144358738195151
1783244279930503700,1.185503662109375,0.1739548834145069,0.049044893676042554,0.023087883990257976
1783244279940515600,1.195515625,0.13005612045526505,0.11745061364322901,0.040639578500203784
1783244279950527500,1.205527587890625,0.04132394403517246,0.18764321702718734,0.04490753814298659
1783244279960539600,1.21553955078125,-0.07448854701220989,0.15338672716021537,0.045390974278375504
1783244279970550500,1.225550537109375,-0.14915245059132576,0.10682692829817533,0.047532918210513884
1783244279980562400,1.2355625,-0.1686135223865509,0.13682342263311148,0.03123177175093442
1783244279990574600,1.24557470703125,-0.167471951135993,0.16196780076175926,-0.029341427959688006
1783244280000585500,1.25558544921875,-0.16838497432768343,0.12280161928236484,-0.06196469060163945
1783244280010597400,1.265597412109375,-0.06420271531939506,0.07224485973864793,-0.054455484015308316
1783244280020609500,1.275609619140625,0.03529810787439346,0.09305676162093877,-0.06644713324531912
1783244280030620700,1.28562060546875,0.0324643457531929,0.1098977140456438,-0.068244757251814
1783244280040632600,1.295632568359375,-0.034791327396035195,0.0706494072407484,-0.022825031802989542
1783244280050644500,1.30564453125,-0.08258183709681034,0.07441314368844032,0.05543653094191104
1783244280060656600,1.31565673828125,-0.16765139935612677,0.10076046786606312,0.11504421008862555
1783244280070667500,1.32566748046875,-0.20649346344768998,0.05578501558601856,0.10536153192073106
1783244280080679400,1.335679443359375,-0.18936755660176277,-0.004480944806337356,0.09748224991299212
1783244280090691600,1.345691650390625,-0.11945464694201946,0.00026069676280021664,0.09405991078149527
1783244280100702500,1.355702392578125,-0.040677462825179096,0.04886982937008142,0.07046619616094976
1783244280110714400,1.36571435546875,0.052037645751237864,0.054800972984731196,0.029872904487885533
1783244280120726500,1.3757265625,0.08436988955736159,0.0290483998298645,0.05534150960221886
1783244280130737700,1.385737548828125,0.1116582939773798,0.025104922901093958,0.08554945473074912
1783244280140749600,1.39574951171875,0.11402093145549297,0.013752923281490801,0.10704199582096188
1783244280150761700,1.40576171875,0.08018997352421284,-0.053425008456408976,0.1486761383164674
1783244280160772600,1.415772705078125,0.06102174719572067,-0.07726502598822116,0.1921801663370803
1783244280170784500,1.425784423828125,0.04461246418654918,-0.08267915999144315,0.22039123855996876
1783244280180796700,1.435796630859375,0.02847147672474384,-0.10178367343395948,0.20885504147987813
1783244280190808600,1.44580859375,-0.02611351542174816,-0.08067980286777018,0.20556436590403318
1783244280200819500,1.4558193359375,-0.07988602214157581,-0.08196399745941162,0.21831311711166052
1783244280210831400,1.465831298828125,-0.07513152109086513,-0.05740443348139524,0.18107527334634213
1783244280220843500,1.475843505859375,-0.1391688167154789,-0.05446136576682329,0.13289002870693803
1783244280230854400,1.4858544921875,-0.15857961962819098,-0.06013385844528675,0.1054860350832343
1783244280240866300,1.4958662109375,-0.16053016917407512,-0.06013122809678316,0.08710497707705944
1783244280250878500,1.50587841796875,-0.16944997321069238,-0.01698211446106434,0.05162303706835955
1783244280260889600,1.5158896484375,-0.18237082958221434,0.008977087181806565,0.026167108772508798
1783244280270901500,1.525901611328125,-0.12042962945401668,0.05025485398769378,0.011211933561787008
1783244280280913700,1.53591357421875,-0.03694178342819213,0.07069967612326145,-0.023834793367423116
1783244280290924500,1.545924560546875,0.05040273802578449,0.06492080046087503,-0.05778123090453446
1783244280300936400,1.5559365234375,0.11319792463481426,0.049235447812080384,-0.05309497278444469
1783244280310948600,1.565948486328125,0.16406418851912022,0.06394114177376031,-0.05531370827984065
1783244280320960500,1.57596044921875,0.17110417015850543,0.06714402946829795,-0.04255860039666295
1783244280330971400,1.585971435546875,0.13046177864670752,0.10250468118488788,-0.05026859025210142
1783244280340983600,1.595983642578125,0.04060264402329922,0.08788315837532282,-0.04647000168673694
1783244280350995500,1.605995361328125,-0.08251520160138606,0.08612082487791776,-0.055421844829432666
1783244280361006600,1.616006591796875,-0.1982195560991764,0.12249532981216907,-0.06335932329781353
1783244280371018500,1.6260185546875,-0.2730062092751264,0.12398323028236627,-0.12058313951529562
1783244280381030700,1.63603076171875,-0.2572223646879196,0.11185498559325933,-0.18612861121315508
1783244280391041500,1.64604150390625,-0.15923486866652964,0.1032332877203822,-0.17792594246994703
1783244280401053400,1.656053466796875,-0.0379933383077383,0.053635144075751304,-0.1758046029344201
1783244280411065600,1.666065673828125,0.06204641406834125,0.020137948143482208,-0.14975498306173832
1783244280421077500,1.676077392578125,0.0886135184764862,-0.017096973012387752,-0.08924933216199278
1783244280431088400,1.68608837890625,0.03915770591199398,-0.027694354872405527,-0.007200944354757666
1783244280441100500,1.6961005859375,-0.029370471391081808,0.02578150698840618,0.061681672409176824
1783244280451112400,1.706112548828125,-0.14300971005260943,0.03286035933345556,0.10380856685768812
1783244280461123600,1.71612353515625,-0.25990882729291914,0.01379530111849308,0.11931998771168291
1783244280471135700,1.7261357421875,-0.3094412122249603,0.0004752162963151931,0.11583791774958371
1783244280481147600,1.736147705078125,-0.33586452424824237,0.0053261634588241576,0.1263475847935304
1783244280491158500,1.746158447265625,-0.2621978150129318,-0.023790040910243986,0.13579079164974392
1783244280501170400,1.75617041015625,-0.12815467074811457,-0.04878682726174593,0.14711228653322905
1783244280511182600,1.7661826171875,0.03023439474403858,-0.018666122025251388,0.18938753994386642
1783244280521193500,1.776193359375,0.17290683566629886,0.01747223606556654,0.23298297257497905
1783244280531205400,1.786205322265625,0.2891419360399246,0.03326777109056711,0.2310889755219221
1783244280541217500,1.796217529296875,0.28435587080717084,0.029085809230804442,0.21029135789331047
1783244280551229400,1.8062294921875,0.2530705057054758,0.05019494049400091,0.20410843147467822
1783244280561240300,1.816240234375,0.20251696103215217,0.04556991104185581,0.14431425331253558
1783244280571252500,1.82625244140625,0.09432955803573131,-0.016286241151392458,0.11512739486005157
1783244280581264400,1.836264404296875,0.0040332010388374325,-0.036788346432149406,0.1326711617918685
1783244280591275500,1.846275634765625,-0.0487117161989212,-0.015054945790767668,0.1610289124764502
1783244280601287700,1.85628759765625,-0.052689972180128095,0.02388356441259384,0.15004848611559718
1783244280611299600,1.866299560546875,-0.05213526090681553,0.03318096958994865,0.14540435010418296
1783244280621310500,1.876310546875,-0.06362696125805378,0.005431669659912586,0.11181622448544949
1783244280631322600,1.886322509765625,-0.07476736395359039,-0.00016045125871896743,0.06591244184672831
1783244280641334500,1.89633447265625,-0.11873977667093276,0.022508768928050992,0.03977265947256237
1783244280651346400,1.906346435546875,-0.18712708419859408,0.044940965488553045,0.007031579137220978
1783244280661357600,1.916357666015625,-0.23164368679523467,0.03495820839554071,-0.01842749096378684
1783244280671369500,1.926369384765625,-0.2640986801981926,0.06730506524890661,-0.025367555892653763
1783244280681381600,1.936381591796875,-0.24962942534089086,0.06328384690880776,-0.03335764133110642
1783244280691392800,1.946392822265625,-0.19195757309496403,0.012288988208770751,-0.03772106070499867
1783244280701404700,1.95640478515625,-0.1528589038938284,0.010013736753165721,-0.0340670317094773
1783244280711416600,1.96641650390625,-0.08219371456205844,0.05682371098399162,-0.0039127895295619965
1783244280721427700,1.976427734375,-0.026298808860778806,0.06941343570500612,-0.018664551122672856
1783244280731439600,1.986439697265625,0.05046060569286346,0.06576894172281027,-0.038189664597436786
1783244280741451500,1.996451416015625,0.10418518161773681,0.06667436612993478,-0.03132734107989818
1783244280751462700,2.006462646484375,0.11092939518094062,0.10588467901200055,-0.00973842694312334
1783244280761474600,2.016474609375,0.11301964545845984,0.11390285803377628,0.025432583952881394
1783244280771486500,2.026486572265625,0.09627484688460826,0.046100656917691225,0.035732298040576274
1783244280781497600,2.03649755859375,0.05767886650860309,0.0293751475661993,0.05088986395560205
1783244280791509500,2.046509521484375,0.0020247838258743286,0.062331660750508305,0.05740315483976155
1783244280801521700,2.056521728515625,-0.035656419792771336,0.04641834456473588,0.06375500808451325
1783244280811533600,2.066533447265625,-0.046892099556326866,0.0477402408182621,0.05003047064729035
1783244280821544700,2.076544677734375,-0.023552725023031233,0.06661591394096612,0.0364696358717978
1783244280831556600,2.086556640625,-0.0034960254222154616,0.05855681838691234,0.011503135060705244
1783244280841568800,2.09656884765625,-0.0003127192109823227,0.013408639888465404,0.001739865937270224
1783244280851579600,2.10657958984375,-0.03717033148705959,-0.01853781947046518,0.02471263564787805
1783244280861591600,2.116591552734375,-0.0587765986174345,0.007776771481335163,0.05387560176812112
1783244280871603500,2.126603515625,-0.10653145248293876,0.05119710327386856,0.058637263211980456
1783244280881614600,2.136614501953125,-0.14286357958018778,0.07510404856204986,0.04594813323710113
1783244280891626500,2.14662646484375,-0.12108487849235534,0.061624973785877224,0.043879912128299475
1783244280901638400,2.156638427734375,-0.07895546329319476,0.04662409626990557,0.015301394832506775
1783244280911649800,2.16664990234375,-0.07914192577600479,0.019229893387854097,0.02243245228882879
1783244280921661700,2.17666162109375,-0.03360767056941986,0.04282587303072214,0.058820255096070466
1783244280931673600,2.186673583984375,0.03169277685880661,0.07291442956328392,0.09234247587174177
1783244280941685800,2.196685791015625,0.10083996284306049,0.0548117866396904,0.061943282487429675
1783244280951696600,2.206696533203125,0.1297013156682253,0.019542904859781263,0.02053425398468971
1783244280961708500,2.21670849609375,0.11321604481339453,0.02998684972375631,0.03758055625576526
1783244280971720700,2.226720703125,0.05170622183978557,0.056927171358466144,0.05566741708833724
1783244280981731600,2.236731689453125,-0.005363572859764099,0.06259206525236367,0.04538929377794265
1783244280991743500,2.246743408203125,-0.0360240840613842,0.07229746670871973,0.03148381028324365
1783244281001755600,2.256755615234375,-0.0458230090200901,0.05159253233224153,-0.007160941137932241
1783244281011766800,2.266766845703125,-0.0771586430042982,0.02948153055012226,-0.031842706723511215
1783244281021778700,2.27677880859375,-0.07645546317100524,0.0345841143861413,-0.029359694268740712
1783244281031790600,2.28679052734375,-0.07824877632856368,0.038921851329505444,-0.007563822850398719
1783244281041801700,2.2968017578125,-0.1189256546318531,0.03103343616724014,0.03329524361938238
1783244281051813600,2.306813720703125,-0.10776596271395683,0.05462941581010818,0.07857168813999742
1783244281061825500,2.316825439453125,-0.046208793467283245,0.07462912452667951,0.08180076972171664
1783244281071837700,2.326837646484375,-0.025437808117270467,0.026401392452418803,0.02329495086967945
1783244281081848600,2.3368486328125,0.02934650599360466,-0.02176642612814903,-0.031023462762497362
1783244281091860500,2.346860595703125,0.07064239297807216,0.003841477859020233,-0.07175915858093648
1783244281101872600,2.35687255859375,0.025206921970844266,0.03327157048285007,-0.06531001897417009
1783244281111883500,2.366883544921875,-0.07058277174532412,0.05198299295455217,-0.04034446801114827
1783244281121895400,2.3768955078125,-0.15606559098064898,0.08514701140969991,0.017973938510008156
1783244281131907600,2.386907470703125,-0.16148410889804363,0.09979542222619056,0.024960436396487054
1783244281141918700,2.396918701171875,-0.1399964997112751,0.05655629221946001,0.0016478768048807978
1783244281151930600,2.4069306640625,-0.07249298928081989,0.030910978831350803,-0.041704175524413585
1783244281161942500,2.416942626953125,-0.002114215674996376,0.03707330085337162,-0.07477814107593149
1783244281171953700,2.42695361328125,0.06458207002580166,0.05399287147223949,-0.05616184954177588
1783244281181965600,2.436965576171875,0.04360241036117077,0.09369126013219356,0.008747918068431317
1783244281191977500,2.4469775390625,0.02586684718430042,0.09128945968747139,0.0633807314120233
1783244281201988600,2.456988525390625,0.05837970825433731,0.11858458610922097,0.10451266000643372
1783244281212000500,2.46700048828125,0.03369067267775536,0.0944037923157215,0.10555877152588218
1783244281222012400,2.477012451171875,0.04206336422562599,0.02331979304999113,0.08900452708806841
1783244281232024600,2.487024658203125,0.12421850034296512,0.0014364625439047814,0.07090940988380462
1783244281242035700,2.49703564453125,0.1251601651072502,0.002715396438539028,0.04776099134534597
1783244281252047600,2.507047607421875,0.11023030700087547,-0.013421791630983351,0.041530097599141294
1783244281262059800,2.517059814453125,0.07921323744654656,-0.021691315065324304,0.0739667881604284
1783244281272070700,2.527070556640625,0.012395955714583396,-0.00438186834603548,0.08009575590211898
1783244281282082600,2.53708251953125,-0.08212474097907543,0.0011398176848888397,0.06990859881080687
1783244281292094700,2.5470947265625,-0.1598340036034584,0.020716917075216768,0.05757350643798709
1783244281302105600,2.557105712890625,-0.2477764909505844,0.023929741641879082,0.02630355810113251
1783244281312117500,2.567117431640625,-0.30343583433032034,0.04630465505719185,-0.0018166209679096937
1783244281322129400,2.57712939453125,-0.28802082305550575,0.04090484184026718,-0.028380985429696737
1783244281332140800,2.587140869140625,-0.24010990184545516,0.03369330302625894,-0.0597095686186105
1783244281342152700,2.597152587890625,-0.1316775841772556,0.04968757549375295,-0.07896328127346933
1783244281352164600,2.60716455078125,-0.062485390007495874,0.05780161610543728,-0.07662665501944721
1783244281362175700,2.61717578125,-0.05567629451453685,0.054799511680006976,-0.05067863235771656
1783244281372187600,2.627187744140625,-0.08265081067979335,0.07111351762115956,-0.006002053426392376
1783244281382199600,2.637199462890625,-0.1446755974382162,0.09102584031522273,0.019193360769748688
1783244281392211700,2.647211669921875,-0.1822463264197111,0.10614596029669046,0.036588476478494704
1783244281402222600,2.65722265625,-0.1513338862836361,0.09738806882351636,0.014789865113794803
1783244281412234500,2.667234375,-0.09242927737236023,0.11583528740108012,-0.020363756255991756
1783244281422246700,2.67724658203125,0.020462357792258263,0.11499825205504893,-0.049713805913552636
1783244281432257500,2.687257568359375,0.12413140658140182,0.0983469769835472,-0.03172346425801515
1783244281442269400,2.69726953125,0.1991688196480274,0.08451309742033482,0.0019453253814950583
1783244281452281600,2.707281494140625,0.22297464264929293,0.059041679294407366,0.037155170450545845
1783244281462292700,2.717292724609375,0.19502455945014951,0.056713528607785696,0.11914857666753231
1783244281472304600,2.7273046875,0.14903320812582968,0.059895665775239464,0.17875859390180557
1783244281482316500,2.737316650390625,0.061551324027776716,0.05994535013586282,0.22401344764512032
1783244281492327700,2.74732763671875,-0.02274725385904312,0.04996960730552673,0.20176738477386533
1783244281502339600,2.757339599609375,-0.11501578771173954,0.061472121311724186,0.1391649077253416
1783244281512351500,2.7673515625,-0.16224574092030525,0.0707850163191557,0.09774733058996499
1783244281522362600,2.777362548828125,-0.1758493188589811,0.08747837696671486,0.07635097988322377
1783244281532374500,2.78737451171875,-0.13306523914337157,0.07606587933152914,0.03169230193477124
1783244281542386400,2.797386474609375,-0.09420680843889713,0.05794365492463111,0.03240183844361454
1783244281552397600,2.8073974609375,-0.07839139966964721,0.045156946326792236,0.06160126411672681
1783244281562409700,2.81740966796875,-0.039214404535293575,0.03220335672944784,0.08319682718999684
1783244281572421600,2.827421630859375,-0.01007131215929985,0.04138151944130659,0.10580379579551517
1783244281582433800,2.837433837890625,-0.015966215416789054,0.06634820291548967,0.06770042124204337
1783244281592444700,2.847444580078125,-0.005835866546630859,0.09583031798750162,0.06397661494594067
1783244281602456600,2.85745654296875,-0.008689502412080764,0.10911737732291221,0.06256872090939432
1783244281612468500,2.867468505859375,0.006276011529564857,0.1074944522961974,0.027242629049532115
1783244281622479600,2.877479736328125,0.0240945768147707,0.0791068544626236,0.0023770313296467066
1783244281632491500,2.887491455078125,0.014137830945849418,0.06725596541017294,0.008930106234923005
1783244281642503400,2.89750341796875,0.005921791264414787,0.07269026541858911,0.05472100308369845
1783244281652514800,2.907514892578125,-0.03129121032059193,0.0873565041527152,0.09639295683894306
1783244281662527200,2.91752734375,-0.037888124367594714,0.09486498008668422,0.09637260817065835
1783244281672539400,2.927539306640625,-0.015143208596110343,0.11004939747601747,0.07379281983301043
1783244281682550500,2.937550537109375,-0.0013625205248594284,0.11421060880869627,0.022073190522380173
1783244281692562400,2.9475625,0.02821311804950237,0.10138649080991745,-0.025217662560567258
1783244281702574600,2.95757470703125,0.03960954133272171,0.06099924310296773,-0.03216718943752348
1783244281712585500,2.96758544921875,0.04606324751675129,0.09058511081039905,-0.012302213016524911
1783244281722597400,2.977597412109375,0.012364976054430007,0.10810352410525083,0.03957556599788368
1783244281732609300,2.987609375,-0.0766623839199543,0.09181026869118213,0.06775017866790295
1783244281742621400,2.997621337890625,-0.1032487775504589,0.05581102681010961,0.08690770093929022
1783244281752632300,3.00763232421875,-0.09338204805254936,0.022010171756148337,0.06814659410696476
1783244281762644200,3.017644287109375,-0.08093933058679104,0.01641600501090288,0.07211831074953079
1783244281772656400,3.027656494140625,-0.07032733567953109,0.01486146904528141,0.07698741462323815
1783244281782667500,3.03766748046875,-0.04795476035177707,0.009286299261450767,0.08580299110040068
1783244281792679400,3.047679443359375,-0.013992284995317458,0.037520167838037015,0.12116872085090725
1783244281802691600,3.057691650390625,-0.032682372418045995,0.0334708924472332,0.1194320332514122
1783244281812702500,3.067702392578125,-0.04303834673762321,-0.041351708824932575,0.11829871837254613
1783244281822714400,3.07771435546875,-0.041752398580312725,-0.0388297891318798,0.15634364073704926
1783244281832726500,3.0877265625,-0.04989420398175716,-0.007779109568893909,0.18880104529280214
1783244281842737400,3.0977373046875,-0.03258125013113022,0.027507600128650663,0.19019713929370044
1783244281852749300,3.107749267578125,-0.009346505016088484,0.027336335214972494,0.1609345487238839
1783244281862761500,3.117761474609375,0.0228308404892683,0.04638356551229954,0.1314228787638247
1783244281872772400,3.1277724609375,0.03302665581107139,0.04608662839233875,0.12656941085066645
1783244281882784300,3.1377841796875,0.09135960231423378,0.03076601740270853,0.13430943051818758
1783244281892796200,3.147796142578125,0.1800496931582689,0.012795476426184177,0.13020959398392587
1783244281902807600,3.1578076171875,0.2548690795600414,-0.035309798312187196,0.09412848250567912
1783244281912819500,3.1678193359375,0.2809393403619528,-0.07612053212821483,0.04568677888717502
1783244281922831400,3.177831298828125,0.18829495893418788,-0.061485857576131814,0.05303210014868527
1783244281932842500,3.187842529296875,0.06593757628798484,-0.012699322575330733,0.08691723595261573
1783244281942854400,3.1978544921875,-0.10808160453438759,0.008030161720514297,0.07951181853432208
1783244281952866300,3.2078662109375,-0.23469138392806052,-0.00801087249815464,0.06943268839474767
1783244281962878500,3.21787841796875,-0.2834732427537441,-0.001971300072968006,0.006623655923455953
1783244281972889300,3.227889404296875,-0.29128362424373627,0.0009755670338869094,-0.06248593799676746
1783244281982901200,3.2379013671875,-0.23232874644994733,-0.034788697047531604,-0.11693459041249006
1783244281992913400,3.247913330078125,-0.16506021381914615,-0.07315525258183479,-0.12503226441126317
1783244282002924500,3.257924560546875,-0.14628303263485432,-0.06282119783312082,-0.05993161387145519
1783244282012936400,3.2679365234375,-0.10785948621630669,-0.03193359987735748,-0.0037672435790300366
1783244282022948600,3.277948486328125,-0.11078268018662929,-0.05176233594119548,-0.004543707844242453
1783244282032959500,3.28795947265625,-0.12863339417576788,-0.05285919126719236,-0.008973287789523601
1783244282042971400,3.297971435546875,-0.13634206885695457,-0.027611645025014876,-0.0046462914358824485
1783244282052983300,3.3079833984375,-0.13622457995712756,0.011063245806097983,-0.02143116629179567
1783244282062994400,3.317994384765625,-0.1036842463582754,0.0008282675176858902,-0.05454202978760004
1783244282073006300,3.32800634765625,-0.04806172785758972,-0.00014788403809070586,-0.05468900051023811
1783244282083018200,3.338018310546875,0.03181143480241298,0.031074352699518203,-0.05351776477377861
1783244282093029400,3.348029296875,0.07464519887864589,0.01447889946848154,-0.03101005529165268
1783244282103041500,3.35804150390625,0.11433131257891654,-0.016574118182063103,0.009863551160134374
1783244282113053400,3.368053466796875,0.11531447839736937,0.007352116328477859,0.06727591221965849
1783244282123064300,3.378064208984375,0.08744681278467178,0.03898585647642612,0.10041768231038004
1783244282133076500,3.388076416015625,0.056712067303061484,0.04398936385214328,0.062018137821927666
1783244282143088400,3.39808837890625,0.016387071177363394,0.00916588775217533,0.035369090751372276
1783244282153099300,3.408099365234375,-0.05643325036168098,0.04379062640964985,0.0172539171397686
1783244282163111400,3.418111328125,-0.09090659784972667,0.11024199743866919,0.006782901605777442
1783244282173123300,3.428123291015625,-0.1293693072348833,0.10890724170356988,-0.026754224478080867
1783244282183135200,3.43813525390625,-0.10733341651558875,0.07042056692093611,-0.06875007642544806
1783244282193146400,3.448146484375,-0.04751753797829151,0.05453238517642021,-0.08485986503139138
1783244282203158300,3.458158203125,-0.01702770716845989,0.06992138522714376,-0.057650334533862764
1783244282213170200,3.468170166015625,0.03311082696318626,0.09901713133007288,-0.031531521882489325
1783244282223181600,3.478181640625,0.031140988194942473,0.09235855022370815,0.011143142641894518
1783244282233193500,3.488193359375,0.011748305460810661,0.08601356511116028,0.0022024419477209446
1783244282243205400,3.498205322265625,-0.011382394757866858,0.09555003974139689,0.04113090568110347
1783244282253216500,3.508216552734375,-0.054264674150943756,0.08586626559495926,0.02364591973181814
1783244282263228400,3.518228515625,-0.0681482380747795,0.08548954123705625,-0.005055639421753585
1783244282273240300,3.528240234375,-0.04857493807673454,0.1126622103229165,-0.026000191240385172
1783244282283251200,3.538251220703125,-0.038352819269895554,0.11026537831425666,-0.053273653819598255
1783244282293263400,3.548263427734375,-0.0843476777255535,0.08691898951828479,-0.0579604233963415
1783244282303275300,3.558275146484375,-0.06172726511657237,0.07081131980419159,-0.030884894542023537
1783244282313286400,3.568286376953125,-0.030324411115050316,0.08975158259570598,-0.008103555750288068
1783244282323298600,3.578298583984375,-0.012874094620347023,0.08211860349923372,0.012047069211676717
1783244282333310500,3.588310546875,0.0053869537353515625,0.08532178345471621,0.013941358525678514
1783244282343321300,3.5983212890625,0.014345336216688155,0.06580810468941926,0.024309973131120204
1783244282353333500,3.60833349609375,0.006001286241412163,0.06360036551207304,0.04669518874473869
1783244282363345400,3.618345458984375,0.0008007949888706207,0.05618950473368167,0.060434594957530494
1783244282373356300,3.628356201171875,-0.012141104170680045,0.05072977802306413,0.09115359488073736
1783244282383368400,3.638368408203125,-0.010637129348516464,0.03961801690012216,0.08811349653247744
1783244282393380400,3.64838037109375,0.007847206369042396,0.009412555989623069,0.022363624836318194
1783244282403391500,3.6583916015625,-0.041810266247391696,0.015623393328487872,0.01982175833377987
1783244282413403400,3.6684033203125,-0.07232581602036953,0.03327303178757429,0.037892106422968204
1783244282423415300,3.678415283203125,-0.08732873936295509,0.031055355738103387,0.034235885470360515
1783244282433427500,3.688427490234375,-0.10556991397440432,0.011145371131598948,0.06121449328884482
1783244282443438300,3.698438232421875,-0.14545476511716843,-0.00608545739352703,0.11161058237813412
1783244282453450500,3.708450439453125,-0.1566658949613571,0.01756459052413702,0.14269242426436393
1783244282463462400,3.71846240234375,-0.12471592847108841,0.02740063262283802,0.13873802408277988
1783244282473473300,3.728473388671875,-0.09752280111908912,0.013477028949558734,0.09708550568036735
1783244282483485400,3.7384853515625,-0.09834639246165752,0.03753039697110653,0.059889674425870176
1783244282493497300,3.748497314453125,-0.05701952581703663,0.07322393390387297,0.06686988870203495
1783244282503508200,3.75850830078125,-0.024936872857809066,0.12280658771842717,0.07500953867901117
1783244282513520400,3.768520263671875,0.024554011020064354,0.10296353086829185,0.07159425034280865
1783244282523532300,3.7785322265625,0.11559329533874987,0.06397855117470026,0.07970193427894263
1783244282533543400,3.78854345703125,0.20279636249542235,0.033363924941420556,0.08421981356218457
1783244282543555600,3.7985556640625,0.2686860079884529,0.017492109809815883,0.08163114877585322
1783244282553567500,3.8085673828125,0.27893852193355556,-0.021037235070765017,0.09750796887613833
1783244282563578400,3.818578369140625,0.17451310181915758,-0.035788229478895664,0.12538316020816564
1783244282573590300,3.82859033203125,0.06981178737282752,0.013787994594871997,0.12760558549799025
1783244282583602400,3.8386025390625,-0.06126490830183029,0.04512508988380432,0.10393551770560443
1783244282593613300,3.84861328125,-0.18138064950108526,0.06090805768817663,0.07077818471956998
1783244282603625200,3.858625244140625,-0.28778058455884453,0.0628764351516962,0.04126329988911748
1783244282613637400,3.868637451171875,-0.3255886294275522,0.0797077429652214,0.0029310484832152724
1783244282623648500,3.8786484375,-0.304501417735219,0.077666300265491,-0.0164674429371953
1783244282633660400,3.888660400390625,-0.23960136780142782,0.08383885142058134,-0.05208937593847513
1783244282643672600,3.898672607421875,-0.16544482922255993,0.06369622710198164,-0.06795275203529745
1783244282653683500,3.908683349609375,-0.11499766753315925,0.06535451570302248,-0.0369705711312592
1783244282663695000,3.918695068359375,-0.08645838626921176,0.13972761964201927,-0.019741021247766912
1783244282673707000,3.92870703125,-0.06882569894492625,0.17586831582039594,-0.031119397417642174
1783244282683718100,3.93871826171875,-0.07402209854424,0.15871318287998437,-0.05664842748232186
1783244282693730000,3.94872998046875,-0.017517536512017248,0.15482055935561656,-0.0704313075106591
1783244282703742000,3.958741943359375,0.04859188921153545,0.19972733031362294,-0.056261547056585544
1783244282713753000,3.968753173828125,0.08144435749948024,0.18221622354239225,-0.02875708873309195
1783244282723765200,3.97876513671875,0.08075871332287787,0.1551847164928913,0.03250142636056989
1783244282733777200,3.988777099609375,0.13999240805804727,0.1837698827251792,0.11842501163333653
1783244282743789300,3.998789306640625,0.16158698475062847,0.18600041825622318,0.1714369457768276
1783244282753800200,4.00880029296875,0.14609890823960303,0.10336100575327872,0.138353372146748
1783244282763812000,4.01881201171875,0.11926117019653319,0.04636719889938831,0.1320392570964992
1783244282773824300,4.02882421875,0.07341887195408343,0.05661065275520086,0.14017857827991245
1783244282783835100,4.038835205078125,0.037053427109122274,0.07018792720884084,0.13889058429598808
1783244282793847000,4.048846923828125,0.0051221653193235395,0.06322451793700457,0.09266820069476961
1783244282803859000,4.05885888671875,-0.04395312349498272,0.03936667248755693,0.06001531009953469
1783244282813870000,4.0688701171875,-0.05688859291374683,0.044153614503145214,0.06735548026189207
1783244282823882000,4.078882080078125,-0.04166939647197723,0.09157967480570077,0.11235201186258345
1783244282833894000,4.088893798828125,-0.041352001085877416,0.09680267015099525,0.10401048263795673
1783244282843905300,4.0989052734375,-0.0722656102657318,0.018014087857306002,0.06715922703742981
1783244282853917200,4.108917236328125,-0.045207507470250125,0.0026624972075223923,0.08519267718233167
1783244282863929000,4.11892919921875,-0.07505962489843368,0.03722936819791794,0.12239727626517415
1783244282873940000,4.12893994140625,-0.07338438516259194,0.02797697120606899,0.13973781224247067
1783244282883952000,4.1389521484375,-0.06985971816778183,0.0026961072161793705,0.09719276544712484
1783244282893964000,4.148964111328125,-0.13327099084854124,0.0036380642414093017,0.05353635987639427
1783244282903975000,4.158974853515625,-0.16028817711174487,0.0001347322955727577,0.024779344208538532
1783244282913987000,4.168987060546875,-0.22257190706729887,0.0379082903727889,0.023090441273525355
1783244282923999000,4.1789990234375,-0.23313012596070765,0.05740837900415063,0.026697964246198535
1783244282934010000,4.189010009765625,-0.20354338147044182,0.059083326479047536,-0.010866919516399502
1783244282944022300,4.199022216796875,-0.12760346660614014,0.05638780378475785,-0.039022717888094485
1783244282954034200,4.2090341796875,-0.05357143118977546,0.034817630881071086,-0.07141710367761551
1783244282964045000,4.219045166015625,0.04060556663274765,-0.009022679889202117,-0.0668607920801267
1783244282974057200,4.22905712890625,0.09467734856009483,0.011877777059376239,-0.03692165395561606
1783244282984069000,4.239069091796875,0.053530514657497405,0.04728431374430656,0.043167014618590474
1783244282994080000,4.249080078125,0.0405249026119709,0.03477466852217913,0.08474128015302121
1783244283004092000,4.259091796875,-0.018122516667842863,0.012410714892297982,0.11127784329243004
1783244283014104000,4.26910400390625,-0.10456862797737121,-0.013618044855445623,0.10378240950312465
1783244283024115200,4.279115234375,-0.1792442219942808,-0.01882978815436363,0.11626523978356271
1783244283034127000,4.289127197265625,-0.19979367354810237,-0.012221768191456794,0.1137774415558204
1783244283044139300,4.29913916015625,-0.17358312749266624,0.009672522100061177,0.09880911460258066
1783244283054150100,4.309150146484375,-0.07883446726202964,0.04156096766144037,0.09194551244340836
1783244283064162000,4.319162109375,-0.002954173630475998,0.02231660735681653,0.05599146141093224
1783244283074174200,4.32917431640625,0.06118833593428134,0.0022118308305740355,-0.0010575096962973476
1783244283084185000,4.33918505859375,0.06744914989471436,0.02562353994771838,-0.008448825524002314
1783244283094197000,4.349197021484375,0.014992401948571205,0.07461451147943735,0.03052048167642206
1783244283104209200,4.359209228515625,-0.052989831909537315,0.04410992149189114,0.06438497655112296
1783244283114220000,4.369219970703125,-0.11733341700434684,0.03208338361158967,0.070380673301965
1783244283124232000,4.37923193359375,-0.16550854210853574,0.07103446103557944,0.07487590236198156
1783244283134244000,4.389244140625,-0.19430910465717313,0.06371478567197919,0.05265935784615576
1783244283144256000,4.399256103515625,-0.19680442860424519,0.03816796422228217,0.0393617040514946
1783244283154267100,4.40926708984375,-0.16475743148028849,0.04299494598731398,0.012693988813087344
1783244283164279000,4.419279052734375,-0.1524801337093115,0.09998685314506292,0.010209916912391781
1783244283174291200,4.429291259765625,-0.0941255598962307,0.15035364307463167,0.007470847337320447
1783244283184302000,4.439302001953125,-0.0036976854741573332,0.18022329615950583,0.014088256183080374
1783244283194314000,4.44931396484375,0.0865220991551876,0.16008885514736174,0.011504852093756198
1783244283204326100,4.459326171875,0.18327800755500792,0.1141021799981594,0.008055917216278612
1783244283214337000,4.4693369140625,0.29657413186728954,0.1111108892276883,0.022697423367947337
1783244283224349000,4.479348876953125,0.3394219244688749,0.1243459261149168,0.06443827764093875
1783244283234361000,4.489361083984375,0.3426554995626211,0.09199088595509529,0.04284012075178325
1783244283244372200,4.499372314453125,0.2840326302021742,0.037219139064848424,0.018199600492045283
1783244283254384000,4.509384033203125,0.15771452723145485,0.033221301600337025,0.0296580196281895
1783244283264396300,4.519396240234375,-0.011509820529818535,0.054228726054728026,0.04868259970229119
1783244283274407200,4.5294072265625,-0.13526245692670344,0.06374576533213257,0.034708800211735065
1783244283284419000,4.539419189453125,-0.2525853525370359,0.047139206185191865,-0.016333806620165706
1783244283294431200,4.54943115234375,-0.36047932554483414,0.04046805785819888,-0.04190514145661145
1783244283304442000,4.559442138671875,-0.3930605756759643,0.012278905206173658,-0.05652275527603924
1783244283314454000,4.5694541015625,-0.3499532553553581,-0.0031562720738351345,-0.0672119070727378
1783244283324466000,4.5794658203125,-0.2912731028497219,0.01443622937053442,-0.059753955749608574
1783244283334477300,4.589477294921875,-0.21641221539378164,0.035494507229328155,-0.05482895697019994
1783244283344489200,4.5994892578125,-0.15477788925766944,0.013919804280996323,-0.036070991943031545
1783244283354501000,4.609501220703125,-0.09398410559892655,-0.00947919148504734,-0.013141696047969161
1783244283364512300,4.61951220703125,-0.0392044676631689,-0.029749533836543558,0.03366791285667568
1783244283374524200,4.629524169921875,-0.025396891584992407,-0.01657557948678732,0.0608032456068322
1783244283384536000,4.6395361328125,-0.046129298490285874,-0.012735270671546459,0.07680292490180582
1783244283394547000,4.649546875,-0.06398001247942448,0.0029299159720540045,0.07949534232355654
1783244283404559000,4.65955908203125,-0.059388008514046665,0.03637070554196834,0.10554956530611961
1783244283414571000,4.669571044921875,-0.024635844084620474,0.02458119128793478,0.0727658148728311
1783244283424582000,4.679581787109375,0.07049100180864333,0.029452596716582773,0.07867262776382267
1783244283434594000,4.689593994140625,0.1545879196435213,0.03636807519346475,0.10354611652921884
1783244283444606000,4.69960595703125,0.187144035333395,0.023790625432133672,0.08986399346161633
1783244283454617000,4.7096171875,0.19628595768809318,0.002247194404900074,0.10815309886801987
1783244283464629200,4.719629150390625,0.10971826582551002,-0.01721241608560085,0.1326483654381707
1783244283474641200,4.72964111328125,0.09842179578542709,0.0019470424145460127,0.1656201492568478
1783244283484652000,4.739652099609375,0.044804187366366384,0.03685293610095978,0.17169081094004213
1783244283494664200,4.749664306640625,-0.05967267067432403,0.02696399477124214,0.13268942810092121
1783244283504676000,4.759676025390625,-0.11405775633454322,0.03410831356793642,0.06564144288562238
1783244283514687000,4.76968701171875,-0.15253274067938327,0.07445552152544259,0.022301994309574365
1783244283524699100,4.77969921875,-0.16147066489458084,0.09557254383414983,-0.013085399283468722
1783244283534711000,4.7897109375,-0.12508008560836315,0.08776537721455097,-0.0405525578038767
1783244283544722200,4.79972216796875,-0.09377835389375686,0.05200111313313246,-0.03844626970700919
1783244283554734000,4.809734130859375,-0.036986791613698,0.018706746296584604,-0.02887665999215096
1783244283564746200,4.819746337890625,0.014730536141991614,0.034226094728708266,0.010219269262626767
1783244283574757000,4.829757080078125,0.015240239229798317,0.05672843391597271,0.03428527757003903
1783244283584769000,4.83976904296875,-0.028225977531075475,0.09931640653759241,0.023149295321293173
1783244283594781200,4.84978125,-0.03280161488354206,0.16197715311199426,0.023831980355828997
1783244283604792000,4.8597919921875,-0.04388239634633064,0.15390344451069832,-0.009074154348112642
1783244283614804000,4.869803955078125,-0.034765608432888985,0.07908493489176034,-0.07564630221258849
1783244283624816000,4.879816162109375,-0.03774199389517307,0.044566286957263945,-0.09479728514533489
1783244283634827300,4.8898271484375,-0.004054828348755837,0.05716740985512733,-0.05690492299403995
1783244283644839200,4.899839111328125,0.0729103379100561,0.07129939558207989,0.006167509653791785
1783244283654850600,4.9098505859375,0.10587737248837947,0.050934945206344125,0.04315579910483211
1783244283664861400,4.919861328125,0.11964753916561603,0.08461948040425776,0.08982084843963384
1783244283674873600,4.92987353515625,0.09784896433353424,0.05537468121945858,0.10981445620898157
1783244283684885500,4.939885498046875,0.032329905718564984,-0.018678104723989963,0.1089728542856872
1783244283694896400,4.949896484375,-0.022565467551350592,-0.043186815297603605,0.15440887328218666
1783244283704908300,4.959908203125,-0.06885375599563122,-0.03034545390307903,0.17586900994013993
1783244283714920400,4.96992041015625,-0.07044073292613029,-0.015154899033904075,0.15125618140492586
1783244283724931600,4.979931640625,-0.05524608640372753,-0.03259089474231004,0.10896149264145642
1783244283734943500,4.989943603515625,0.012220014625787734,-0.061879971460252994,0.06855959535464644
1783244283744955600,4.99995556640625,0.043916883137822146,-0.04302241851612925,0.08599774648752063
1783244283754966500,5.009966552734375,0.007692892590165138,-0.012045827102661132,0.0751178213590756
1783244283764978400,5.019978515625,-0.05199965182840824,-0.04342413118481636,0.057818165381439024
1783244283774990600,5.029990478515625,-0.09810030874609947,-0.07388400524780153,0.03259458453673869
1783244283785001500,5.04000146484375,-0.08298398815691471,-0.06341273398548364,0.02148106984812766
1783244283795013400,5.050013427734375,-0.07756313215196133,-0.02138721755221486,0.022636450428329406
1783244283805025500,5.060025634765625,-0.04268763360381126,0.0011699205622076987,-0.001264138184301555
1783244283815036400,5.070036376953125,-0.009006313276290893,-0.02550195939466357,-0.0818491389080882
1783244283825048300,5.08004833984375,-0.03524316281676292,-0.03981193203702569,-0.13694946016557513
1783244283835060500,5.090060546875,-0.048185646498203276,-0.006423018784821033,-0.12050327921211719
1783244283845071600,5.100071533203125,-0.10703414130806922,0.03444251395836472,-0.0821947740079835
1783244283855083500,5.11008349609375,-0.14060732508599758,0.02035217541605234,-0.04014463459011167
1783244283865095400,5.120095458984375,-0.14869360090792177,0.00656125821173191,0.017915559386275707
1783244283875106600,5.1301064453125,-0.16143033288419245,0.003743132051080465,0.054865124262124296
1783244283885118500,5.140118408203125,-0.14070844737291335,0.04687573294341564,0.04117595039922744
1783244283895130400,5.15013037109375,-0.05821954925656318,0.07321765029355883,-0.009648520169965922
1783244283905141200,5.160141357421875,0.010589198553562164,0.06093246147707104,-0.08012501852922141
1783244283915153400,5.1701533203125,0.04382160606980324,0.03160553696677088,-0.133056727043353
1783244283925165300,5.180165283203125,0.016080197185277936,0.037607407730072734,-0.09888079159930348
1783244283935176400,5.190176513671875,-0.008922726646065712,0.07571399715393781,-0.03936970469485968
1783244283945188600,5.200188720703125,-0.028576690664887428,0.09649214289709925,-0.010856325057148933
1783244283955200500,5.210200439453125,-0.017667174115777014,0.08844663747698069,-0.009283522782474756
1783244283965211400,5.22021142578125,0.05845920323133468,0.07417056710422039,0.004058152817003429
1783244283975223600,5.2302236328125,0.16517653367519378,0.061356970499455925,0.023761618533357978
1783244283985235500,5.2402353515625,0.23357903877198694,0.03449073701426387,0.006239077052660286
1783244283995246300,5.250246337890625,0.19365093300938604,0.03161766579598188,0.06067600249797105
1783244284005258500,5.260258544921875,0.11905308040380477,0.04634074928387999,0.11548285723421722
1783244284015270400,5.2702705078125,0.020095278045535087,0.041531887697428466,0.14311737167816607
1783244284025281500,5.280281494140625,-0.08506371704041957,0.05353431404978037,0.1577251582233235
1783244284035293700,5.290293701171875,-0.14579904851019382,0.09227394068017601,0.12972407548930495
1783244284045305600,5.3003056640625,-0.18644494715332985,0.12258286196514963,0.05326072127278894
1783244284055316500,5.31031640625,-0.22960195183455942,0.05883797341585159,-0.012244199218973517
1783244284065328400,5.320328369140625,-0.23363456835150717,0.01956467830017209,-0.0538889361737296
1783244284075340500,5.330340576171875,-0.20984569648504256,0.023691110580414534,-0.049782231507264074
1783244284085351400,5.340351318359375,-0.1842822161614895,0.020376871465891597,0.002760039297863841
1783244284095363300,5.35036328125,-0.17194062098264692,0.0041112347111105915,0.03943140828683972
1783244284105375500,5.36037548828125,-0.20846797839105127,-0.015529723695665597,0.08534830613546072
1783244284115386400,5.370386474609375,-0.23598902252316473,0.01724091152772307,0.11033767636548727
1783244284125398300,5.380398193359375,-0.2484779172182083,0.08007920662611723,0.11189787488691508
1783244284135410400,5.390410400390625,-0.16636252858936787,0.11310586243718862,0.11875870056711137
1783244284145421600,5.400421630859375,-0.07016951476931571,0.1187988133817911,0.10790475013013928
1783244284155433500,5.41043359375,0.03982055373489857,0.1218609774313867,0.07761131867524236
1783244284165445600,5.420445556640625,0.18655366822481154,0.08610635796114802,0.062021316159702834
1783244284175456500,5.43045654296875,0.34041502715945243,0.08838745463564991,0.06733915018159896
1783244284185468400,5.440468505859375,0.38484804312586784,0.10676803771778941,0.10052494207713752
1783244284195480600,5.45048046875,0.3047007396996021,0.10458689428642391,0.12985029568485915
1783244284205491500,5.460491455078125,0.22763503567576407,0.09630831076279282,0.11891118771508336
1783244284215503400,5.47050341796875,0.06069967563450336,0.08723916138336062,0.08767583576757461
1783244284225515300,5.480515380859375,-0.11235270598232745,0.12910364203602076,0.05470993370041251
1783244284235526700,5.490526611328125,-0.19071955573260782,0.10678221237361431,-0.000812448894046247
1783244284245538600,5.50053857421875,-0.21761983761787412,0.0850767226524651,-0.06519227434601635
1783244284255550500,5.510550537109375,-0.20996026277542112,0.0973633727736771,-0.1460702666670084
1783244284265561600,5.5205615234375,-0.16353052003383636,0.10725801319181918,-0.18372582438774407
1783244284275573500,5.530573486328125,-0.12068214291036128,0.09201923526674509,-0.14465747725963593
1783244284285585400,5.54058544921875,-0.0860994898289442,0.11342340395376085,-0.07055672398861497
1783244284295596300,5.55059619140625,-0.03148468706607818,0.08111103389188647,-0.00867846956141293
1783244284305608400,5.5606083984375,-0.00041793315112590785,0.05003916541039943,0.03519490322824567
1783244284315620400,5.570620361328125,-0.03707739250659942,0.059428194393962616,0.06122548960689455
1783244284325631500,5.580631591796875,-0.008015548673272132,0.05687675634548068,0.0333905572200194
1783244284335643600,5.5906435546875,-0.018971242451667786,0.06222644681036472,0.02892491958066821
1783244284345655600,5.600655517578125,-0.090064886328578,0.06884644947201013,0.04530475729964673
1783244284355666400,5.61066650390625,-0.10596505077183246,0.0520068122215569,0.06775343007091432
1783244284365678600,5.6206787109375,-0.07658464250862598,0.014377338790148495,0.027752660930901764
1783244284375690500,5.6306904296875,-0.15103578011989593,0.025428601897507903,-0.008383286007121205
1783244284385701400,5.640701416015625,-0.16490706908404826,0.033138884013891215,0.016073767444491384
1783244284395713500,5.650713623046875,-0.10219371553957461,-0.0011069383285939693,0.037275728090293704
1783244284405725400,5.660725341796875,-0.07906535340845584,0.012686755354702471,0.061026934827491636
1783244284415736300,5.670736328125,-0.0922340470612049,0.006486731670796871,0.08216123706456273
1783244284425748500,5.68074853515625,-0.08150339421033859,0.020541560508310793,0.0941026904772967
1783244284435760400,5.690760498046875,-0.03437222520112991,0.04299260789975524,0.0919572394138202
1783244284445771500,5.700771484375,0.001986205381155014,0.005383884995430708,0.1021085580067709
1783244284455783400,5.710783447265625,0.04753799624443054,-0.012255670461058616,0.11158497301284223
1783244284465795600,5.720795654296875,0.026574118670821188,0.03531403609588742,0.1281115622587502
1783244284475806500,5.730806396484375,0.004619476494193077,0.0809364079773426,0.1353201419306919
1783244284485818400,5.740818359375,-0.031472996628284455,0.05811112044602632,0.12452778548784553
1783244284495830500,5.75083056640625,-0.04447977771759033,-0.00037847792357206345,0.08021591168306767
1783244284505841400,5.76084130859375,-0.01229424890577793,0.017282704842835665,0.049866767985559994
1783244284515853300,5.770853271484375,0.01805471212863922,0.08033931886702775,0.04859481182098389
1783244284525865500,5.780865478515625,0.013501286607980728,0.09567585807815193,0.05211407198831439
1783244284535876600,5.790876708984375,-0.009092822515964508,0.09527677575796842,0.04672193062119186
1783244284545888500,5.800888427734375,-0.012827332869172096,0.08088672361671924,0.04351612031720578
1783244284555900700,5.810900634765625,-0.0106225163012743,0.11560513190701603,0.037817579882033166
1783244284565911600,5.82091162109375,-0.036596915513277053,0.07880056499242782,0.012256949102692306
1783244284575923500,5.83092333984375,-0.082914430052042,0.05434241556227207,-0.035957631229050456
1783244284585935400,5.840935302734375,-0.11814356434345245,0.0939879049912095,-0.031641010138951244
1783244284595946500,5.850946533203125,-0.17876608308851719,0.08764905735850334,-0.004789718494564294
1783244284605958400,5.86095849609375,-0.17319325139224528,0.05390621610209345,0.000575607930868864
1783244284615969500,5.870969482421875,-0.1126513966679573,0.07485080445334315,0.04376742819715291
1783244284625981700,5.880981689453125,-0.04549450771808624,0.10494330650866031,0.06345675579030066
1783244284635993600,5.89099365234375,0.02716214769184589,0.08855287433043121,0.041601847661100325
1783244284646004500,5.90100439453125,-0.01521568931043148,0.04395093153789639,0.006395400125533342
1783244284656017000,5.911016845703125,-0.026899697363376617,0.028760522799193857,0.026024083572626113
1783244284666029000,5.921029052734375,-0.03918576296269893,0.09971884985864161,0.08067337312698364
1783244284676040000,5.9310400390625,-0.02200257297158241,0.1174769171282649,0.11812723426315933
1783244284686051800,5.9410517578125,0.049313189223408695,0.09838102538362145,0.07762578559201211
1783244284696064000,5.95106396484375,0.11017010124623774,0.058456719013303515,0.03822806037906557
1783244284706075000,5.961074951171875,0.15888941622972488,0.05307093432173133,0.02728796602860093
1783244284716086800,5.971086669921875,0.16439385886490343,0.04346080993339419,0.06732179718799888
1783244284726098700,5.9810986328125,0.17142156554460525,0.020157383496314286,0.10042769224774092
1783244284736110000,5.991110107421875,0.12184767955839633,0.0013444003462791442,0.1417309588210657
1783244284746122000,6.0011220703125,0.02441080315709114,-0.035922815643996,0.1543927623976022
1783244284756134000,6.0111337890625,-0.06124094290435314,-0.0346320451810956,0.14185224711317568
1783244284766145000,6.02114501953125,-0.13926292473971844,0.04001271530613303,0.10655384697783737
1783244284776157000,6.031156982421875,-0.18556290362179279,0.060672349236160515,0.04906586339883506
1783244284786168800,6.0411689453125,-0.19133681084811685,0.05453194678500294,-0.0002250043949112296
1783244284796179700,6.0511796875,-0.21236147869825361,0.0259855051279068,-0.03868011499550193
1783244284806191900,6.06119189453125,-0.19149404723644256,-0.004946662621945142,-0.024537023352645335
1783244284816203800,6.071203857421875,-0.1602946068525314,0.031752836482971905,0.009751176826842128
1783244284826215000,6.08121484375,-0.14283902966082096,0.06120747902616858,0.021143435391597448
1783244284836226800,6.091226806640625,-0.0774818836092949,0.08556304486468434,0.05624529004152864
1783244284846239000,6.101239013671875,-0.04491115487217903,0.03490574755594134,0.049556934851408004
1783244284856249900,6.111249755859375,-0.006034019467234611,0.0010721592761576174,-0.005136632236093282
1783244284866262000,6.121261962890625,-0.0013163432955741882,-0.010455343040823935,0.005189239206165075
1783244284876274000,6.13127392578125,-0.039221418797969816,0.04366685389950871,0.060732226197235284
1783244284886284800,6.141284912109375,-0.06389233419597148,0.11632847774550319,0.08549140440057963
1783244284896297000,6.151296875,-0.093009707608819,0.1226791619464755,0.06770275932960212
1783244284906308900,6.161308837890625,-0.04235854777991772,0.0930319194406271,0.023735095852613446
1783244284916319700,6.17131982421875,0.061733694857358926,0.05134469505101442,0.02983224368393421
1783244284926332000,6.181331787109375,0.1417471427708864,0.008406593817472458,0.03147942636907101
1783244284936343800,6.19134375,0.20765900009572505,0.012619681467860936,0.10451719005107879
1783244284946355000,6.20135498046875,0.2182569664776325,0.004109188884496688,0.17166081766057759
1783244284956366800,6.211366943359375,0.15435469540953636,0.016618103454262016,0.16095120759773998
1783244284966379000,6.22137890625,0.044880759733915324,0.011363836187869309,0.16403182061947882
1783244284976390000,6.231389892578125,-0.03251519915759563,-0.008127923006564378,0.1013686263596639
1783244284986401800,6.24140185546875,-0.06389817941486835,-0.002343348255753517,0.08614102741573006
1783244284996413000,6.251412841796875,-0.08822948759496212,-0.011845482224971055,0.05773921839371323
1783244285006424800,6.2614248046875,-0.17904606907367704,-0.014117518810182809,-0.016320362616702912
1783244285016436700,6.271436767578125,-0.2329851645320654,-0.015218758050352334,-0.053211329173110423
1783244285026448000,6.28144775390625,-0.17536942638754843,-0.005586714091151953,-0.052140265875495966
1783244285036460000,6.2914599609375,-0.15206278508007526,0.040740152797847984,-0.0032411738783121105
1783244285046472000,6.301471923828125,-0.1621165615826845,0.09895531814023852,0.03135810154434293
1783244285056482800,6.31148291015625,-0.04759995556473732,0.03883022752329707,0.012749153066426515
1783244285066495000,6.321494873046875,0.036159693139791484,0.032307693886756896,0.0070254781899973745
1783244285076507000,6.3315068359375,-0.028681904605031013,0.02564136786535382,0.050516573663800954
1783244285086517800,6.341517822265625,-0.01684533633887768,-0.009872136325389146,0.0659304524274543
1783244285096530000,6.351530029296875,-0.05462181702554226,0.0010195523060858248,0.07341419577896595
1783244285106541800,6.361541748046875,-0.166181326803565,0.18175328220576048,0.09988697296716273
1783244285116552700,6.371552734375,-0.24264146614968776,0.21746990775316952,0.017974011575244368
