time,seconds_elapsed,z,y,x
1783244250702403800,0.06240380859375,-0.01294461265206337,-0.06870243698358536,-0.030117034912109375
1783244250712416000,0.072416015625,0.004400022327899933,-0.06605658680200577,-0.057920169085264206
1783244250722427000,0.082427001953125,0.013948812149465084,-0.049458663910627365,-0.05912479758262634
1783244250732437800,0.092437744140625,0.016745131462812424,-0.024685407057404518,-0.03589058294892311
1783244250742450000,0.102449951171875,0.011185731738805771,-0.013474900275468826,0.004156861454248428
1783244250752461000,0.1124609375,-0.0007862425409257412,0.0024486733600497246,0.04549844190478325
1783244250762472000,0.122471923828125,-0.005747453775256872,0.024916497990489006,0.07624591886997223
1783244250772483800,0.13248388671875,0.0005658362060785294,0.0385952927172184,0.09447045624256134
1783244250782494700,0.14249462890625,0.0026224846951663494,0.044095978140830994,0.09506811946630478
1783244250792507000,0.1525068359375,0.0023399232886731625,0.04337000101804733,0.0746278241276741
1783244250802518000,0.16251806640625,-0.007539097685366869,0.042134255170822144,0.04217648506164551
1783244250812529000,0.17252880859375,-0.0072125936858356,0.037696097046136856,0.018226945772767067
1783244250822541000,0.182541015625,0.002178632654249668,0.018988683819770813,0.006600456777960062
1783244250832552000,0.192552001953125,0.01292741671204567,0.0032320914324373007,0.0070241657085716724
1783244250842563800,0.202563720703125,0.017646923661231995,0.0010986390989273787,0.015686368569731712
1783244250852574700,0.21257470703125,0.014124628156423569,0.019634239375591278,0.03035239689052105
1783244250862585900,0.2225859375,0.0037953397259116173,0.04141126945614815,0.03956208378076553
1783244250872598000,0.232597900390625,-0.0032583088614046574,0.06109895184636116,0.04599867761135101
1783244250882609000,0.24260888671875,-0.003102512564510107,0.050001539289951324,0.053951576352119446
1783244250892619800,0.252619873046875,0.002427541185170412,0.03213705122470856,0.04838050901889801
1783244250902632000,0.2626318359375,0.0014691401738673449,0.019082149490714073,0.034960370510816574
1783244250912643000,0.27264306640625,-0.0050039393827319145,0.0024762756656855345,0.01700720377266407
1783244250922655000,0.282655029296875,-0.007690487429499626,-0.006492091342806816,-0.0011215240228921175
1783244250932665900,0.292665771484375,-0.013969955034554005,0.004411689005792141,-0.012336095795035362
1783244250942676700,0.3026767578125,-0.014904482290148735,0.008965633809566498,-0.015597689896821976
1783244250952689000,0.31268896484375,-0.018506938591599464,0.010609602555632591,-0.008374664932489395
1783244250962699800,0.32269970703125,-0.0262489914894104,0.014234466478228569,0.0023993407376110554
1783244250972711700,0.332711669921875,-0.03254896402359009,0.008411198854446411,0.019725866615772247
1783244250982723000,0.34272314453125,-0.03275635093450546,-0.0011347206309437752,0.03511367738246918
1783244250992734000,0.35273388671875,-0.0313882902264595,-0.006436008960008621,0.04109620302915573
1783244251002745900,0.362745849609375,-0.032007329165935516,0.004750912543386221,0.03711923211812973
1783244251012756700,0.3727568359375,-0.028694622218608856,0.018430771306157112,0.028910573571920395
1783244251022767900,0.382767822265625,-0.015175159089267254,0.026376688852906227,0.011197656393051147
1783244251032780000,0.392780029296875,-0.0061523690819740295,0.035036489367485046,-0.010707375593483448
1783244251042791000,0.402791015625,-0.0002803876996040344,0.041189927607774734,-0.024480201303958893
1783244251052802800,0.412802734375,0.009843086823821068,0.019348276779055595,-0.028891462832689285
1783244251062814000,0.42281396484375,0.01990681141614914,-0.0024664229713380337,-0.025961970910429955
1783244251072824800,0.432824951171875,0.02232496067881584,-0.010181601159274578,-0.022242069244384766
1783244251082837000,0.4428369140625,0.01798928529024124,-0.009800329804420471,-0.018798276782035828
1783244251092847900,0.452847900390625,0.01250983215868473,-0.00731267174705863,-0.01098775863647461
1783244251102860000,0.462860107421875,0.012163355946540833,-0.002957361051812768,0.0002639978192746639
1783244251112871000,0.472870849609375,0.005400524474680424,0.012648762203752995,0.001058685127645731
1783244251122881800,0.4828818359375,-0.008539308793842793,0.030844207853078842,-0.004694119095802307
1783244251132893700,0.492893798828125,-0.012750566005706787,0.03268258646130562,-0.005747665651142597
1783244251142905000,0.502905029296875,-0.005858498625457287,0.012322076596319675,0.004931308329105377
1783244251152916000,0.512916015625,0.008322034031152725,-0.017858995124697685,0.017176255583763123
1783244251162927900,0.522927978515625,0.013308657333254814,-0.03105151280760765,0.02492862567305565
1783244251172938800,0.532938720703125,0.0024355039931833744,-0.03392799198627472,0.02835504710674286
1783244251182951000,0.542950927734375,-0.013212551362812519,-0.04369671642780304,0.037231992930173874
1783244251192962000,0.552962158203125,-0.021480601280927658,-0.04909893870353699,0.05485253036022186
1783244251202973000,0.562972900390625,-0.017694266512989998,-0.036440685391426086,0.07275474071502686
1783244251212984800,0.57298486328125,-0.0061020576395094395,-0.010085510089993477,0.0779590904712677
1783244251222996000,0.582995849609375,-0.004376982804387808,0.001795133575797081,0.07104747742414474
1783244251233007900,0.5930078125,-0.0032976032234728336,0.005873498506844044,0.05195474624633789
1783244251243018800,0.603018798828125,-0.0007385001517832279,0.009767727926373482,0.027407020330429077
1783244251253030000,0.61302978515625,-0.003123094793409109,0.018858695402741432,-0.003346630372107029
1783244251263042000,0.6230419921875,-0.0013569090515375137,0.02115188166499138,-0.02450919710099697
1783244251273053000,0.633052978515625,0.004515361040830612,0.016617583110928535,-0.034347180277109146
1783244251283063800,0.643063720703125,0.01858428493142128,0.01065577007830143,-0.03377621993422508
1783244251293075700,0.65307568359375,0.029511500149965286,0.011096523143351078,-0.030437679961323738
1783244251303087000,0.663087158203125,0.03882283344864845,0.0015432150103151798,-0.02478867769241333
1783244251313099000,0.67309912109375,0.038826026022434235,-0.00944951456040144,-0.01817338541150093
1783244251323110000,0.68310986328125,0.03290194272994995,-0.009945914149284363,-0.013636412099003792
1783244251333120800,0.693120849609375,0.021839970722794533,0.002867086324840784,-0.010122904554009438
1783244251343133000,0.7031328125,0.014077491126954556,0.021883787587285042,-0.009470483288168907
1783244251353143800,0.713143798828125,0.009063025005161762,0.03263283893465996,-0.012951767072081566
1783244251363156000,0.723156005859375,0.008455820381641388,0.02478056401014328,-0.011260989122092724
1783244251373166800,0.733166748046875,0.011457202956080437,0.010370464064180851,-0.009371742606163025
1783244251383178000,0.743177978515625,0.015447611920535564,-0.012671096250414848,-0.005837959703058004
1783244251393190000,0.75318994140625,0.012194294482469559,-0.026606352999806404,0.0022034551948308945
1783244251403200800,0.76320068359375,0.0062751779332757,-0.021952178329229355,0.010651454329490662
1783244251413212000,0.7732119140625,-0.0027811676263809204,-0.00947527028620243,0.017038512974977493
1783244251423224000,0.78322412109375,-0.01204676553606987,0.0062007843516767025,0.020612172782421112
1783244251433235000,0.79323486328125,-0.01896006613969803,0.01630774699151516,0.021163981407880783
1783244251443246800,0.803246826171875,-0.02299143746495247,0.015195328742265701,0.02200384810566902
1783244251453257700,0.8132578125,-0.017493076622486115,0.0066460492089390755,0.021310627460479736
1783244251463269000,0.82326904296875,-0.0074021643958985806,-0.004826205782592297,0.01853804662823677
1783244251473281000,0.833281005859375,0.0075006186962127686,-0.010533892549574375,0.014978465624153614
1783244251483292000,0.8432919921875,0.011510539799928665,-0.0120359156280756,0.010161605663597584
1783244251493303800,0.8533037109375,0.008675072342157364,-0.005243523512035608,0.004737545736134052
1783244251503315000,0.86331494140625,0.003879469819366932,0.007679371163249016,0.0008304798975586891
1783244251513325800,0.873325927734375,0.0005196258425712585,0.016085106879472733,-0.007390165701508522
1783244251523337700,0.883337646484375,0.002740049036219716,0.011318597011268139,-0.004627841990441084
1783244251533348900,0.893348876953125,0.010473868809640408,-0.0035149434115737677,0.0018641459755599499
1783244251543361000,0.903361083984375,0.017937742173671722,-0.014332272112369537,0.0078459233045578
1783244251553372000,0.913371826171875,0.02134738862514496,-0.017345905303955078,0.012689946219325066
1783244251563382800,0.9233828125,0.015888705849647522,-0.015521906316280365,0.016970446333289146
1783244251573394700,0.933394775390625,0.004948973655700684,-0.005865285638719797,0.02101658657193184
1783244251583406000,0.943406005859375,-0.007145312614738941,0.007707362063229084,0.023553816601634026
1783244251593417000,0.9534169921875,-0.016304191201925278,0.01324673742055893,0.026444945484399796
1783244251603428900,0.963428955078125,-0.019709017127752304,-0.0048810504376888275,0.035167183727025986
1783244251613439700,0.973439697265625,-0.023130647838115692,-0.03493482619524002,0.04772185534238815
1783244251623452000,0.983451904296875,-0.020490217953920364,-0.050960343331098557,0.061264313757419586
1783244251633462000,0.9934619140625,-0.022777609527111053,-0.03496886044740677,0.06551205366849899
1783244251643473200,1.00347314453125,-0.023532379418611526,0.0019811957608908415,0.058556701987981796
1783244251653485000,1.013485107421875,-0.018534425646066666,0.03061630204319954,0.04479081928730011
1783244251663496000,1.023495849609375,-0.00996775645762682,0.041116707026958466,0.026478413492441177
1783244251673508000,1.033508056640625,-0.006047316826879978,0.04047994688153267,-0.0003388207405805588
1783244251683519200,1.043519287109375,-0.00871021207422018,0.045576971024274826,-0.03360463306307793
1783244251693530000,1.053530029296875,0.0001336133573204279,0.03922932595014572,-0.06067406386137009
1783244251703542000,1.0635419921875,0.020658452063798904,0.0010110556613653898,-0.0649595558643341
1783244251713553000,1.073552978515625,0.04263592138886452,-0.03242919221520424,-0.048687905073165894
1783244251723564000,1.08356396484375,0.05303899943828583,-0.043661877512931824,-0.027781642973423004
1783244251733576000,1.093575927734375,0.044539254158735275,-0.03532884642481804,-0.005750908982008696
1783244251743587000,1.103587158203125,0.03246789798140526,-0.021430732682347298,0.00979897566139698
1783244251753599200,1.11359912109375,0.019023464992642403,-0.0036938136909157038,0.01845771074295044
1783244251763610000,1.123610107421875,0.003023189026862383,0.018382756039500237,0.019103631377220154
1783244251773621000,1.13362109375,-0.012315552681684494,0.03807097300887108,0.0018279729411005974
1783244251783633000,1.1436328125,-0.016612054780125618,0.03117998130619526,-0.0160602368414402
1783244251793644000,1.15364404296875,-0.012444207444787025,0.0004668101901188493,-0.026133645325899124
1783244251803656200,1.16365625,-0.0035216007381677628,-0.016659006476402283,-0.029657479375600815
1783244251813667000,1.1736669921875,0.0025615915656089783,-0.019726170226931572,-0.022696778178215027
1783244251823678000,1.183677978515625,0.0005351463332772255,-0.027329616248607635,-0.012448977679014206
1783244251833690000,1.193690185546875,-0.0026204329915344715,-0.028950151056051254,0.0001794653944671154
1783244251843701200,1.203701171875,-0.013216666877269745,-0.018228625878691673,0.009691801853477955
1783244251853713200,1.213713134765625,-0.023684222251176834,0.00413207383826375,0.013848730362951756
1783244251863724000,1.22372412109375,-0.02486478164792061,0.02281051315367222,0.01175667904317379
1783244251873735000,1.23373486328125,-0.022312674671411514,0.027681168168783188,0.00007126014679670334
1783244251883747000,1.2437470703125,-0.014539048075675964,0.020396282896399498,-0.011093810200691223
1783244251893758000,1.253758056640625,-0.001519652083516121,-0.0025953203439712524,-0.020306749269366264
1783244251903769000,1.26376904296875,0.013251302763819695,-0.019198503345251083,-0.028546735644340515
1783244251913781200,1.27378125,0.02345866709947586,-0.02147817052900791,-0.03526801988482475
1783244251923792100,1.283792236328125,0.02933873049914837,-0.012473066337406635,-0.038131482899188995
1783244251933804000,1.293803955078125,0.031725455075502396,0.0030081551522016525,-0.040669746696949005
1783244251943815000,1.30381494140625,0.03344445675611496,0.016472358256578445,-0.033855944871902466
1783244251953826000,1.313825927734375,0.037875425070524216,0.015528267249464989,-0.025623315945267677
1783244251963838200,1.323838134765625,0.04240170493721962,0.004385088104754686,-0.01790652424097061
1783244251973849000,1.33384912109375,0.04058622941374779,-0.0073112486861646175,-0.008362287655472755
1783244251983861000,1.343861083984375,0.03783918172121048,-0.023999178782105446,0.0020351209677755833
1783244251993872100,1.3538720703125,0.037808556109666824,-0.031081857159733772,0.010352172888815403
1783244252003883000,1.363883056640625,0.03360297903418541,-0.019570088014006615,0.01084974780678749
1783244252013895000,1.37389501953125,0.02711818367242813,0.0020435932092368603,0.007396426983177662
1783244252023906000,1.383906005859375,0.021008972078561783,0.01822742074728012,0.00006279768422245979
1783244252033917000,1.3939169921875,0.02627537213265896,0.016991447657346725,-0.0056938910856842995
1783244252043929000,1.40392919921875,0.03308802470564842,0.0076089538633823395,-0.01228296011686325
1783244252053940000,1.41393994140625,0.02941126748919487,-0.010338354855775833,-0.01648090034723282
1783244252063952000,1.423951904296875,0.025843456387519836,-0.027618536725640297,-0.014611810445785522
1783244252073963300,1.43396337890625,0.018805254250764847,-0.025794537737965584,-0.013408327475190163
1783244252083974100,1.44397412109375,0.015367452055215836,-0.01750156469643116,-0.00921122170984745
1783244252093986000,1.453986083984375,0.008909286931157112,-0.009822340682148933,-0.002147187013179064
1783244252103997000,1.463996826171875,0.0014634521212428808,0.004767443984746933,0.0022599631920456886
1783244252114009000,1.474009033203125,-0.005090054590255022,0.016855798661708832,0.0050642723217606544
1783244252124020200,1.484020263671875,-0.00601652218028903,0.010322386398911476,0.00698312371969223
1783244252134031000,1.494031005859375,-0.00538295553997159,-0.004788122605532408,0.004411042667925358
1783244252144043000,1.50404296875,-0.00967347715049982,-0.017544742673635483,0.002116613555699587
1783244252154054100,1.51405419921875,-0.010634878650307655,-0.021900875493884087,0.0035206321626901627
1783244252164066000,1.524066162109375,-0.013422928750514984,-0.022812342271208763,0.009653599001467228
1783244252174077000,1.534076904296875,-0.014788065105676651,-0.01006725151091814,0.01348855160176754
1783244252184088000,1.544088134765625,-0.01493639312684536,0.005123347043991089,0.01502764131873846
1783244252194100200,1.554100341796875,-0.01703682728111744,0.002715849783271551,0.015729650855064392
1783244252204111000,1.564111083984375,-0.017382360994815826,-0.01697421446442604,0.017957210540771484
1783244252214122000,1.5741220703125,-0.022180577740073204,-0.0280404482036829,0.01974339410662651
1783244252224134000,1.5841337890625,-0.024581369012594223,-0.03549507260322571,0.021910348907113075
1783244252234145300,1.594145263671875,-0.025792572647333145,-0.030844928696751595,0.023398255929350853
1783244252244157200,1.6041572265625,-0.023871127516031265,-0.011954124085605145,0.020184598863124847
1783244252254168000,1.61416796875,-0.01975254900753498,0.015880171209573746,0.013631624169647694
1783244252264179000,1.624178955078125,-0.018200945109128952,0.04965929687023163,0.010847867466509342
1783244252274191000,1.634191162109375,-0.025016505271196365,0.044228311628103256,0.00003410177305340767
1783244252284202000,1.644201904296875,-0.02878504805266857,0.0391881987452507,-0.009363509714603424
1783244252294214000,1.6542138671875,-0.02401639148592949,0.0195148978382349,-0.01626136340200901
1783244252304225000,1.66422509765625,-0.004061881918460131,0.0004569891607388854,-0.021330181509256363
1783244252314236200,1.674236083984375,0.009635021910071373,0.0014149282360449433,-0.027183810248970985
1783244252324248000,1.684248046875,0.021492334082722664,-0.0017300150357186794,-0.026500534266233444
1783244252334259000,1.694259033203125,0.030347343534231186,-0.004271735902875662,-0.02526509389281273
1783244252344270800,1.704270751953125,0.032256584614515305,-0.0043784333392977715,-0.022313116118311882
1783244252354282200,1.7142822265625,0.026476193219423294,-0.002413818845525384,-0.01659371145069599
1783244252364293000,1.724293212890625,0.021967150270938873,0.006315096281468868,-0.009626664221286774
1783244252374305000,1.734304931640625,0.021206550300121307,0.005570476409047842,-0.003221762366592884
1783244252384316000,1.74431591796875,0.020435132086277008,-0.001775132492184639,0.0006860434077680111
1783244252394327000,1.7543271484375,0.017215102910995483,-0.0023567667230963707,0.0010807239450514317
1783244252404339200,1.764339111328125,0.015609726309776306,-0.0061510344967246056,-0.002014690777286887
1783244252414350000,1.77435009765625,0.01744437776505947,-0.0115018580108881,-0.0007118724752217531
1783244252424362000,1.784362060546875,0.01293689850717783,-0.007436101324856281,0.0015267608687281609
1783244252434373000,1.794373046875,0.005740771070122719,0.0012828217586502433,0.0010103737004101276
1783244252444384000,1.804384033203125,0.0019923991058021784,0.0018623543437570333,0.007778448518365622
1783244252454396000,1.81439599609375,0.005786071997135878,-0.0008056003134697676,0.014506658539175987
1783244252464407000,1.824406982421875,0.007883751764893532,-0.004144386388361454,0.01784696988761425
1783244252474419200,1.834419189453125,0.004338019527494907,-0.0059135244227945805,0.015588343143463135
1783244252484430000,1.84443017578125,0.0019310795469209552,0.005687773693352938,0.004961719736456871
1783244252494441000,1.85444091796875,-0.0021699219942092896,0.024674514308571815,-0.010366369970142841
1783244252504452900,1.864452880859375,-0.004610132426023483,0.039718057960271835,-0.02664373070001602
1783244252514464300,1.87446435546875,-0.00443782564252615,0.037193115800619125,-0.035812728106975555
1783244252524476200,1.88447607421875,0.0035071561578661203,0.021854611113667488,-0.031167294830083847
1783244252534487000,1.894487060546875,0.014559008181095123,0.00710815517231822,-0.022420674562454224
1783244252544498000,1.904497802734375,0.02418486401438713,-0.009450657293200493,-0.00955258123576641
1783244252554510000,1.914510009765625,0.02827414870262146,-0.023731326684355736,0.0031629474833607674
1783244252564521000,1.92452099609375,0.02766132727265358,-0.021506525576114655,0.011922801844775677
1783244252574532000,1.934531982421875,0.025404829531908035,-0.007304685190320015,0.008942724205553532
1783244252584544000,1.9445439453125,0.02314179576933384,0.008724333718419075,0.0023867287673056126
1783244252594555100,1.95455517578125,0.015269490890204906,0.011377108283340931,-0.00599290756508708
1783244252604567000,1.964567138671875,0.00826315302401781,0.009958222508430481,-0.014411683194339275
1783244252614578000,1.974577880859375,0.009046388790011406,0.001999898348003626,-0.01753770187497139
1783244252624589000,1.984589111328125,0.011505844071507454,-0.0052782222628593445,-0.017750833183526993
1783244252634601500,1.9946015625,0.015160500071942806,-0.015162810683250427,-0.010407433845102787
1783244252644612600,2.004612548828125,0.011730855330824852,-0.026969701051712036,0.00152254244312644
1783244252654624800,2.014624755859375,0.0028327014297246933,-0.025570210069417953,0.012365602888166904
1783244252664635600,2.0246357421875,-0.006472143344581127,-0.010530038736760616,0.021024152636528015
1783244252674646500,2.034646484375,-0.015759918838739395,-0.005788813345134258,0.026962202042341232
1783244252684658400,2.044658447265625,-0.021773088723421097,-0.009207605384290218,0.02748911827802658
1783244252694669800,2.054669921875,-0.019734704867005348,0.00013902480714023113,0.023132983595132828
1783244252704681700,2.064681640625,-0.015498220920562744,0.01071028783917427,0.006450447253882885
1783244252714692600,2.074692626953125,-0.010705862194299698,0.014378259889781475,-0.013783185742795467
1783244252724703500,2.084703369140625,-0.00867648795247078,0.008096782490611076,-0.0323198065161705
1783244252734715600,2.094715576171875,-0.010223783552646637,-0.001150777330622077,-0.044735997915267944
1783244252744726800,2.104726806640625,-0.01697727106511593,0.0014218981377780437,-0.054192062467336655
1783244252754737700,2.114737548828125,-0.020187444984912872,0.0012088451767340302,-0.04899223893880844
1783244252764749600,2.12474951171875,-0.018035855144262314,-0.008849850855767727,-0.03521834686398506
1783244252774760700,2.1347607421875,-0.012652275152504444,-0.010344150476157665,-0.015219603665173054
1783244252784772600,2.144772705078125,-0.0148095041513443,-0.0053642261773347855,0.003599555231630802
1783244252794783500,2.154783447265625,-0.017250023782253265,-0.012972078286111355,0.018755339086055756
1783244252804794600,2.164794677734375,-0.02151232212781906,-0.028619496151804924,0.028265314176678658
1783244252814806800,2.174806884765625,-0.02914813905954361,-0.031920481473207474,0.03278922289609909
1783244252824817700,2.184817626953125,-0.030680056661367416,-0.020663253962993622,0.031963735818862915
1783244252834829600,2.19482958984375,-0.027416883036494255,-0.012572568841278553,0.02797618694603443
1783244252844840400,2.20484033203125,-0.020147956907749176,-0.0063613299280405045,0.01788013055920601
1783244252854851800,2.214851806640625,-0.01685762032866478,0.0035605430603027344,0.0077673085033893585
1783244252864863700,2.22486376953125,-0.012807297520339489,-0.002900112187489867,0.0031206044368445873
1783244252874874600,2.23487451171875,-0.00784476287662983,-0.011359376832842827,0.0002553095109760761
1783244252884886800,2.24488671875,-0.0065343379974365234,-0.008662411011755466,-0.000939665362238884
1783244252894897700,2.254897705078125,-0.006619558669626713,0.004828363656997681,-0.0009553779382258654
1783244252904908500,2.264908447265625,-0.008665227331221104,0.01783023215830326,-0.003510134993121028
1783244252914920400,2.27492041015625,-0.00539406668394804,0.031449370086193085,-0.010223165154457092
1783244252924931600,2.284931640625,-0.003796345554292202,0.032739922404289246,-0.019028814509510994
1783244252934942700,2.294942626953125,0.0016849725507199764,0.020950907841324806,-0.0300295352935791
1783244252944954600,2.30495458984375,0.010879662819206715,0.0009347771992906928,-0.03119789808988571
1783244252954965500,2.314965576171875,0.019172213971614838,-0.005935912020504475,-0.02799038589000702
1783244252964977700,2.324977783203125,0.02687876485288143,-0.002275255275890231,-0.022891970351338387
1783244252974988800,2.33498876953125,0.02783777005970478,0.0013626229483634233,-0.01688840612769127
1783244252984999700,2.344999755859375,0.029135216027498245,0.007167918607592583,-0.012665482237935066
1783244252995011600,2.355011474609375,0.024391060695052147,0.009161029011011124,-0.011410067789256573
1783244253005022500,2.3650224609375,0.01989930309355259,0.00426678080111742,-0.010052088648080826
1783244253015034600,2.37503466796875,0.010115647688508034,-0.00450247572734952,-0.00866591278463602
1783244253025045800,2.385045654296875,0.0038877741899341345,-0.01775931566953659,-0.0011088915634900331
1783244253035056600,2.395056640625,-0.0005554438102990389,-0.022671248763799667,0.010704624466598034
1783244253045068800,2.40506884765625,-0.005347300320863724,-0.025645464658737183,0.026504017412662506
1783244253055079700,2.41507958984375,-0.00691829901188612,-0.024827608838677406,0.044557053595781326
1783244253065091600,2.425091552734375,-0.0036615408025681973,-0.013111362233757973,0.05401737242937088
1783244253075102500,2.4351025390625,-0.0032676593400537968,0.003998648375272751,0.054161980748176575
1783244253085113600,2.445113525390625,0.0004176986403763294,0.01748102530837059,0.04278615117073059
1783244253095125800,2.455125732421875,0.006319796200841665,0.020652050152420998,0.025379197672009468
1783244253105136600,2.46513671875,0.008614690974354744,0.017184177413582802,0.0006927014328539371
1783244253115147500,2.4751474609375,0.009056508541107178,0.003193260869011283,-0.01706792041659355
1783244253125159700,2.48515966796875,0.011437391862273216,-0.02212531305849552,-0.023208502680063248
1783244253135170800,2.4951708984375,0.012920239940285683,-0.034235239028930664,-0.013791033998131752
1783244253145182700,2.5051826171875,0.009236732497811317,-0.024463290348649025,0.0020906301215291023
1783244253155193600,2.515193603515625,0.0009756074286997318,-0.0026844916865229607,0.019763365387916565
1783244253165204500,2.52520458984375,-0.003596657421439886,0.0168780405074358,0.03506803512573242
1783244253175216600,2.535216552734375,-0.007630281616002321,0.03396701067686081,0.0423954576253891
1783244253185227500,2.5452275390625,-0.009244418703019619,0.03819022327661514,0.038739096373319626
1783244253195239400,2.555239501953125,-0.005244084633886814,0.01626814343035221,0.028300568461418152
1783244253205250800,2.565250732421875,0.004206138197332621,-0.016678588464856148,0.01616678200662136
1783244253215261700,2.57526171875,0.010248318314552307,-0.04067659750580788,0.006145306397229433
1783244253225273600,2.585273681640625,0.0057830228470265865,-0.04016098007559776,0.003056223038583994
1783244253235284500,2.595284423828125,0.0030673975124955177,-0.029652681201696396,0.011003095656633377
1783244253245296600,2.605296630859375,0.0005193823017179966,-0.008423369377851486,0.020106462761759758
1783244253255307800,2.615307861328125,-0.004454337060451508,0.01167976763099432,0.03384091705083847
1783244253265318700,2.625318603515625,-0.01180955208837986,0.019812608137726784,0.03814816474914551
1783244253275330600,2.63533056640625,-0.016657305881381035,0.016815220937132835,0.03441254794597626
1783244253285341700,2.645341796875,-0.023511460050940514,0.008499563671648502,0.02448883466422558
1783244253295352600,2.6553525390625,-0.023640356957912445,0.00743323378264904,0.006128203589469194
1783244253305364700,2.66536474609375,-0.023506570607423782,0.003417640458792448,-0.007097969762980938
1783244253315375600,2.675375732421875,-0.013795086182653904,-0.011874496936798096,-0.01072173286229372
1783244253325387800,2.6853876953125,-0.004303602501749992,-0.0200499314814806,-0.0038534642662853003
1783244253335398700,2.695398681640625,-0.0012662671506404877,-0.01844138279557228,0.0074857426807284355
1783244253345409500,2.705409423828125,-0.0032426961697638035,-0.010196424089372158,0.014258010312914848
1783244253355421400,2.71542138671875,-0.015806425362825394,-0.00174568104557693,0.016571765765547752
1783244253365432800,2.725432861328125,-0.02757054939866066,0.011414282955229282,0.014646635390818119
1783244253375444700,2.73544482421875,-0.03474989905953407,0.019831202924251556,0.009093145839869976
1783244253385455600,2.74545556640625,-0.030756860971450806,0.023758448660373688,0.0010989345610141754
1783244253395466500,2.755466552734375,-0.023191887885332108,0.008874841034412384,-0.005624216049909592
1783244253405478700,2.765478759765625,-0.017955496907234192,-0.019560709595680237,-0.00804394856095314
1783244253415489800,2.77548974609375,-0.015190337784588337,-0.031523630023002625,-0.006051104981452227
1783244253425501700,2.785501708984375,-0.016054240986704826,-0.026819681748747826,-0.0007835549768060446
1783244253435512600,2.7955126953125,-0.01607288233935833,-0.018773740157485008,0.014212438836693764
1783244253445523700,2.805523681640625,-0.008380688726902008,-0.006295563653111458,0.028546186164021492
1783244253455535600,2.81553564453125,-0.006271997932344675,0.004526458214968443,0.03365226835012436
1783244253465546500,2.82554638671875,-0.011361201293766499,0.012735572643578053,0.028821174055337906
1783244253475558700,2.83555859375,-0.011985179036855698,0.008157332427799702,0.01476287841796875
1783244253485569800,2.84556982421875,-0.013939718715846539,-0.008180755190551281,0.0030060396529734135
1783244253495580700,2.85558056640625,-0.014384732581675053,-0.0037732243072241545,-0.00990230217576027
1783244253505592600,2.865592529296875,-0.011502825655043125,0.02553635463118553,-0.027461806312203407
1783244253515603500,2.875603515625,-0.0016411403194069862,0.04369059205055237,-0.037863850593566895
1783244253525614800,2.88561474609375,0.010477110743522644,0.04670147970318794,-0.043047089129686356
1783244253535626800,2.895626708984375,0.022506076842546463,0.03746137395501137,-0.0443565659224987
1783244253545637600,2.9056376953125,0.028464296832680702,0.02403086982667446,-0.04413612559437752
1783244253555649800,2.91564990234375,0.030848093330860138,0.011373929679393768,-0.04126204177737236
1783244253565660700,2.92566064453125,0.024976015090942383,0.004384602885693312,-0.03815745562314987
1783244253575671600,2.935671630859375,0.014414716511964798,0.0032269267830997705,-0.027530379593372345
1783244253585683700,2.94568359375,0.002856137230992317,0.01028472650796175,-0.015755247324705124
1783244253595694600,2.955694580078125,-0.0017226357012987137,0.02193286083638668,-0.0010284995660185814
1783244253605706800,2.965706787109375,0.0009941703174263239,0.029515432193875313,0.008806037716567516
1783244253615717600,2.975717529296875,0.002991274930536747,0.021040454506874084,0.01632201112806797
1783244253625728500,2.985728515625,0.0018529989756643772,0.005736173130571842,0.017052894458174706
1783244253635744500,2.99574462890625,-0.0022011310793459415,-0.009018538519740105,0.012600354850292206
1783244253645755600,3.005755615234375,-0.005523797124624252,-0.01082215178757906,0.006778748705983162
1783244253655767600,3.015767578125,-0.00758561585098505,-0.0011250493116676807,0.003270832821726799
1783244253665778400,3.0257783203125,-0.007678262423723936,0.0005330293206498027,0.005700776353478432
1783244253675789600,3.03578955078125,-0.00825616903603077,0.0021932439412921667,0.008894438855350018
1783244253685801500,3.045801513671875,-0.009305529296398163,0.0054176743142306805,0.015511469915509224
1783244253695812400,3.055812255859375,-0.016171157360076904,-0.0034961921628564596,0.02079012058675289
1783244253705824500,3.065824462890625,-0.026995887979865074,-0.01232895813882351,0.02566392347216606
1783244253715835600,3.075835693359375,-0.03467804193496704,-0.002967413980513811,0.02769431844353676
1783244253725846500,3.085846435546875,-0.03397150710225105,0.020287074148654938,0.025293318554759026
1783244253735858400,3.0958583984375,-0.02438386343419552,0.02841930277645588,0.022576892748475075
1783244253745869300,3.105869384765625,-0.015233432874083519,0.028696395456790924,0.016825657337903976
1783244253755880700,3.115880615234375,-0.0075914920307695866,0.028035132214426994,0.0016898470930755138
1783244253765892600,3.125892578125,-0.006284661591053009,0.02555982396006584,-0.016661062836647034
1783244253775903500,3.135903564453125,-0.005797036923468113,0.01574048399925232,-0.029914816841483116
1783244253785915600,3.14591552734375,-0.00610414007678628,0.008406775072216988,-0.034775510430336
1783244253795926500,3.155926513671875,-0.0003567719832062721,0.011228660121560097,-0.03156932815909386
1783244253805937400,3.1659375,0.01047405693680048,0.019818782806396484,-0.02121003530919552
1783244253815949600,3.175949462890625,0.018653422594070435,0.01512629259377718,-0.006273163482546806
1783244253825960400,3.18596044921875,0.027338817715644836,-0.011313807219266891,0.01158005278557539
1783244253835972600,3.19597265625,0.026736143976449966,-0.03177247568964958,0.027475129812955856
1783244253845983500,3.2059833984375,0.019674580544233322,-0.03907899931073189,0.034757670015096664
1783244253855994400,3.215994384765625,0.009090113453567028,-0.03271723911166191,0.03600642457604408
1783244253866006500,3.226006591796875,-0.002044376917183399,-0.012049335986375809,0.03359571844339371
1783244253876017700,3.236017578125,-0.0032103084959089756,0.014847259037196636,0.02469942532479763
1783244253886029600,3.246029541015625,-0.008773673325777054,0.03736475110054016,0.012218229472637177
1783244253896040400,3.25604052734375,-0.00893000140786171,0.04386499524116516,-0.005598318763077259
1783244253906051300,3.26605126953125,-0.0027705179527401924,0.01112004928290844,-0.011456407606601715
1783244253916063500,3.2760634765625,0.00532416021451354,-0.02275935374200344,-0.01491132564842701
1783244253926074600,3.28607470703125,0.005803551059216261,-0.028174560517072678,-0.011872367933392525
1783244253936086500,3.29608642578125,0.001278574112802744,-0.017135757952928543,-0.005101281218230724
1783244253946097700,3.30609765625,-0.004813451319932938,-0.009897414594888687,0.007182234898209572
1783244253956108500,3.316108642578125,-0.007083795964717865,-0.0018983432091772556,0.020013611763715744
1783244253966120400,3.326120361328125,-0.009563079103827477,0.008646161295473576,0.02956601232290268
1783244253976131300,3.33613134765625,-0.01198948547244072,0.020453285425901413,0.025755293667316437
1783244253986143500,3.3461435546875,-0.011381370946764946,0.019178183749318123,0.009036252275109291
1783244253996154600,3.356154541015625,-0.014013638719916344,-0.0002335964236408472,-0.010537449270486832
1783244254006165500,3.36616552734375,-0.021224431693553925,0.0024425156880170107,-0.026527732610702515
1783244254016177400,3.376177490234375,-0.02624022774398327,0.017449162900447845,-0.03817639872431755
1783244254026188500,3.3861884765625,-0.03129955381155014,0.016338905319571495,-0.036826085299253464
1783244254036199700,3.39619970703125,-0.029035335406661034,-0.00878189317882061,-0.017448659986257553
1783244254046211600,3.406211669921875,-0.024185575544834137,-0.023029522970318794,0.007018693722784519
1783244254056222500,3.416222412109375,-0.020083773881196976,-0.025395741686224937,0.02686057612299919
1783244254066234600,3.426234619140625,-0.01321026124060154,-0.009919965639710426,0.034920427948236465
1783244254076245500,3.43624560546875,-0.008776098489761353,-0.004938256926834583,0.03465890511870384
1783244254086256400,3.44625634765625,-0.006801547482609749,-0.0023639858700335026,0.02559661865234375
1783244254096268300,3.456268310546875,-0.011181915178894997,-0.010304467752575874,0.013213984668254852
1783244254106279700,3.46627978515625,-0.014366040006279945,-0.013610313646495342,0.0036864192225039005
1783244254116291600,3.47629150390625,-0.0121068824082613,-0.02024771086871624,-0.0010372297838330269
1783244254126302500,3.486302490234375,-0.006044612731784582,-0.03381569683551788,0.0038603395223617554
1783244254136313300,3.496313232421875,-0.005178818944841623,-0.02747311256825924,0.011458870954811573
1783244254146325500,3.506325439453125,-0.011630011722445488,0.00599891971796751,0.00717591680586338
1783244254156336600,3.516336669921875,-0.017874857410788536,0.05343914031982422,-0.006889835000038147
1783244254166348500,3.5263486328125,-0.019577516242861748,0.07609765976667404,-0.02503995969891548
1783244254176359400,3.536359375,-0.017751386389136314,0.0676778107881546,-0.042442649602890015
1783244254186370600,3.54637060546875,-0.014066972769796848,0.05234157294034958,-0.058623455464839935
1783244254196382500,3.556382568359375,-0.004303025081753731,0.03849073871970177,-0.0663018748164177
1783244254206393600,3.5663935546875,0.01626141369342804,0.001054015476256609,-0.057812999933958054
1783244254216405500,3.576405517578125,0.025630149990320206,-0.03764171525835991,-0.039060354232788086
1783244254226416600,3.586416748046875,0.023553764447569847,-0.042890455573797226,-0.009503510780632496
1783244254236427500,3.596427490234375,0.011371666565537453,-0.01817658543586731,0.009499741718173027
1783244254246439400,3.606439453125,-0.0015713232569396496,0.01051308587193489,0.025511015206575394
1783244254256450300,3.6164501953125,-0.010419676080346107,0.026471013203263283,0.030945196747779846
1783244254266461700,3.626461669921875,-0.01753821223974228,0.029308035969734192,0.023996734991669655
1783244254276473600,3.6364736328125,-0.0177302286028862,0.01835525408387184,0.012487351894378662
1783244254286484500,3.646484375,-0.014268281869590282,-0.00699948612600565,0.001632879488170147
1783244254296496600,3.65649658203125,-0.011712179519236088,-0.030593762174248695,-0.005777366459369659
1783244254306507500,3.666507568359375,-0.016182655468583107,-0.033133573830127716,-0.005198117811232805
1783244254316518700,3.6765185546875,-0.01937977969646454,-0.0138312466442585,0.002002270892262459
1783244254326530600,3.686530517578125,-0.015524490736424923,-0.0007373609114438295,0.016268441453576088
1783244254336541400,3.69654150390625,-0.010952642187476158,0.0036840192042291164,0.0277852825820446
1783244254346553600,3.7065537109375,-0.012142447754740715,0.007235829718410969,0.03125670179724693
1783244254356564500,3.716564453125,-0.009604722261428833,0.011395420879125595,0.027841463685035706
1783244254366575400,3.726575439453125,-0.007164858281612396,0.008651881478726864,0.015156494453549385
1783244254376587500,3.73658740234375,-0.003983179572969675,0.009400229901075363,-0.0028616541530936956
1783244254386598700,3.7465986328125,-0.003468266222625971,0.010142935439944267,-0.016619743779301643
1783244254396610600,3.756610595703125,-0.0013848752714693546,0.014020764268934727,-0.02689714916050434
1783244254406621400,3.766621337890625,0.009607730433344841,0.021391112357378006,-0.03465580195188522
1783244254416632300,3.77663232421875,0.020035337656736374,0.01755402982234955,-0.035999901592731476
1783244254426644500,3.78664453125,0.027399102225899696,-0.0005134365055710077,-0.030222104862332344
1783244254436655600,3.796655517578125,0.027014542371034622,-0.0048021916300058365,-0.01954655721783638
1783244254446667500,3.80666748046875,0.02292337268590927,-0.0063386596739292145,-0.008114265277981758
1783244254456678700,3.8166787109375,0.017461229115724564,-0.01673137955367565,0.004583952482789755
1783244254466689500,3.826689453125,0.00655002985149622,-0.021042045205831528,0.01779242604970932
1783244254476701400,3.836701416015625,-0.0008945707231760025,-0.01365630142390728,0.02845386043190956
1783244254486712600,3.846712646484375,-0.005936217028647661,-0.0008135747630149126,0.029042813926935196
1783244254496724500,3.856724365234375,-0.0014040498062968254,0.00021227472461760044,0.025856077671051025
1783244254506735600,3.866735595703125,-0.00010850350372493267,-0.0035412688739597797,0.017321430146694183
1783244254516746500,3.87674658203125,0.0000520849134773016,-0.007015096489340067,0.008118345402181149
1783244254526758400,3.88675830078125,0.0010399813763797283,-0.012067466974258423,-0.0009457673877477646
1783244254536769500,3.89676953125,0.002468501217663288,-0.016999375075101852,-0.008496628142893314
1783244254546781400,3.906781494140625,0.0037308393511921167,-0.014416641555726528,-0.011260456405580044
1783244254556792600,3.91679248046875,0.0020919302478432655,-0.008931594900786877,-0.008005008101463318
1783244254566803500,3.926803466796875,-0.0025531556457281113,-0.003968528006225824,-0.003004923462867737
1783244254576815600,3.936815673828125,-0.0051875547505915165,-0.0021242890506982803,0.0033190185204148293
1783244254586826500,3.946826416015625,-0.008605504408478737,-0.003150232369080186,0.009113850072026253
1783244254596838400,3.95683837890625,-0.012038318440318108,0.004852300509810448,0.008746067062020302
1783244254606849500,3.966849609375,-0.01043674722313881,0.01813582330942154,0.005372540559619665
1783244254616860700,3.976860595703125,-0.006746138911694288,0.014640424400568008,-0.0026161433197557926
1783244254626872600,3.98687255859375,-0.0012928815558552742,0.004000909626483917,-0.011219101026654243
1783244254636879000,3.996879150390625,-0.0006438691634684801,0.002776920795440674,-0.019794480875134468
1783244254646891300,4.006891357421875,-0.0021923286840319633,-0.00428144121542573,-0.022914521396160126
1783244254656902400,4.01690234375,-0.0058483160100877285,-0.012302616611123085,-0.018350929021835327
1783244254666913300,4.026913330078125,-0.00995209626853466,-0.008455703034996986,-0.008143851533532143
1783244254676925200,4.03692529296875,-0.008625042624771595,-0.0066277096047997475,0.006813526153564453
1783244254686936300,4.046936279296875,-0.004657617304474115,-0.001445174915716052,0.01719667762517929
1783244254696948200,4.0569482421875,-0.002882353961467743,0.008511319756507874,0.018469933420419693
1783244254706959400,4.06695947265625,-0.004558640066534281,0.01978718489408493,0.008434351533651352
1783244254716970200,4.07697021484375,-0.008264695294201374,0.020424477756023407,-0.004051612690091133
1783244254726982400,4.086982421875,-0.008150934241712093,0.015143030323088169,-0.01847364380955696
1783244254736993300,4.0969931640625,-0.005198287777602673,0.002392879920080304,-0.022417517378926277
1783244254747005200,4.107005126953125,0.002739774761721492,-0.018231505528092384,-0.014287181198596954
1783244254757016000,4.11701611328125,0.01140676625072956,-0.02776269242167473,0.00017351796850562096
1783244254767027500,4.12702734375,0.013422833755612373,-0.01661384291946888,0.012656917795538902
1783244254777039400,4.137039306640625,0.006999288685619831,-0.00009292340837419033,0.024049654603004456
1783244254787050200,4.14705029296875,-0.002071828581392765,0.012954484671354294,0.029485367238521576
1783244254797062100,4.157062255859375,-0.011162795126438141,0.018365228548645973,0.031335197389125824
1783244254807073300,4.1670732421875,-0.015613545663654804,0.012788982130587101,0.030561957508325577
1783244254817084400,4.17708447265625,-0.010488026775419712,-0.0032014360185712576,0.03125810995697975
1783244254827096300,4.187096435546875,0.00009126565419137478,-0.013310285285115242,0.03344801068305969
1783244254837107200,4.197107177734375,0.008013371378183365,-0.010401846840977669,0.03259899467229843
1783244254847119400,4.207119384765625,0.012658381834626198,0.00438603013753891,0.02751941978931427
1783244254857130200,4.217130126953125,0.015529269352555275,0.016103938221931458,0.018777860328555107
1783244254867141000,4.22714111328125,0.01984361559152603,0.02883600816130638,0.007573326118290424
1783244254877153300,4.2371533203125,0.01729763299226761,0.03985963389277458,-0.011588649824261665
1783244254887164400,4.247164306640625,0.018997469916939735,0.04325701296329498,-0.0275228600949049
1783244254897176300,4.25717626953125,0.02300073206424713,0.02957582101225853,-0.036219943314790726
1783244254907187200,4.267187255859375,0.034308429807424545,0.006324825808405876,-0.034383270889520645
1783244254917198000,4.277197998046875,0.04245050996541977,-0.00914760772138834,-0.026936540380120277
1783244254927210200,4.287210205078125,0.04287225380539894,-0.009708350524306297,-0.010308066383004189
1783244254937221400,4.297221435546875,0.0395510271191597,-0.008185822516679764,0.0030072066001594067
1783244254947233300,4.3072333984375,0.028221629559993744,-0.004679636098444462,0.01109597273170948
1783244254957244200,4.317244140625,0.011628271080553532,-0.0005996737163513899,0.01856374181807041
1783244254967255300,4.32725537109375,-0.005998873617500067,-0.00355731975287199,0.02440015971660614
1783244254977267200,4.33726708984375,-0.01805740036070347,-0.00575016625225544,0.03190787881612778
1783244254987278300,4.3472783203125,-0.01999785378575325,-0.005575854331254959,0.0364372581243515
1783244254997290500,4.35729052734375,-0.019017543643712997,-0.008290681056678295,0.0389089360833168
1783244255007301400,4.36730126953125,-0.02170931175351143,-0.010705474764108658,0.03620936721563339
1783244255017312300,4.377312255859375,-0.025005239993333817,-0.012515359558165073,0.03260797634720802
1783244255027324200,4.38732421875,-0.02777382731437683,-0.007380268536508083,0.02389897033572197
1783244255037335000,4.3973349609375,-0.027618831023573875,0.001257428084500134,0.011489704251289368
1783244255047347200,4.40734716796875,-0.02588891237974167,0.0049140555784106255,-0.0003615948371589184
1783244255057358300,4.4173583984375,-0.022918956354260445,0.008795613422989845,-0.009158281609416008
1783244255067369200,4.427369140625,-0.020373869687318802,0.011541144922375679,-0.013914039358496666
1783244255077381400,4.43738134765625,-0.01637992635369301,0.004408400505781174,-0.01185887772589922
1783244255087392300,4.447392333984375,-0.01668674312531948,-0.003171584103256464,-0.004847437143325806
1783244255097404200,4.457404052734375,-0.019484926015138626,-0.000359552213922143,0.0034224772825837135
1783244255107415300,4.467415283203125,-0.02056261897087097,0.003732915734872222,0.0119745172560215
1783244255117426200,4.47742626953125,-0.011350743472576141,0.00908347312361002,0.018564509227871895
1783244255127438300,4.487438232421875,-0.00038404250517487526,0.0180001612752676,0.019756507128477097
1783244255137449200,4.49744921875,0.009879248216748238,0.01943294145166874,0.010782454162836075
1783244255147461000,4.507461181640625,0.022179588675498962,0.014009414240717888,-0.005163755267858505
1783244255157472300,4.51747216796875,0.0299949012696743,0.0009343595011159778,-0.02263329178094864
1783244255167483400,4.5274833984375,0.03182130306959152,-0.0020798437763005495,-0.03074565902352333
1783244255177495300,4.537495361328125,0.03617636859416962,0.0017045079730451107,-0.030606376007199287
1783244255187506200,4.547506103515625,0.043160274624824524,0.0008850535377860069,-0.02024500072002411
1783244255197518300,4.557518310546875,0.04630386829376221,-0.005846619140356779,-0.010346563532948494
1783244255207529200,4.567529296875,0.045501794666051865,-0.011167693883180618,-0.0009460675064474344
1783244255217540400,4.577540283203125,0.0438101552426815,-0.018739061430096626,0.006869777571409941
1783244255227552300,4.58755224609375,0.04099800065159798,-0.020615508779883385,0.01300126500427723
1783244255237563400,4.5975634765625,0.03795613721013069,-0.009887497872114182,0.013026298955082893
1783244255247575300,4.6075751953125,0.0326966792345047,0.003499516285955906,0.008295328356325626
1783244255257586200,4.617586181640625,0.0264907144010067,0.007268421817570925,0.001207058783620596
1783244255267597300,4.627597412109375,0.019266482442617416,0.005192435346543789,-0.007238825783133507
1783244255277609500,4.637609375,0.008968038484454155,-0.00023082573898136616,-0.014690084382891655
1783244255287620400,4.647620361328125,-0.0003836732357740402,0.0020884566474705935,-0.018171660602092743
1783244255297632300,4.65763232421875,-0.004602120257914066,0.015500135719776154,-0.020688612014055252
1783244255307643100,4.66764306640625,-0.002332411240786314,0.03370881825685501,-0.02366074174642563
1783244255317654300,4.677654296875,0.005037354305386543,0.039818644523620605,-0.028223268687725067
1783244255327666200,4.687666259765625,0.009362648241221905,0.0239755529910326,-0.033206745982170105
1783244255337677300,4.69767724609375,0.008088592439889908,-0.001876817550510168,-0.03349143639206886
1783244255347689200,4.707689208984375,0.0020068727899342775,-0.020564435049891472,-0.03261585533618927
1783244255357700400,4.717700439453125,-0.0013164859265089035,-0.02813819795846939,-0.024880435317754745
1783244255367711200,4.727711181640625,-0.0035254312679171562,-0.03213478997349739,-0.01222553662955761
1783244255377723100,4.73772314453125,-0.0032455329783260822,-0.01979716308414936,0.0009445939213037491
1783244255387734300,4.747734375,-0.0061307260766625404,-0.004074270837008953,0.009963513351976871
1783244255397746400,4.757746337890625,-0.010658366605639458,-0.0006459834985435009,0.011110271327197552
1783244255407757300,4.76775732421875,-0.021184466779232025,0.009409177117049694,-0.0017114675138145685
1783244255417768200,4.777768310546875,-0.027319058775901794,0.021047988906502724,-0.0200385432690382
1783244255427780000,4.787780029296875,-0.024309882894158363,0.02161247283220291,-0.0358353815972805
1783244255437791200,4.797791259765625,-0.017285794019699097,0.010823741555213928,-0.048910968005657196
1783244255447803100,4.80780322265625,-0.0021852534264326096,-0.004920356906950474,-0.05300053954124451
1783244255457814300,4.817814208984375,0.011111377738416195,-0.014723186381161213,-0.051788534969091415
1783244255467825200,4.8278251953125,0.01747868023812771,-0.015238335356116295,-0.040806397795677185
1783244255477837300,4.83783740234375,0.015366260893642902,-0.01665087603032589,-0.0298184622079134
1783244255487848200,4.84784814453125,0.007239820435643196,-0.012302624061703682,-0.01752154901623726
1783244255497860000,4.857860107421875,-0.0021616709418594837,-0.009208030998706818,-0.005612424574792385
1783244255507871200,4.867871337890625,-0.0037442725151777267,-0.009341966360807419,0.0022934521548449993
1783244255517882400,4.87788232421875,-0.0006757783703505993,-0.010814961045980453,0.009193436242640018
1783244255527894300,4.887894287109375,0.004374640062451363,-0.01831522211432457,0.01735655777156353
1783244255537905200,4.8979052734375,0.008225305005908012,-0.020107530057430267,0.020755549892783165
1783244255547917300,4.907917236328125,0.008440054021775723,-0.01516824308782816,0.01553404051810503
1783244255557928400,4.917928466796875,0.0071223219856619835,-0.0042119985446333885,0.005004966631531715
1783244255567939300,4.927939208984375,0.009586864151060581,0.017773784697055817,-0.010227948427200317
1783244255577951200,4.937951171875,0.01809459924697876,0.041899096220731735,-0.02914438210427761
1783244255587962000,4.947962158203125,0.030336741358041763,0.04784562066197395,-0.04658668488264084
1783244255597974300,4.957974365234375,0.041965968906879425,0.03647126257419586,-0.05790538713335991
1783244255607985200,4.967985107421875,0.04787391424179077,0.014851786196231842,-0.0598578006029129
1783244255617996300,4.977996337890625,0.051019638776779175,-0.003380480222404003,-0.05235115438699722
1783244255628008400,4.988008544921875,0.04984613135457039,-0.017240621149539948,-0.03731591999530792
1783244255638019300,4.998019287109375,0.04310034587979317,-0.012415241450071335,-0.01761172153055668
1783244255648031200,5.00803125,0.03374412655830383,-0.0012541990727186203,-0.00028546154499053955
1783244255658042000,5.0180419921875,0.02555064670741558,0.004730722866952419,0.017247458919882774
1783244255668054300,5.02805419921875,0.018719255924224854,0.009989115409553051,0.021310627460479736
1783244255678065400,5.0380654296875,0.015616940334439278,0.012540156953036785,0.020874667912721634
1783244255688076300,5.048076171875,0.009305145591497421,0.01513951551169157,0.006869328208267689
1783244255698088200,5.058088134765625,0.00319825136102736,0.013241746462881565,-0.010632166638970375
1783244255708099300,5.068099365234375,-0.0008960282430052757,0.0097726471722126,-0.026795608922839165
1783244255718111200,5.078111328125,-0.003331223037093878,0.012691738083958626,-0.03819740191102028
1783244255728122000,5.0881220703125,-0.008674805983901024,0.020631778985261917,-0.04291471838951111
1783244255738133200,5.09813330078125,-0.02219700627028942,0.04244333505630493,-0.03581792488694191
1783244255748145400,5.1081455078125,-0.012459109537303448,0.04118268936872482,-0.02634618617594242
1783244255758156300,5.11815625,0.0012583013158291578,0.03307735547423363,-0.018594522029161453
1783244255768168200,5.128168212890625,0.010335328057408333,0.01983828842639923,-0.01795829087495804
1783244255778179000,5.138178955078125,0.012985971756279469,0.00047684216406196356,-0.018541255965828896
1783244255788190500,5.1481904296875,0.021558256819844246,-0.01487293466925621,-0.023541565984487534
1783244255798202400,5.158202392578125,0.024691732600331306,-0.016064966097474098,-0.027037231251597404
1783244255808213200,5.168213134765625,0.02411951869726181,-0.010047098621726036,-0.027379563078284264
1783244255818225400,5.178225341796875,0.019576963037252426,-0.010872678831219673,-0.0159162525087595
1783244255828236300,5.188236328125,0.014312107115983963,-0.008076685480773449,-0.00011901417747139931
1783244255838247400,5.198247314453125,0.0054669491946697235,0.0038111330941319466,0.012512093409895897
1783244255848259300,5.20825927734375,0.004620450083166361,0.019516844302415848,0.016847893595695496
1783244255858270200,5.218270263671875,0.008496414870023727,0.027996882796287537,0.01151464693248272
1783244255868282400,5.228282470703125,0.019575612619519234,0.029603760689496994,0.00016318494454026222
1783244255878293200,5.238293212890625,0.029615197330713272,0.018062418326735497,-0.017179053276777267
1783244255888304000,5.24830419921875,0.04453510418534279,-0.001881878124549985,-0.026623835787177086
1783244255898316300,5.25831640625,0.057520411908626556,-0.02296612411737442,-0.030036676675081253
1783244255908327400,5.268327392578125,0.06664680689573288,-0.039585091173648834,-0.02500740997493267
1783244255918339300,5.27833935546875,0.06629446893930435,-0.04332656413316727,-0.014618419110774994
1783244255928350200,5.28835009765625,0.05835781618952751,-0.03323516249656677,-0.000971541740000248
1783244255938361000,5.298361083984375,0.043149836361408234,-0.013867592439055443,0.014247357845306396
1783244255948373200,5.308373291015625,0.026979653164744377,0.01021883636713028,0.026874735951423645
1783244255958384400,5.31838427734375,0.014760006219148636,0.025186333805322647,0.030627131462097168
1783244255968396300,5.328396240234375,0.007896426133811474,0.026124214753508568,0.02330635115504265
1783244255978407400,5.338407470703125,0.008072727359831333,0.013030251488089561,0.0116118798032403
1783244255988418300,5.348418212890625,0.010184872895479202,0.002466067671775818,-0.0008105854503810406
1783244255998430200,5.35843017578125,0.018855594098567963,-0.013402909971773624,-0.011277341283857822
1783244256008441000,5.368441162109375,0.023928236216306686,-0.02341694012284279,-0.01434219628572464
1783244256018453200,5.378453369140625,0.01624474860727787,-0.02076736092567444,-0.010652385652065277
1783244256028464400,5.38846435546875,0.004967432469129562,-0.00866661500185728,-0.0014798948541283607
1783244256038475300,5.398475341796875,-0.005785080138593912,-0.0009812649805098772,0.009332006797194481
1783244256048487200,5.408487060546875,-0.01361764408648014,0.008647681213915348,0.019196078181266785
1783244256058498300,5.418498291015625,-0.019037974998354912,0.01742119900882244,0.02326272428035736
1783244256068510200,5.42851025390625,-0.021124355494976044,0.02223750576376915,0.014045001938939095
1783244256078521300,5.438521240234375,-0.019190901890397072,0.019144777208566666,0.0003065536729991436
1783244256088533200,5.448533203125,-0.01586621068418026,0.024297192692756653,-0.01979019120335579
1783244256098544400,5.45854443359375,-0.01520388200879097,0.02662772685289383,-0.03779609128832817
1783244256108555300,5.46855517578125,-0.008435297757387161,0.014922992326319218,-0.04255013167858124
1783244256118567200,5.478567138671875,0.002823748392984271,-0.005806786939501762,-0.036997441202402115
1783244256128578300,5.488578369140625,0.021417686715722084,-0.0341745987534523,-0.020588869228959084
1783244256138590200,5.498590087890625,0.03547891229391098,-0.046773746609687805,0.0014067110605537891
1783244256148601300,5.508601318359375,0.0345316156744957,-0.044152092188596725,0.01762307621538639
1783244256158612200,5.5186123046875,0.024544764310121536,-0.021332528442144394,0.02453717589378357
1783244256168624000,5.5286240234375,0.011596061289310455,-0.0007777316495776176,0.024758927524089813
1783244256178635300,5.53863525390625,0.0019777887500822544,0.007721480913460255,0.020620908588171005
1783244256188647200,5.548647216796875,0.0007857156451791525,0.00912802666425705,0.014846853911876678
1783244256198658300,5.558658203125,0.005669420585036278,-0.0037747216410934925,0.006951912771910429
1783244256208669200,5.568669189453125,0.013087717816233635,-0.016989922150969505,0.00038836942985653877
1783244256218681300,5.578681396484375,0.021833274513483047,-0.029089730232954025,-0.005009591579437256
1783244256228692200,5.588692138671875,0.02379627898335457,-0.027506094425916672,-0.004225275944918394
1783244256238704000,5.5987041015625,0.022569362074136734,-0.00964799989014864,-0.00454512145370245
1783244256248715300,5.60871533203125,0.01512659341096878,0.02156638726592064,-0.00764085166156292
1783244256258726400,5.618726318359375,0.01145595870912075,0.04511592164635658,-0.015463621355593204
1783244256268738300,5.62873828125,0.01164262369275093,0.053086962550878525,-0.025906700640916824
1783244256278749200,5.638749267578125,0.01717880368232727,0.039926156401634216,-0.03472709283232689
1783244256288761300,5.64876123046875,0.024770697578787804,0.019414022564888,-0.0372924879193306
1783244256298772200,5.658772216796875,0.03033404052257538,-0.00031281146220862865,-0.03699075058102608
1783244256308784000,5.6687841796875,0.03617141768336296,-0.01663368195295334,-0.03135405480861664
1783244256318795300,5.678795166015625,0.03648087754845619,-0.024557918310165405,-0.020378103479743004
1783244256328806100,5.68880615234375,0.029038678854703903,-0.021950460970401764,-0.006612072698771954
1783244256338818300,5.698818359375,0.015503697097301483,-0.014331159181892872,0.00565657764673233
1783244256348829200,5.7088291015625,0.0016267143655568361,0.004216865636408329,0.01578224077820778
1783244256358841000,5.718841064453125,-0.007378764450550079,0.02013910561800003,0.017669621855020523
1783244256368852500,5.7288525390625,-0.013017377816140652,0.01723058894276619,0.01827351003885269
1783244256378863400,5.73886328125,-0.01864570379257202,0.012764466926455498,0.013408447615802288
1783244256388875300,5.748875244140625,-0.019767118617892265,0.011450068093836308,0.005594258196651936
1783244256398886100,5.75888623046875,-0.01630740612745285,0.0030712306033819914,-0.002214130014181137
1783244256408898300,5.768898193359375,-0.013840340077877045,-0.017197618260979652,0.0013379976153373718
1783244256418909200,5.7789091796875,-0.013109568506479263,-0.019738540053367615,0.007768200244754553
1783244256428920300,5.78892041015625,-0.012239880859851837,-0.014967573806643486,0.016252614557743073
1783244256438932200,5.79893212890625,-0.010324269533157349,-0.008772794157266617,0.022234341129660606
1783244256448943400,5.808943359375,-0.013412697240710258,0.005865940824151039,0.02040507271885872
1783244256458955300,5.818955322265625,-0.01732487976551056,0.016482632607221603,0.019411446526646614
1783244256468966100,5.828966064453125,-0.021676091477274895,0.01741201803088188,0.016879107803106308
1783244256478978000,5.83897802734375,-0.018911730498075485,0.012943499721586704,0.01059964019805193
1783244256488989400,5.848989501953125,-0.012441027909517288,0.006775154732167721,0.005008096806704998
1783244256499000300,5.859000244140625,-0.0031194319017231464,-0.003288131905719638,-0.0006532515399158001
1783244256509012200,5.86901220703125,-0.001290569081902504,-0.003505016677081585,-0.0036312283482402563
1783244256519023000,5.879023193359375,0.0032559793908149004,-0.00034810579381883144,-0.0034115174785256386
1783244256529035300,5.88903515625,0.0074259075336158276,-0.008331289514899254,-0.0021800121758133173
1783244256539046400,5.89904638671875,0.005537992808967829,-0.0018528841901570559,0.001873052679002285
1783244256549057300,5.909057373046875,-0.0002901875413954258,0.011440561152994633,0.001979667227715254
1783244256559069200,5.919069091796875,0.001755919074639678,0.011156667955219746,0.003407654818147421
1783244256569080300,5.929080322265625,0.003968529403209686,0.004581372253596783,0.008319680579006672
1783244256579092200,5.93909228515625,0.000770872225984931,0.007656524423509836,0.005453053861856461
1783244256589103000,5.94910302734375,-0.004252311307936907,0.014762531965970993,0.00310225086286664
1783244256599114200,5.9591142578125,-0.0035793306306004524,0.006216181442141533,-0.0013239230029284954
1783244256609126400,5.96912646484375,-0.0011890251189470291,-0.019452974200248718,0.0012605851516127586
1783244256619137300,5.97913720703125,-0.0040162368677556515,-0.028694409877061844,0.0017862929962575436
1783244256629149200,5.989149169921875,-0.014749129302799702,-0.01986822672188282,0.005471577402204275
1783244256639160600,5.99916064453125,-0.02312423661351204,-0.005779837723821402,0.011274339631199837
1783244256649172500,6.00917236328125,-0.028500095009803772,0.0010644859867170453,0.0184616781771183
1783244256659183600,6.01918359375,-0.0377628356218338,0.01172565296292305,0.024509716778993607
1783244256669194500,6.029194580078125,-0.04733419790863991,0.03262468799948692,0.02162238396704197
1783244256679206700,6.03920654296875,-0.04849773272871971,0.030643032863736153,0.014540238305926323
1783244256689217500,6.049217529296875,-0.03947911411523819,0.005980086512863636,0.0033379094675183296
1783244256699229400,6.0592294921875,-0.03284304961562157,-0.005644078832119703,-0.008737660944461823
1783244256709240600,6.069240478515625,-0.031576115638017654,-0.006639670580625534,-0.015223019756376743
1783244256719251700,6.079251708984375,-0.026893746107816696,-0.015833701938390732,-0.01318543590605259
1783244256729263600,6.089263671875,-0.027670608833432198,-0.017240455374121666,-0.003430573735386133
1783244256739274500,6.0992744140625,-0.031013939529657364,-0.011109592393040657,0.010940908454358578
1783244256749286700,6.10928662109375,-0.029670653864741325,-0.011536710895597935,0.02668031118810177
1783244256759297500,6.119297607421875,-0.02145400084555149,-0.008638659492135048,0.02934507094323635
1783244256769309400,6.129309326171875,-0.01899305358529091,0.0018309165025129914,0.023490265011787415
1783244256779320600,6.139320556640625,-0.023676224052906036,0.016723312437534332,0.005507268942892551
1783244256789331700,6.149331787109375,-0.028547491878271103,0.02279449626803398,-0.010414033196866512
1783244256799343600,6.159343505859375,-0.029818885028362274,0.018244754523038864,-0.02005414292216301
1783244256809354500,6.1693544921875,-0.02834280952811241,0.004957188852131367,-0.02344052866101265
1783244256819366400,6.179366455078125,-0.0217291172593832,-0.012581591494381428,-0.017824988812208176
1783244256829377500,6.18937744140625,-0.011281910352408886,-0.01806197687983513,-0.005287652835249901
1783244256839389400,6.199389404296875,0.0003108296077698469,-0.022262848913669586,0.0149313323199749
1783244256849400600,6.209400634765625,0.004541683942079544,-0.014812428504228592,0.02754989080131054
1783244256859411500,6.219411376953125,0.0018526900094002485,0.005945846438407898,0.029753388836979866
1783244256869423600,6.229423583984375,-0.0022267685271799564,0.015567293390631676,0.024797335267066956
1783244256879434500,6.2394345703125,-0.0019817575812339783,0.004243798088282347,0.019732803106307983
1783244256889446400,6.2494462890625,0.00007273140363395214,-0.0072672413662076,0.010236562229692936
1783244256899457500,6.25945751953125,0.00009084097109735012,-0.012523788958787918,0.005131549201905727
1783244256909468700,6.26946875,0.006146131083369255,-0.016726577654480934,0.0027110916562378407
1783244256919480600,6.27948046875,0.0100932028144598,-0.008853740990161896,0.00514442240819335
1783244256929491500,6.289491455078125,0.009566999971866608,0.013380338437855244,0.003241125028580427
1783244256939503600,6.299503662109375,0.004760261159390211,0.04449591413140297,-0.0006241868250072002
1783244256949514800,6.3095146484375,0.0027420292608439922,0.05135837569832802,-0.00823444128036499
1783244256959526700,6.319526611328125,0.007698172237724066,0.04521020129323006,-0.01972571387887001
1783244256969537500,6.32953759765625,0.00833144225180149,0.03724546730518341,-0.03238948434591293
1783244256979548400,6.33954833984375,0.007535689510405064,0.007656681351363659,-0.03255966305732727
1783244256989560600,6.349560546875,0.01230396144092083,-0.02681633085012436,-0.02276180498301983
1783244256999571500,6.359571533203125,0.01976613886654377,-0.030056599527597427,-0.006192948669195175
1783244257009583400,6.369583251953125,0.015555137768387794,-0.010391227900981903,0.012131855823099613
1783244257019594800,6.3795947265625,0.0029325527139008045,0.011312468908727169,0.026386160403490067
1783244257029606700,6.389606689453125,-0.006866666488349438,0.032282471656799316,0.0318012498319149
1783244257039617500,6.399617431640625,-0.009082149714231491,0.040034402161836624,0.025906877592206
1783244257049628400,6.40962841796875,-0.01066552847623825,0.014901954680681229,0.01759163662791252
1783244257059640600,6.419640625,-0.009362444281578064,-0.015626126900315285,0.012506330385804176
1783244257069651700,6.429651611328125,-0.006296465173363686,-0.038181498646736145,0.010437406599521637
1783244257079663600,6.43966357421875,-0.009100507013499737,-0.04306040704250336,0.014957856386899948
1783244257089674500,6.449674560546875,-0.01560715027153492,-0.03312614932656288,0.02546093799173832
1783244257099686700,6.459686767578125,-0.02246399037539959,-0.007569390349090099,0.033014461398124695
1783244257109697500,6.469697509765625,-0.029230955988168716,0.023130590096116066,0.03238922357559204
1783244257119708400,6.47970849609375,-0.033132221549749374,0.03741871193051338,0.022099569439888
1783244257129720600,6.489720458984375,-0.0341104157269001,0.02950439788401127,0.006338049191981554
1783244257139731700,6.499731689453125,-0.02712228149175644,0.01494596153497696,-0.008995633572340012
1783244257149743600,6.50974365234375,-0.01868991181254387,0.0033984947949647903,-0.019060518592596054
1783244257159754500,6.51975439453125,-0.008852195926010609,-0.008579071611166,-0.02132740058004856
1783244257169766700,6.5297666015625,0.003738771192729473,-0.010687796398997307,-0.014058088883757591
1783244257179777500,6.539777587890625,0.008113279938697815,0.0018599537434056401,-0.0032373997382819653
1783244257189788700,6.54978857421875,0.007723826915025711,0.014502594247460365,0.0008357581682503223
1783244257199800600,6.559800537109375,0.003276081522926688,0.0196377020329237,0.0015689260326325893
1783244257209811500,6.5698115234375,-0.0021526734344661236,0.019187811762094498,-0.004849943798035383
1783244257219823600,6.57982373046875,-0.00404005590826273,0.020569458603858948,-0.011141128838062286
1783244257229834500,6.58983447265625,-0.0009122476913034916,0.021003320813179016,-0.014438068494200706
1783244257239846400,6.599846435546875,0.003583167912438512,0.014539829455316067,-0.015676971524953842
1783244257249857800,6.60985791015625,0.006506019271910191,0.008868906646966934,-0.012777152471244335
1783244257259868700,6.61986865234375,0.01086295023560524,0.0008993966039270163,-0.008183998055756092
1783244257269880600,6.629880615234375,0.013089867308735847,-0.01361623965203762,0.0001966678537428379
1783244257279891500,6.639891357421875,0.010390487499535084,-0.011536311358213425,0.010951577685773373
1783244257289903600,6.649903564453125,0.004105381667613983,0.002766782185062766,0.015909548848867416
1783244257299914500,6.65991455078125,0.0010592581238597631,0.010995684191584587,0.02340128645300865
1783244257309926400,6.669926513671875,0.00023107882589101791,0.014337707310914993,0.021116366609930992
1783244257319937500,6.6799375,0.004815177991986275,0.01714414730668068,0.011482113972306252
1783244257329948700,6.68994873046875,0.006340039893984795,0.010355459526181221,0.0008682808838784695
1783244257339960600,6.699960693359375,0.007978683337569237,-0.0032682069577276707,-0.011605698615312576
1783244257349971500,6.709971435546875,0.00470051309093833,-0.0001208665780723095,-0.017581578344106674
1783244257359983400,6.7199833984375,0.0037292581982910633,0.01355073694139719,-0.019871365278959274
1783244257369994800,6.729994873046875,0.0059782974421978,0.015960099175572395,-0.01629074662923813
1783244257380006700,6.740006591796875,0.005089601036161184,0.011813823133707047,-0.007077539339661598
1783244257390017500,6.750017578125,0.007066596299409866,0.007468538824468851,-0.001269668573513627
1783244257400028400,6.7600283203125,0.008184857666492462,0.0017773638246580958,0.0024379841051995754
1783244257410040600,6.77004052734375,0.009848570451140404,-0.01570320315659046,0.0013126037083566189
1783244257420051500,6.780051513671875,0.010073341429233551,-0.021636459976434708,0.0017629442736506462
1783244257430063400,6.7900634765625,0.004671082831919193,-0.016577674075961113,0.0019162711687386036
1783244257440074500,6.800074462890625,-0.0022491412237286568,-0.01102817989885807,0.005724058486521244
1783244257450086700,6.810086669921875,-0.004313468933105469,-0.0011805719695985317,0.006009181495755911
1783244257460097500,6.82009765625,-0.006436807103455067,0.008710142225027084,0.002029087394475937
1783244257470108400,6.8301083984375,-0.00923527404665947,0.015251582488417625,-0.008934121578931808
1783244257480120600,6.84012060546875,-0.010776711627840996,0.009414466097950935,-0.01658778078854084
1783244257490131700,6.850131591796875,-0.013086057268083096,-0.0027270298451185226,-0.02036529779434204
1783244257500143600,6.8601435546875,-0.011921724304556847,-0.02202669158577919,-0.019831333309412003
1783244257510154500,6.870154541015625,-0.006730204448103905,-0.03277355432510376,-0.012817133218050003
1783244257520166700,6.880166748046875,-0.004092343617230654,-0.031122129410505295,-0.004984509199857712
1783244257530177500,6.890177490234375,-0.006559964269399643,-0.01518175657838583,0.00036931224167346954
1783244257540188700,6.900188720703125,-0.007077416405081749,0.00674804300069809,-0.000585697591304779
1783244257550200600,6.91020068359375,-0.009350289590656757,0.026281606405973434,-0.011259160935878754
1783244257560211700,6.920211669921875,-0.008289818651974201,0.020934244617819786,-0.02514541521668434
1783244257570223600,6.9302236328125,-0.009176068007946014,-0.009787358343601227,-0.03836860507726669
1783244257580234500,6.940234375,-0.010749731212854385,-0.046778932213783264,-0.04183976724743843
1783244257590246400,6.950246337890625,-0.009067961014807224,-0.07242003828287125,-0.03205197677016258
1783244257600257500,6.960257568359375,-0.006413588300347328,-0.07627896219491959,-0.013590946793556213
1783244257610268700,6.9702685546875,-0.004650525748729706,-0.05093463137745857,0.007854629307985306
1783244257620280600,6.980280517578125,-0.003188716247677803,-0.009332060813903809,0.019418872892856598
1783244257630291500,6.99029150390625,-0.0037107127718627453,0.022624723613262177,0.01506270095705986
1783244257640303400,7.000303466796875,-0.00853636022657156,0.03618394210934639,-0.003685153089463711
1783244257650314200,7.010314208984375,-0.012994324788451195,0.02171001397073269,-0.024868080392479897
1783244257660326400,7.020326416015625,-0.013007374480366707,-0.002609706250950694,-0.041042521595954895
1783244257670337500,7.030337646484375,-0.010561112314462662,-0.012888438999652863,-0.05633031576871872
1783244257680349400,7.040349365234375,-0.009333394467830658,-0.014254906214773655,-0.06274187564849854
1783244257690360300,7.0503603515625,-0.010865744203329086,-0.019176263362169266,-0.054298244416713715
1783244257700371500,7.060371337890625,-0.010595699772238731,-0.020028742030262947,-0.03862500935792923
1783244257710383400,7.07038330078125,-0.010956792160868645,-0.015067636035382748,-0.023474201560020447
1783244257720394500,7.08039453125,-0.012341903522610664,-0.006026470102369785,-0.013773372396826744
1783244257730406400,7.090406494140625,-0.012763379141688347,-0.007789731025695801,-0.006080605089664459
1783244257740417500,7.10041748046875,-0.01290612481534481,-0.017286032438278198,-0.009699574671685696
1783244257750429400,7.110429443359375,-0.02850755676627159,-0.03616882115602493,-0.01630302704870701
1783244257760440300,7.1204404296875,-0.043626055121421814,-0.04808300361037254,-0.024838456884026527
1783244257770451200,7.130451171875,-0.04779718071222305,-0.04657601937651634,-0.02402975969016552
1783244257780463400,7.14046337890625,-0.04905099794268608,-0.04387024790048599,-0.00832776166498661
1783244257790474500,7.150474609375,-0.04544898867607117,-0.03610926866531372,0.0144968805834651
1783244257800486400,7.160486328125,-0.03783181682229042,-0.018522286787629128,0.03445913642644882
1783244257810497300,7.170497314453125,-0.02386385202407837,-0.006588383577764034,0.039098773151636124
1783244257820509400,7.180509521484375,-0.019762849435210228,0.0034346901811659336,0.026974469423294067
1783244257830520300,7.190520263671875,-0.02403862588107586,0.0061278389766812325,0.007754030637443066
1783244257840532200,7.2005322265625,-0.027642948552966118,-0.002969785826280713,-0.008761562407016754
1783244257850543600,7.210543701171875,-0.026873474940657616,-0.007644342258572578,-0.017776265740394592
1783244257860554500,7.220554443359375,-0.017056263983249664,-0.014054038561880589,-0.016957076266407967
1783244257870566400,7.23056640625,-0.00609236303716898,-0.022211743518710136,-0.009102064184844494
1783244257880577300,7.240577392578125,-0.001425439491868019,-0.0134480781853199,-0.006975529715418816
1783244257890589400,7.25058935546875,-0.0008224840275943279,0.004948059096932411,-0.006721687503159046
1783244257900600300,7.260600341796875,-0.005404452793300152,0.010918333195149899,-0.004753079265356064
1783244257910612200,7.2706123046875,-0.00632510706782341,0.006283900700509548,-0.003919509705156088
1783244257920623400,7.280623291015625,-0.008591457270085812,0.002087557688355446,-0.0048010158352553844
1783244257930634500,7.290634521484375,-0.005572877824306488,-0.006466946564614773,-0.006281573325395584
1783244257940646400,7.300646484375,-0.00025880616158246994,-0.0049244435504078865,-0.0066440291702747345
1783244257950657300,7.3106572265625,0.00194264086894691,-0.006568515673279762,-0.006301600951701403
1783244257960669200,7.320669189453125,0.0032204254530370235,-0.00826468225568533,-0.003322056494653225
1783244257970680600,7.3306806640625,0.0032502568792551756,-0.00769014423713088,-0.0010934483725577593
1783244257980692500,7.3406923828125,-0.0008371626026928425,-0.009674198925495148,-0.002952601294964552
1783244257990703400,7.350703369140625,-0.0017269644886255264,-0.003545294050127268,-0.005936640314757824
1783244258000715500,7.360715576171875,-0.00014211749657988548,-0.0021117147989571095,-0.007271949201822281
1783244258010726400,7.370726318359375,-0.0034213545732200146,-0.0007461316417902708,-0.0016557038761675358
1783244258020737500,7.380737548828125,-0.0019417023286223412,-0.0021144640631973743,0.0020322417840361595
1783244258030749400,7.39074951171875,0.002014488447457552,-0.015661517158150673,0.007567074615508318
1783244258040760300,7.40076025390625,-0.00046438188292086124,-0.030770163983106613,0.011380987241864204
1783244258050772500,7.4107724609375,-0.002279851119965315,-0.0293388981372118,0.009710983373224735
1783244258060783400,7.420783447265625,-0.011119415983557701,-0.018464678898453712,-0.0000063586048781871796
1783244258070795300,7.430795166015625,-0.020429113879799843,-0.009059013798832893,-0.004867788404226303
1783244258080806400,7.440806396484375,-0.023749010637402534,0.004479964263737202,-0.013706287369132042
1783244258090818300,7.450818359375,-0.02714107185602188,0.007665726821869612,-0.01737365685403347
1783244258100829400,7.460829345703125,-0.02876986190676689,0.0012562971096485853,-0.01701413094997406
1783244258110840300,7.47084033203125,-0.028916437178850174,-0.008565885946154594,-0.01474978681653738
1783244258120852500,7.4808525390625,-0.030129238963127136,-0.017719170078635216,-0.009227190166711807
1783244258130863400,7.49086328125,-0.02858693152666092,-0.03160976618528366,0.0049301376566290855
1783244258140875300,7.500875244140625,-0.02294129505753517,-0.04506725072860718,0.020916560664772987
1783244258150886400,7.510886474609375,-0.019777676090598106,-0.032076265662908554,0.030926521867513657
1783244258160898600,7.520898681640625,-0.026947438716888428,-0.0026398133486509323,0.028039921075105667
1783244258170909400,7.530909423828125,-0.04430294409394264,0.02322249859571457,0.016866832971572876
1783244258180921300,7.54092138671875,-0.05481657013297081,0.02894270233809948,0.00424078619107604
1783244258190932200,7.55093212890625,-0.058668263256549835,0.021690644323825836,-0.006207703612744808
1783244258200944400,7.5609443359375,-0.04489865526556969,0.011320294812321663,-0.012124449014663696
1783244258210955300,7.570955322265625,-0.02697964943945408,-0.004002725705504417,-0.011382536962628365
1783244258220966400,7.58096630859375,-0.0041528972797095776,-0.01941976509988308,-0.0024439035914838314
1783244258230978600,7.590978515625,0.007567711640149355,-0.028717665001749992,0.008762834593653679
1783244258240989400,7.600989501953125,0.005186046939343214,-0.026742665097117424,0.01948338933289051
1783244258251001300,7.61100146484375,-0.009627469815313816,-0.009217112325131893,0.0232855211943388
1783244258261012200,7.62101220703125,-0.0135942492634058,-0.005475371144711971,0.0208860132843256
1783244258271024400,7.6310244140625,-0.011098196730017662,-0.011887556873261929,0.01687692105770111
1783244258281035500,7.641035400390625,-0.006852851714938879,-0.019888225942850113,0.009982263669371605
1783244258291047400,7.65104736328125,-0.000844122376292944,-0.03779592737555504,0.009479055181145668
1783244258301058300,7.661058349609375,0.00038066552951931953,-0.05067124590277672,0.008546682074666023
1783244258311070500,7.671070556640625,-0.0015696948394179344,-0.04184509441256523,0.009214631281793118
1783244258321081300,7.681081298828125,0.0011762904468923807,-0.015215880237519741,0.0032446226105093956
1783244258331092500,7.691092529296875,-0.0004227464087307453,0.017980702221393585,-0.009114616550505161
1783244258341104400,7.7011044921875,-0.0009319428354501724,0.03433277830481529,-0.022837087512016296
1783244258351115500,7.711115478515625,-0.0007210336625576019,0.009280592203140259,-0.034315627068281174
1783244258361127400,7.72112744140625,0.008391505107283592,-0.02200862020254135,-0.044791437685489655
1783244258371138300,7.73113818359375,0.024554697796702385,-0.04045196250081062,-0.04755524918437004
1783244258381150500,7.741150390625,0.0360821895301342,-0.052558157593011856,-0.03966962918639183
1783244258391161300,7.751161376953125,0.03270644322037697,-0.05189638212323189,-0.02622329443693161
1783244258401173200,7.76117333984375,0.01106000505387783,-0.07261098176240921,-0.006832820363342762
1783244258411184400,7.771184326171875,-0.0017261612229049206,-0.12602458894252777,0.056632451713085175
1783244258421196500,7.781196533203125,0.013720439746975899,0.0016795768169686198,0.10096263140439987
1783244258431207400,7.79120751953125,-0.0021691969595849514,0.09785911440849304,0.12904399633407593
1783244258441219300,7.80121923828125,-0.017061859369277954,0.10531169921159744,0.1341247707605362
1783244258451230200,7.811230224609375,-0.020172052085399628,0.08507700264453888,0.09479352831840515
1783244258461241600,7.82124169921875,-0.0180154237896204,0.020660199224948883,0.035381339490413666
1783244258471253500,7.83125341796875,-0.01619570143520832,-0.061549246311187744,-0.025823473930358887
1783244258481264400,7.841264404296875,-0.0118600744754076,-0.12529493868350983,-0.07841398566961288
1783244258491276500,7.851276611328125,-0.006369979120790958,-0.16956982016563416,-0.10364296287298203
1783244258501287400,7.861287353515625,0.005468304269015789,-0.177200585603714,-0.07578496634960175
1783244258511299300,7.87129931640625,0.01955830119550228,-0.12166450917720795,-0.005665742326527834
