time,seconds_elapsed,z,y,x
1783246435100548900,0.063548828125,-0.007893968120217323,0.006951280442625283,0.0027977455263258886
1783246435110560800,0.073560791015625,-0.018218962779641152,0.010244221040792763,-0.0003853277894668281
1783246435120572200,0.083572265625,-0.028246435797214507,0.011481398152932525,0.016641450080520006
1783246435130584000,0.093583984375,-0.021660043144226072,-0.005186389661952853,0.0038486770680756306
1783246435140595000,0.103594970703125,-0.02510053898692131,0.013646394167095422,0.014648618595756124
1783246435150607000,0.113607177734375,-0.029440029495954513,0.016789624096266925,-0.007236059050622861
1783246435160619000,0.123618896484375,-0.019414310044050215,-0.003105455202050507,0.0040284700647927815
1783246435170630000,0.1336298828125,-0.019714169773459432,0.010234539896994828,0.016871171749744097
1783246435180641800,0.143641845703125,-0.01687222434580326,0.009518719777837395,0.0018310810348135418
1783246435190653200,0.153653076171875,-0.0319850378036499,-0.01025331766270101,0.003637413504149299
1783246435200665000,0.1636650390625,-0.02405482932627201,-0.008588453190401196,0.008699994123342911
1783246435210677000,0.173677001953125,-0.027796353942155835,0.014161796343326568,-0.0010226872613769956
1783246435220688100,0.183688232421875,-0.011184241837263107,-0.007730996110849082,-0.002859330387297086
1783246435230700000,0.193699951171875,-0.022703999239206313,0.0032943288376554845,-0.0037379352861549703
1783246435240711000,0.2037109375,-0.030334932509064674,0.018383505691587924,0.007277126279950607
1783246435250722800,0.213722900390625,-0.04170739039480686,0.00027742870189249516,0.014032215146906673
1783246435260734200,0.223734130859375,-0.018815175107121468,-0.010439560949802399,0.004601011539029423
1783246435270746000,0.23374609375,-0.023307225829362867,0.008328742808289826,0.004245172422239557
1783246435280758000,0.243758056640625,-0.012235796716809272,-0.0056802010608837,0.009826182858389801
1783246435290769200,0.25376904296875,-0.02405775193572044,-0.0020709245225414633,0.017483686758053955
1783246435300781000,0.263781005859375,-0.01567746160328388,0.01586721202172339,0.008077914418955333
1783246435310792000,0.2737919921875,-0.021812603357434273,0.005692987477220595,-0.0037454701386392115
1783246435320803800,0.283803955078125,-0.01208382102549076,-0.0028908626032993195,-0.0022534506157506256
1783246435330816000,0.29381591796875,-0.02270750637054443,0.002181581822782755,0.0008107980763656087
1783246435340827000,0.303826904296875,-0.018217793735861777,0.0030771058904007077,0.007591409543645568
1783246435350838800,0.3138388671875,-0.010737667113542557,-0.01004957525152713,0.0028217862723278813
1783246435360850200,0.32385009765625,-0.02390636076629162,-0.00972911112550646,0.00452716998468386
1783246435370862000,0.333862060546875,-0.026300562426447866,-0.00149538965690881,0.007903142373939045
1783246435380873000,0.343873046875,-0.030790275061130523,-0.005512991267815232,0.005765856350609101
1783246435390884900,0.353884765625,-0.020161913540959357,-0.0012664032066240906,0.012422827738488558
1783246435400897000,0.36389697265625,-0.014624153158068656,-0.002038848883844912,0.010355323582317213
1783246435410908000,0.373907958984375,-0.013877718704938887,-0.0012429857984185219,0.0041010421106591815
1783246435420919800,0.383919921875,-0.025399229672551153,0.004885360888764262,-0.005061356776487082
1783246435430931200,0.39393115234375,-0.0120820674598217,-0.001095722814835608,0.003168670331104658
1783246435440943000,0.403943115234375,-0.018068740653991697,-0.006298771350644529,0.011584997808013576
1783246435450955000,0.413955078125,-0.03452887706756592,0.000744717420078814,0.0009138291925773956
1783246435460966100,0.423966064453125,-0.022564298507571218,0.0015047420071437954,0.006511868395342025
1783246435470978000,0.43397802734375,-0.02031856540739536,-0.007061426286213099,0.01426809941214742
1783246435480989000,0.443989013671875,-0.021367197677493094,-0.013625132183358072,-0.0026558642540476284
1783246435491000800,0.454000732421875,-0.007754851910471916,0.008494199035689234,0.00012820893995231018
1783246435501012000,0.464011962890625,-0.019731705430150032,-0.003631086511351168,0.010799279373977332
1783246435511023900,0.47402392578125,-0.03170388277471065,0.00013619360029697419,-0.00741883858887013
1783246435521036000,0.4840361328125,-0.00985737714767456,-0.002839059350825846,0.011055194930383004
1783246435531047200,0.494047119140625,-0.02736614583134651,-0.00011876754146069287,0.016224779588007367
1783246435541059000,0.50405908203125,-0.01973521256148815,0.004983962425030767,0.004330197524302639
1783246435551070000,0.514070068359375,-0.02288110937178135,-0.0016643895482644437,-0.007496803762484341
1783246435561081900,0.524081787109375,-0.0411392351180315,-0.0003986073961481452,0.003636468222655821
1783246435571094000,0.534093994140625,-0.01944061352908611,0.004951667590625584,0.007243696651095524
1783246435581105000,0.54410498046875,-0.02408230185508728,0.011008410346321761,-0.002601992342073936
1783246435591116800,0.55411669921875,-0.010765724164247512,-0.0061797115482389925,-0.0023667245647637173
1783246435601128200,0.564128173828125,-0.017648469415307046,-0.0038009631855413315,0.024921657022368163
1783246435611140400,0.574140380859375,-0.014803601378202438,0.01277706398665905,0.004739155067817773
1783246435621151200,0.584151123046875,-0.005677461114525795,0.0017418752312660217,-0.011002158702048473
1783246435631163100,0.5941630859375,-0.013311316993832588,0.004947174078598618,0.012100733344384934
1783246435641175300,0.60417529296875,-0.006276011529564857,0.0081834160534665,0.016929395609849598
1783246435651186200,0.614186279296875,-0.03246259218752384,0.01012464978173375,-0.0035736983348848297
1783246435661198000,0.624197998046875,-0.007024199548363685,-0.0027300825510174036,0.002973882977943867
1783246435671209200,0.634209228515625,-0.01944412066042423,-0.0010796119302511214,0.011821861604077276
1783246435681221000,0.64422119140625,-0.028722236615419387,0.008359759001061319,0.006727052365848794
1783246435691232300,0.654232177734375,-0.015106383717060088,-0.007175846446119249,0.003272838525054976
1783246435701244200,0.664244140625,-0.005678630158305168,-0.00105550040230155,0.013701533304259645
1783246435711256300,0.67425634765625,-0.011067921981215477,0.006931772024556994,0.0064703924573492255
1783246435721267200,0.68426708984375,-0.017055764219164847,-0.0027430516304448246,0.014093411848810501
1783246435731279000,0.694279052734375,-0.012266191855072975,-0.010844999945536254,0.004249499254196416
1783246435741290000,0.7042900390625,-0.017802783194184303,-0.0008318111816421151,-0.009736424498993437
1783246435751302100,0.71430224609375,-0.01795183627605438,0.001099193413555622,0.005122756691079121
1783246435761314000,0.72431396484375,-0.009573884031176566,-0.000042560500092804426,0.005638542459800374
1783246435771325200,0.7343251953125,-0.015711363872885704,0.010339096250012517,0.011089183964952827
1783246435781337300,0.74433740234375,-0.017058102306723593,0.007954977592453361,-0.006581721044448204
1783246435791348200,0.75434814453125,-0.0032920272827148436,-0.006996727019548415,0.0017750468485057353
1783246435801360100,0.764360107421875,-0.021401099947094916,0.0059455374661833045,0.0024573619902832433
1783246435811371000,0.77437109375,-0.023045944544672965,0.00831223006490618,0.005304072641313541
1783246435821383200,0.784383056640625,-0.0324731135815382,-0.0015679799690842627,0.007386507221846841
1783246435831395000,0.79439501953125,-0.02005202342569828,0.004396262197569012,0.012500827161432243
1783246435841406200,0.80440625,-0.017956512451171875,0.002284859534166753,-0.00006209175104741007
1783246435851418400,0.81441845703125,-0.02244622508585453,0.007376629715226591,-0.005974012358707841
1783246435861429200,0.82442919921875,-0.022146949878334998,0.003038198652118444,-0.0011085046645952388
1783246435871441200,0.834441162109375,-0.025593875461816785,0.010336465901508926,0.010343671960430218
1783246435881453300,0.844453369140625,-0.01362578977048397,-0.003050948535837233,0.011205702467111405
1783246435891464200,0.854464111328125,-0.02739186479449272,0.011895093520358203,0.000402717315685004
1783246435901476000,0.86447607421875,-0.01407411805987358,-0.015496369415335356,0.0054963734931545325
1783246435911487000,0.874487060546875,-0.00928746830523014,0.008489961251989007,0.004101994242018554
1783246435921499100,0.8844990234375,-0.04130757742226124,0.006782426681742072,-0.008601467935601249
1783246435931510300,0.89451025390625,-0.011674655702710151,0.017300057836435734,-0.0014107093314290977
1783246435941522200,0.904522216796875,-0.02813420759439468,-0.01250102352425456,0.007279357052943669
1783246435951534300,0.914534423828125,-0.004790156885981559,0.01604545466545969,-0.008103393636795226
1783246435961545200,0.924545166015625,-0.05462357059121131,-0.012462445079535246,-0.003502902687573805
1783246435971557000,0.93455712890625,-0.005693243205547332,0.008050948780216276,0.0023668980946997178
1783246435981568000,0.944568115234375,-0.043402503874897955,0.010286489279940724,0.01002353891126113
1783246435991580200,0.954580078125,-0.009583236381411552,0.018475275628268718,0.012227270917058922
1783246436001592000,0.964592041015625,-0.03696750239133834,-0.011740962404571472,0.012575632263580336
1783246436011603200,0.974603271484375,0.0037362639188766476,0.018724829942546782,0.004774365661805495
1783246436021615400,0.984615478515625,-0.030228549525141715,0.013118278639763593,-0.002630015143449418
1783246436031626200,0.994626220703125,-0.011669395005702972,0.0013559446536004543,0.0027190702499472535
1783246436041638100,1.00463818359375,-0.03321720994710922,-0.001337203420512378,-0.006890054057969245
1783246436051649000,1.01464892578125,-0.020496260061860082,0.0004268836425617337,-0.005588040681846905
1783246436061661200,1.0246611328125,-0.015557634615898132,-0.000490559995919466,0.014516037158074322
1783246436071673000,1.034673095703125,-0.033652678754925724,-0.0047628304876387115,-0.003077096757246181
1783246436081684200,1.044684326171875,0.007954758396744728,0.0055466012764722105,0.010109943119657691
1783246436091696400,1.0546962890625,-0.057740241307020185,-0.002487798227742314,-0.0085585717920796
1783246436101707300,1.064707275390625,-0.038430560681223865,0.022083602318540216,-0.0049770326440338976
1783246436111719200,1.07471923828125,0.029206220740079877,0.016808474927209317,0.011696344661421608
1783246436121731000,1.08473095703125,-0.074941551476717,0.002723360549286008,-0.010804526371252723
1783246436131742200,1.0947421875,-0.013140636602044104,0.00242883458212018,0.007981324459973257
1783246436141754000,1.104754150390625,-0.007157470539212226,0.005462722385302186,-0.0021067858537891877
1783246436151765000,1.114764892578125,-0.03034779199063778,-0.0037405017025768754,-0.0047412739596678875
1783246436161777200,1.124777099609375,-0.006110007312893867,0.002622347860224545,0.016186890696454792
1783246436171788300,1.134788330078125,-0.04351999277472496,0.0011474164694547653,0.005237626658845693
1783246436181800200,1.14480029296875,-0.021226327902078627,0.004063450046628714,0.00914913983006263
1783246436191812400,1.154812255859375,-0.03544190025925636,0.0010560118589550255,-0.0007054448556154966
1783246436201823200,1.1648232421875,-0.021976269486546515,0.0181544827086851,0.003933400776039343
1783246436211835100,1.174835205078125,-0.024071195939183235,0.0036340821860358116,0.002473477441444993
1783246436221846000,1.184845947265625,-0.035141456007957456,0.009546192306652665,-0.000838138174440246
1783246436231858200,1.194858154296875,-0.025413842719793318,0.0030821839243173597,0.009320242630247957
1783246436241870000,1.2048701171875,-0.030202246040105817,0.0030761195097118612,0.007237454139976762
1783246436251881200,1.214881103515625,-0.017781740406155586,0.005760536288097501,-0.001240661410591565
1783246436261893400,1.224893310546875,-0.02242342873215675,0.009719028122909366,-0.01193131561120972
1783246436271904300,1.234904296875,-0.01643967814743519,0.005425495647452772,0.008564905634743627
1783246436281916200,1.244916259765625,-0.015694997259974478,0.007005750576220452,0.007508003293222282
1783246436291927000,1.254927001953125,-0.02841536262333393,0.008089965616352855,0.000049529096996411675
1783246436301939200,1.264939208984375,-0.026022330006957053,0.006471095710247754,0.0035340855604154057
1783246436311951000,1.274951171875,-0.032303017711639403,0.007867080113291739,0.003358697027468588
1783246436321962200,1.284962158203125,-0.030506197422742843,0.009476962995342909,-0.0019023424730054102
1783246436331974100,1.29497412109375,-0.006864040550589561,-0.00008183306455612182,-0.006381812274886761
1783246436341985300,1.3049853515625,-0.03185702750980854,0.013315773973241447,0.0012433945070835762
1783246436351997200,1.3149970703125,-0.016145663636922835,-0.005076316883601248,0.003786633266089484
1783246436362008000,1.325008056640625,-0.018389058649539946,-0.0028469138637185094,0.003207011313806288
1783246436372020200,1.335020263671875,-0.026169629523158072,0.012395590388402341,-0.005477796656847931
1783246436382032100,1.3450322265625,-0.024224925196170807,0.015543204231746493,0.0008982936967280693
1783246436392043000,1.35504296875,-0.02392798807621002,0.01021875780597329,0.00750729547374649
1783246436402055200,1.36505517578125,-0.01614624815881252,0.016645612515695393,-0.006552990423596929
1783246436412066300,1.37506640625,-0.009413725033402442,0.010237133712880313,0.004370422220125328
1783246436422078200,1.385078125,-0.02288227841556072,0.006080817751027643,0.002463081628305372
1783246436432090000,1.395090087890625,-0.011812018346786498,0.008993161533772945,-0.007618884355749469
1783246436442101200,1.405101318359375,-0.010911270114779471,0.006224719733744859,0.008679147698136512
1783246436452113200,1.415113037109375,-0.006269581788778305,-0.006115121879428625,0.00962051106832223
1783246436462124000,1.4251240234375,-0.019438275441527365,-0.0019109116552397608,0.010903310570609755
1783246436472136200,1.43513623046875,-0.01868950290083885,-0.0026697306659072637,0.0029488307350780812
1783246436482147300,1.445147216796875,-0.017345687076449394,0.007136829609982669,-0.0004811414303141646
1783246436492159200,1.4551591796875,-0.03605097206830978,0.004600223804451525,0.007255512669763993
1783246436502171400,1.46517138671875,-0.030067221483588216,-0.0029802213871851562,0.0077570552840013985
1783246436512182300,1.475182373046875,-0.023930910685658453,-0.004966572898812592,0.012236171176144853
1783246436522194200,1.485194091796875,-0.018842647635936734,0.010883541857637465,0.0032403085119207388
1783246436532205000,1.495205078125,-0.02482990535199642,0.00179499365799129,-0.003630833066313062
1783246436542217200,1.50521728515625,-0.017197218516469,0.00954359849076718,0.0026208911220775917
1783246436552228000,1.51522802734375,-0.01973988873660564,0.00711739425715059,0.007229412397416308
1783246436562240000,1.525239990234375,-0.011359598404169082,0.004869067341089248,-0.001690211259399075
1783246436572252200,1.535252197265625,-0.016747721183300018,0.009836882348917424,0.002228834481013473
1783246436582263300,1.54526318359375,-0.038593642288446424,0.007719853662326932,-0.004529909931041766
1783246436592275200,1.555275146484375,-0.03575228138267994,0.0059600774481892585,0.003743148034100886
1783246436602286000,1.5652861328125,-0.028422376886010167,-0.0029578634249046443,0.010807585978019051
1783246436612297700,1.575297607421875,-0.017648469415307046,0.007215119010582566,-0.0029188876879634334
1783246436622309600,1.5853095703125,-0.019894787037372588,0.011446436437405645,-0.01395252380708698
1783246436632320800,1.59532080078125,-0.009120295044779778,0.009041348057053982,0.0013335752748767843
1783246436642332700,1.605332763671875,-0.011213467931747436,0.0022794892393052575,0.004408393310068641
1783246436652343800,1.61534375,-0.028871874219179153,-0.0008425517713651061,-0.017287506598827895
1783246436662356000,1.62535595703125,-0.02976911531984806,0.014718261182308196,0.0013055296406149863
1783246436672366800,1.635366943359375,-0.006427402698993683,0.011004062964767218,0.010361655141692608
1783246436682378800,1.645378662109375,-0.01465571734011173,0.0003437719363719225,0.001693832555168774
1783246436692390700,1.655390625,-0.02767711147665977,-0.0009304857831448316,0.007407287431682925
1783246436702401800,1.66540185546875,-0.011667641440033912,0.006745930596254766,0.0038677059955312867
1783246436712413700,1.67541357421875,-0.010614332994818686,0.001971044344641268,0.006696230252610985
1783246436722424800,1.6854248046875,-0.02542377959191799,-0.006828494313172995,-0.0018165593191166408
1783246436732437000,1.69543701171875,-0.016597499057650567,-0.0006371288597583771,0.003348588908696547
1783246436742449000,1.705448974609375,-0.01614800172448158,0.00578442862033844,-0.002601019661116879
1783246436752459800,1.715459716796875,-0.029465163937211034,-0.0036694822929799554,0.008128411630331537
1783246436762471700,1.7254716796875,-0.026021745485067367,0.004063340448774397,0.00586960898602847
1783246436772482800,1.73548291015625,-0.022878186762332914,0.0061448228979483245,0.008596880808740388
1783246436782494700,1.74549462890625,-0.016743045008182526,-0.00329524215310812,-0.014332221006788312
1783246436792505900,1.755505859375,-0.029462825849652288,0.002856887268461287,-0.008988215930596925
1783246436802518000,1.76551806640625,-0.024379238975048064,0.0035464404352009296,0.009071603914711159
1783246436812530000,1.775530029296875,-0.02272854915857315,0.00014744564667344093,0.0027625988644198515
1783246436822540800,1.785540771484375,-0.020032149681448935,-0.006221541395969688,0.0020069924408569932
1783246436832552700,1.795552734375,-0.02003331872522831,0.00713562403358519,0.000950062699872069
1783246436842563800,1.805563720703125,-0.021828969970345495,0.010566877123899757,-0.008248014855431392
1783246436852575700,1.81557568359375,-0.025414427241683003,0.008469174192287028,0.003261157220415771
1783246436862586600,1.825586669921875,-0.02571136436164379,0.007367386962845921,0.009754202184278983
1783246436872598800,1.835598876953125,-0.03498889579474926,0.012461458698846399,0.024405072102625852
1783246436882610700,1.845610595703125,-0.030950434058904647,0.007261442370340228,-0.0017279928363859653
1783246436892621800,1.855621826171875,-0.017936054185032843,0.007344736739620566,0.0037309529895195735
1783246436902633700,1.8656337890625,-0.01718728164434433,-0.0002988733487203717,0.019745453111000823
1783246436912644900,1.875644775390625,-0.00656301177740097,0.001789842558838427,0.011131173642887734
1783246436922656800,1.88565673828125,-0.009254735079407692,-0.0022961481131613254,0.0012508654274861327
1783246436932667600,1.895667724609375,-0.01942892309129238,0.01354139942266047,0.003231113708601333
1783246436942679800,1.9056796875,-0.02900572973191738,0.0024670842332765457,-0.0031720221988158297
1783246436952691700,1.915691650390625,-0.029006898775696753,-0.002301116549223661,0.0015187088837032205
1783246436962702800,1.925702880859375,-0.024219664499163625,-0.004808167466707527,-0.0036375505014671944
1783246436972715000,1.935715087890625,-0.03424538395106792,0.011644881618954241,-0.00408328497497132
1783246436982726000,1.945725830078125,-0.0270616099268198,-0.00035739860292524097,0.0031357087764190507
1783246436992737800,1.95573779296875,-0.013892331752181053,0.01053651851825416,-0.0024472196221817285
1783246437002749700,1.965749755859375,-0.013591887500882149,0.01081431254632771,0.009233491361979394
1783246437012760800,1.9757607421875,-0.022119477349519728,0.007170476151257753,0.008811375226080416
1783246437022772700,1.985772705078125,-0.016432663884758947,0.011357406447082757,0.005797916006285231
1783246437032784000,1.995783935546875,-0.0008685995280742645,0.00022387188374996183,0.007953694384242408
1783246437042795800,2.005795654296875,-0.01867255176603794,-0.0025442776553332804,0.002342400690971408
1783246437052807000,2.015806884765625,-0.020467033967375755,-0.0007819441579282283,0.007199836959771346
1783246437062818800,2.02581884765625,-0.010592121163010596,-0.00016775778234004974,0.0007320657177711837
1783246437072830700,2.035830810546875,-0.019871406161785125,-0.015981157257594168,-0.007785489077330567
1783246437082841900,2.045841796875,-0.011789806514978409,0.0070330769745633,0.012871178860764484
1783246437092853800,2.055853759765625,-0.01313479138314724,-0.002887172808870673,-0.003730994088714942
1783246437102864600,2.06586474609375,-0.016424480578303337,0.0024381138671189543,0.0022562065451289526
1783246437112876800,2.075876708984375,-0.021360183414816856,0.0016296470284461973,0.0004252373914583586
1783246437122888700,2.085888671875,-0.028688334345817565,-0.00820482416767627,0.0009511061627767048
1783246437132899800,2.09589990234375,-0.019409633868932723,0.0031488559523597357,-0.008165992277918848
1783246437142911700,2.105911865234375,-0.01806640256643295,-0.003505998826958239,-0.011233814316743519
1783246437152923000,2.1159228515625,-0.017169161465764044,0.00026106208898127076,0.01627425388607662
1783246437162934800,2.125934814453125,-0.012830840000510215,0.011968633680604397,0.001995575997699052
1783246437172945700,2.135945556640625,-0.029442952105402945,0.02413395897708833,-0.019921382783353328
1783246437182957800,2.145957763671875,-0.018668460112810134,-0.011351342032477259,-0.001302259971294552
1783246437192969700,2.1559697265625,-0.008491934013366698,-0.0005972352407872676,0.026482914989721027
1783246437202980900,2.16598095703125,-0.03258475726246834,0.021729053259827196,-0.008744175758364144
1783246437212992800,2.17599267578125,-0.020463526836037634,-0.01345397686753422,-0.030833981772116385
1783246437223004000,2.18600390625,-0.011334463962912558,-0.012282741131074726,0.012354424977663437
1783246437233015800,2.196015869140625,-0.02121054581105709,0.02558499803561717,0.020818482320127077
1783246437243026700,2.206026611328125,-0.026596915024518965,-0.005250833200290799,-0.0023334707491332665
1783246437253038800,2.216038818359375,-0.021955811220407486,-0.027172413357533513,-0.0163396975048352
1783246437263050800,2.22605078125,-0.026443185767531394,0.00884805397465825,0.00536512777932221
1783246437273061600,2.2360615234375,-0.012673019090294836,0.0014340879237279296,0.02468672717177542
1783246437283073800,2.24607373046875,-0.025689737051725385,-0.021651750239916143,-0.003876864266232587
1783246437293085000,2.2560849609375,-0.02254851641654968,0.01683861433714628,-0.01552574620686937
1783246437303096800,2.266096923828125,-0.020603812089562416,0.011022767665237188,0.0020180412745452484
1783246437313107700,2.276107666015625,-0.013120762857794762,-0.008013393248803914,0.022414204246085135
1783246437323119900,2.286119873046875,-0.02524550041556358,-0.0046251390499994155,-0.005491829748777672
1783246437333131800,2.2961318359375,-0.027343349477648732,0.02401621434893459,-0.02326934607096482
1783246437343142700,2.306142578125,-0.0170142631649971,-0.0037657092090696096,0.015985552588209974
1783246437353154800,2.31615478515625,-0.01476911458671093,0.0031046149518340824,0.016940809769718908
1783246437363166000,2.326166015625,-0.011179565662145613,0.023630795227922496,-0.01471418322881218
1783246437373177900,2.336177734375,-0.010578677159547805,0.0077143007043749086,-0.009693980446620844
1783246437383189800,2.346189697265625,-0.018060557347536085,-0.014893106292560696,0.014537477238324936
1783246437393201000,2.356200927734375,-0.01312251642346382,0.00008892039246857166,0.02541631552138133
1783246437403212800,2.366212890625,-0.019259411743283272,0.026011114493198692,-0.012539862263877875
1783246437413223700,2.3762236328125,-0.022401801422238347,0.009529971824213862,-0.027780523902073036
1783246437423235800,2.38623583984375,-0.03182604784965515,-0.007739471678249538,0.02180363231640076
1783246437433247000,2.3962470703125,-0.014912906971573828,0.00787274266909808,0.031313207523268646
1783246437443259000,2.4062587890625,-0.013414192846417426,0.027260456967167553,0.0016060583735932595
1783246437453270800,2.416270751953125,-0.012962941947579383,-0.011263956009969114,-0.013445247855095658
1783246437463282000,2.426281982421875,-0.02014554692804813,-0.0031774244597181675,0.016660405942739452
1783246437473293800,2.4362939453125,-0.028224808487296103,0.0129515803033486,0.014269875810702796
1783246437483304700,2.4463046875,-0.016848843470215796,-0.004346029847674072,-0.011084163013251963
1783246437493316900,2.45631689453125,-0.03704816641211509,-0.02504424222242087,-0.001687660825997591
1783246437503328800,2.466328857421875,-0.012358546313643455,0.01133683858308941,0.01164102742774412
1783246437513339600,2.476339599609375,-0.021335048973560332,0.003365494377724826,0.024352656928799114
1783246437523351600,2.4863515625,-0.02282967144548893,-0.026622560922428963,-0.00941638049808098
1783246437533363000,2.496363037109375,-0.03629471769630909,0.00758029906116426,-0.008333820842206477
1783246437543374800,2.506374755859375,-0.005018704944849014,0.015319880337268114,0.02911440285433782
1783246437553385700,2.5163857421875,-0.028961890590190886,-0.0014112915700301527,-0.0014396614312776363
1783246437563398000,2.52639794921875,-0.017292495584487914,-0.00855688900835812,-0.014440492270409595
1783246437573409800,2.536409912109375,-0.02822013231217861,0.025371172621846197,-0.004278677399619482
1783246437583420700,2.546420654296875,-0.029716508349776266,0.0038262437572702764,0.019114735725719947
1783246437593432800,2.556432861328125,-0.008317746490240096,-0.0030682284642010926,0.006982824075070675
1783246437603444000,2.56644384765625,-0.020887305206060407,0.010090089925006032,-0.016772417233139277
1783246437613456100,2.5764560546875,-0.019092823004722596,0.02582388482540846,0.0022529117596335707
1783246437623467300,2.58646728515625,-0.010260697251558303,0.00030249007791280743,0.024299963193759322
1783246437633479200,2.596479248046875,-0.021781039175391197,0.008352014086022973,0.0123616721357801
1783246437643491000,2.606490966796875,-0.034352351456880564,0.009127418905310332,-0.010337541330454406
1783246437653502200,2.616502197265625,-0.011754150679707526,0.005618497468903661,-0.0036119868019479323
1783246437663514000,2.62651416015625,-0.008012041541934013,-0.0035439562171697614,0.009577464227750897
1783246437673525000,2.63652490234375,-0.02192716964781284,0.005853402203321457,0.006553268984809983
1783246437683537000,2.646536865234375,-0.012947159856557845,-0.005865202238969505,-0.011114729398163034
1783246437693548300,2.65654833984375,-0.013395488145947456,-0.0169582221288234,0.005475371804321184
1783246437703560200,2.666560302734375,-0.011302315258979796,0.0023965032150968907,0.01412777077613864
1783246437713572000,2.676572021484375,-0.011453706428408622,-0.0011551613844931125,-0.007837292329804041
1783246437723583200,2.686583251953125,-0.009958499434590339,-0.01684975678566843,-0.016141288855904712
1783246437733595100,2.69659521484375,-0.024170564660429952,-0.0015188435977324844,-0.0002447228755336255
1783246437743606000,2.70660595703125,-0.027907997623085976,0.01035633964575827,0.01116245013056323
1783246437753618000,2.716617919921875,-0.014440028762817383,-0.014658384221233427,-0.014940667194756679
1783246437763630000,2.726630126953125,-0.0026151509344577786,-0.007113521799631416,-0.0027311145974788812
1783246437773641200,2.73664111328125,-0.014586743757128715,0.01236391660850495,0.01349610125949839
1783246437783653000,2.746653076171875,-0.019673837763071057,-0.006207111011818051,0.016672932064172346
1783246437793664300,2.756664306640625,-0.016382395002245902,-0.010542802128568292,-0.008065333498595282
1783246437803676200,2.76667626953125,-0.01114449434876442,0.005757029156759381,-0.007051217702741268
1783246437813687000,2.77668701171875,-0.008753215298056602,0.004334449007734656,0.019642954001040196
1783246437823699200,2.78669921875,-0.009800678524374962,-0.0019530337639153002,0.0077739447700092565
1783246437833711000,2.796711181640625,-0.028356910434365272,0.01603288744483143,-0.014155973957316019
1783246437843722000,2.806721923828125,-0.01608838049173355,-0.005926759700477123,-0.0014382457923260517
1783246437853734100,2.816734130859375,-0.009506079491972923,-0.002735745106823742,0.017926957563124596
1783246437863745300,2.826745361328125,-0.013699439528584479,0.000801269912905991,0.0028522430593846365
1783246437873757200,2.836757080078125,-0.02058627643287182,-0.0004696268057450652,0.001143370481999591
1783246437883768000,2.84676806640625,-0.03704465928077698,-0.003656476680934429,-0.0005098446517018601
1783246437893780200,2.8567802734375,-0.027464345508813857,0.014667663506232201,0.006273577543883584
1783246437903792000,2.866792236328125,-0.02132861923277378,0.0092723438013345,-0.01256199189729523
1783246437913803000,2.876802978515625,-0.013845570001006125,-0.008852547486685215,-0.007694529708113986
1783246437923815000,2.88681494140625,-0.017286650365591048,0.00040671763736754656,-0.0008226163783227093
1783246437933826300,2.896826416015625,-0.011451952862739562,0.008069361219741403,0.006388109584932681
1783246437943838200,2.906838134765625,-0.012799860340356826,-0.008069361219741403,-0.0002454923438024707
1783246437953850000,2.91685009765625,-0.022678280276060104,0.003806223882548511,0.005198785635933745
1783246437963861200,2.926861328125,-0.02447276247739792,0.003929923327453434,-0.0018382094619213603
1783246437973873200,2.936873046875,-0.01609188762307167,-0.007180157295055687,0.009773566755163483
1783246437983884000,2.946884033203125,-0.0240203425347805,-0.011433065499179065,0.020280002945696467
1783246437993896000,2.95689599609375,-0.014143676164746283,0.0060686889218166465,-0.0013705029019154607
1783246438003907300,2.9669072265625,-0.021027590459585188,-0.0008005757931619882,0.0013989572448423132
1783246438013919200,2.976919189453125,-0.0047153380841016765,-0.002631079155951738,0.010521339215431361
1783246438023931100,2.98693115234375,-0.028359833043813704,-0.007984240219555796,-0.005214022020972334
1783246438033942300,2.9969423828125,-0.02177519395649433,-0.0017149872243404387,-0.005389380871166941
1783246438043954200,3.0069541015625,-0.01369768596291542,0.011523337598517536,0.01031842792131938
1783246438053965000,3.016965087890625,-0.015493921729922294,0.0058576765196397896,0.005062646834563929
1783246438063977000,3.02697705078125,-0.026867548659443855,0.012474610441364347,-0.0019306872180779463
1783246438073988000,3.036988037109375,-0.020278233397006986,-0.001876936320401728,0.007109722407348453
1783246438084000000,3.047,-0.024016250881552695,0.007015395187400281,0.006297369411424733
1783246438094012000,3.057011962890625,-0.015635376027226446,0.013121055118739604,0.007005654678097926
1783246438104023300,3.067023193359375,-0.011297639083862304,-0.0040535862397402525,-0.008685741835704539
1783246438114035200,3.07703515625,-0.02551438048481941,0.01033818293455988,-0.005128672691923566
1783246438124046000,3.087046142578125,-0.021022914284467696,-0.0010931655315682292,0.000979035349318292
1783246438134058200,3.097058349609375,-0.02580897951722145,-0.005946121988072991,0.012469571223354433
1783246438144069000,3.107069091796875,-0.031194179686903953,0.0005897095214575529,-0.024362949993950313
1783246438154081000,3.1170810546875,-0.02012391961812973,-0.001584529245086014,-0.0005202381815528497
1783246438164093000,3.127093017578125,-0.02132160497009754,-0.0018710180362686514,0.008587421143939717
1783246438174104300,3.137104248046875,-0.02251929032206535,0.002770451094023883,-0.002343263774074148
1783246438184116200,3.1471162109375,-0.014141922599077223,0.004923318278975785,-0.0031303110820939764
1783246438194127000,3.157127197265625,-0.016238018095493315,-0.004760090541280806,-0.00104210206461139
1783246438204139300,3.16713916015625,-0.014141338077187537,-0.008989873598143457,-0.0013132357397465965
1783246438214151200,3.177151123046875,-0.01608662692606449,-0.012734613084420561,0.004327213266061153
1783246438224162000,3.187162109375,-0.0313490779876709,0.005797141971439123,-0.011277658025047276
1783246438234174000,3.197174072265625,-0.03149930011332035,-0.0037717736236751076,0.007530893261753954
1783246438244185000,3.20718505859375,-0.014438859719038008,0.007411554898135364,0.010613917436287737
1783246438254197200,3.217197265625,-0.02581248664855957,0.0015946122476831078,0.010710580460506025
1783246438264208100,3.2272080078125,-0.020571663385629654,-0.00762296915911138,-0.004268815876019653
1783246438274220300,3.23722021484375,-0.02206803942322731,-0.0017938976794481276,-0.0007037780549144372
1783246438284232200,3.247232177734375,-0.017128244933485984,0.009381868590414524,-0.002832383014867082
1783246438294243000,3.2572431640625,-0.008897592204809188,0.00009586158990859984,-0.003137297945306636
1783246438304255000,3.2672548828125,-0.009793664261698722,0.00797718942426145,0.0000064502903842367226
1783246438314266000,3.27726611328125,-0.01757598870098591,0.008466397713311017,0.008280010579025839
1783246438324278000,3.287278076171875,-0.018773089531064033,-0.005298800527863204,-0.0006840047753648832
1783246438334289200,3.2972890625,-0.009196282890439033,-0.0021527210544794798,0.0068273823516094125
1783246438344301300,3.30730126953125,-0.022811551266908644,0.011552819421328603,-0.007014561787049752
1783246438354313200,3.317313232421875,-0.021464812833070755,0.007530870428867638,0.011291316657641437
1783246438364324000,3.327323974609375,-0.027602877196669578,0.0022177856473252176,0.007761178903270047
1783246438374336000,3.3373359375,-0.016532617127895353,-0.003553052839078009,-0.002583004513813648
1783246438384347100,3.34734716796875,-0.021770517781376838,0.009189268627762794,0.011909151728462892
1783246438394359000,3.357359130859375,-0.01338964292705059,-0.0001327230015769601,0.017999477093352468
1783246438404370200,3.3673701171875,-0.02087152311503887,-0.0023796616781502963,-0.001775619953952264
1783246438414382300,3.37738232421875,-0.018922727134823798,0.006203128956444561,-0.007408570639893878
1783246438424394200,3.387394287109375,-0.007847206369042396,-0.0014772329457104205,0.006437398936622775
1783246438434405000,3.397405029296875,-0.009193944802880287,-0.0014808496749028563,-0.0009421511047636159
1783246438444417300,3.407417236328125,-0.018623451927304267,0.0020147373558953405,-0.005895270866958889
1783246438454428200,3.41742822265625,-0.019224340429902075,0.0032776334311813114,-0.0009892393662128598
1783246438464440000,3.427440185546875,-0.03254325620830059,-0.0031374577755108476,0.002801663649617694
1783246438474452000,3.437451904296875,-0.01728138966858387,0.013794351270422339,0.004729702252882998
1783246438484463000,3.447463134765625,-0.024915245547890662,0.005181092432327568,-0.000018026563746389
1783246438494475000,3.45747509765625,-0.007407061386108398,-0.003518164188787341,-0.006241556704114191
1783246438504486100,3.467486083984375,-0.04436871855854988,0.004270991850085557,0.005472239132318645
1783246438514498300,3.477498291015625,0.011146832436323166,0.015046360625512897,0.005648175654537044
1783246438524509200,3.48750927734375,-0.024615385818481442,-0.0036901962874457237,0.003961560574732721
1783246438534521000,3.49752099609375,-0.005758125135302544,-0.0003228387461975217,-0.0066892662222846405
1783246438544533000,3.507532958984375,-0.03628653438985348,0.011405483372509479,-0.001508148673782125
1783246438554544000,3.517544189453125,0.003515314644575119,-0.01098787901494652,-0.019233637981209903
1783246438564556000,3.52755615234375,-0.0035194062978029248,0.0016249708533287047,0.006648087111813947
1783246438574567200,3.537567138671875,-0.018933833050727843,0.013637516740895807,-0.007754025359987281
1783246438584579300,3.547579345703125,-0.015340776994824409,-0.004066628384403884,-0.004466898014675825
1783246438594590200,3.557590087890625,-0.004415478354692459,-0.003362535235658288,0.00574332714168122
1783246438604602000,3.56760205078125,-0.015040332743525503,0.018207856863737104,-0.014035955173685215
1783246438614614300,3.5776142578125,-0.024618892949819563,-0.00016125497631728648,-0.0011792911787517368
1783246438624625200,3.587625244140625,-0.010555296283960342,-0.004295212975889444,0.009896750176837667
1783246438634637300,3.59763720703125,-0.030753450182080266,0.004318630384095013,0.0050950649665552185
1783246438644648200,3.607648193359375,-0.03853226749002933,0.014740253818407654,0.003944878867990337
1783246438654660400,3.617660400390625,-0.016239771661162375,-0.0071651058563962575,0.0064119539681123565
1783246438664671200,3.627671142578125,-0.0029226094484329224,-0.0026582959564402696,0.000495722511515487
1783246438674683400,3.637683349609375,-0.03374912486672401,0.008002214267663657,0.013850175394176038
1783246438684695300,3.6476953125,-0.031207623690366743,-0.005852269692160189,-0.0061491131972870785
1783246438694706200,3.6577060546875,-0.0160948102325201,-0.01302029815800488,-0.00283108610692434
1783246438704718300,3.66771826171875,-0.01773965483009815,0.017162695192359387,-0.002775800839287694
1783246438714729200,3.677729248046875,-0.020730653339624403,0.005301577006839216,0.005592732839984819
1783246438724741000,3.6877412109375,-0.03539396946430206,0.001536671515367925,-0.010606508164678233
1783246438734753000,3.6977529296875,-0.019828736063838004,-0.003172419491037726,-0.006926689424063079
1783246438744764400,3.707764404296875,-0.019373393511772155,0.005491327425278723,0.003105685814202297
1783246438754776300,3.7177763671875,-0.026108839246630666,-0.01033094947617501,-0.00006796208611922338
1783246438764787200,3.727787109375,-0.023267478340864182,-0.003849040110968053,0.001762233032705262
1783246438774799400,3.73779931640625,-0.023569676157832144,0.003559080721065402,-0.01127036291786935
1783246438784810200,3.747810302734375,-0.015937573844194412,-0.00752615772113204,0.008135307161998935
1783246438794822100,3.757822265625,-0.011749474504590034,0.008697320392355322,-0.003779297059716191
1783246438804834000,3.767833984375,-0.02267009696960449,0.018199089035391806,-0.008951281453692353
1783246438814845400,3.777845458984375,-0.021176643541455268,0.007055581067316233,-0.0011361644230782986
1783246438824857300,3.787857421875,-0.02865969277322292,0.0036355069581419227,-0.0023449716739705763
1783246438834868200,3.7978681640625,-0.021477087792754174,0.007530651233159005,-0.010806314186251257
1783246438844880400,3.80788037109375,-0.021173136410117147,-0.007691796611621975,-0.0044309841677895746
1783246438854891300,3.817891357421875,-0.026406945410370825,-0.009261310950666665,0.01524884266136214
1783246438864903200,3.827903076171875,-0.010097615644335747,-0.0026592458045110105,-0.0049821175278164445
1783246438874915300,3.837915283203125,-0.013088029631972312,0.013001045468263327,-0.006273577543883584
1783246438884926200,3.84792626953125,-0.02325929503440857,-0.013123137477971612,0.00009502362298080697
1783246438894938000,3.857938232421875,-0.015777999368309974,0.009339235025085508,0.004302976157236844
1783246438904949200,3.86794921875,-0.026104163071513174,0.008912680176086723,0.008315625315101351
1783246438914961400,3.87796142578125,-0.023860183537006377,-0.00334499957896769,0.011917019941087346
1783246438924972300,3.88797216796875,-0.01742693561911583,-0.00824669054802507,-0.004830936420941725
1783246438934984200,3.897984130859375,-0.018622282883524893,0.003980046079494059,-0.002658983226318378
1783246438944996400,3.907996337890625,-0.017424013009667394,-0.020582732768915594,0.01111616102013504
1783246438955007200,3.91800732421875,-0.02565174312889576,0.0074985390618443485,-0.004957563041872345
1783246438965019100,3.92801904296875,-0.023107903864979743,-0.010162132247909903,0.011550084041547962
1783246438975030300,3.9380302734375,-0.03702244744896888,0.020314218025840818,-0.008458805778610985
1783246438985042400,3.94804248046875,-0.03417757941186428,0.01713200779315084,-0.009231064226164017
1783246438995054300,3.958054443359375,-0.007539163333177566,0.013900880384817718,-0.00658716440454591
1783246439005065200,3.968065185546875,-0.014570377144217491,-0.021580548167228698,-0.0014885101082618348
1783246439015077400,3.978077392578125,-0.01636369030177593,0.012777611975930631,-0.0010394055007374844
1783246439025088300,3.988088134765625,-0.01621522174179554,-0.009044818655773997,-0.000985898914944846
1783246439035100200,3.99810009765625,-0.02369710192978382,-0.002453238371014595,-0.008833545958693139
1783246439045111300,4.008111328125,-0.006935936743021011,0.004095781413652003,-0.006366635255352594
1783246439055123500,4.01812353515625,-0.025041502276062964,0.005419358167611062,0.011102618835261091
1783246439065135400,4.02813525390625,-0.02354161910712719,-0.02713094883598387,0.005664402986841742
1783246439075146200,4.038146240234375,-0.013667290824651717,0.004471665521338581,0.001548343686852604
1783246439085158400,4.048158447265625,-0.0326736045897007,0.018448606817051766,0.006184168527647853
1783246439095169300,4.058169189453125,-0.008882979157567023,-0.013390081318467854,0.000920907387335319
1783246439105181200,4.06818115234375,-0.018606500792503356,0.0038855727290734647,-0.003518874291551765
1783246439115192000,4.078192138671875,-0.012169745743274687,0.014149557916261254,-0.007588872809975873
1783246439125204200,4.088204345703125,-0.03296645005643368,-0.002079253959469497,-0.004553665265964809
1783246439135216000,4.098216064453125,-0.026980945906043052,-0.003574351355433464,-0.006008126974152401
1783246439145227300,4.108227294921875,-0.025185294660925863,0.018574900077842176,-0.008619674879149533
1783246439155239400,4.118239501953125,-0.018301964887976644,0.0012191665314137934,0.005308550170320086
1783246439165250300,4.128250244140625,-0.025931144592165944,-0.011413155222311615,0.0033990998198045416
1783246439175262200,4.13826220703125,-0.013362754920125007,0.01135404544621706,-0.006674427129467949
1783246439185273000,4.148273193359375,-0.029072365227341652,0.0009822525030001997,0.003127228642441332
1783246439195285200,4.15828515625,-0.0036310499787330624,-0.000736643711477518,0.005741107785131316
1783246439205297200,4.168297119140625,-0.03191372613310814,-0.003242963976599276,-0.0031356836602441035
1783246439215308300,4.178308349609375,-0.01635024629831314,0.013337109022215007,-0.020513848234189207
1783246439225320400,4.188320556640625,-0.027718028008937835,0.0049742812812328336,0.009394753188162576
1783246439235331300,4.198331298828125,-0.003926818054914474,0.00934957375600934,-0.008921737982088234
1783246439245343200,4.20834326171875,-0.0214367557823658,-0.003911912746727466,-0.0040206246850546445
1783246439255354000,4.21835400390625,-0.010365911191701889,0.0006432663396000862,0.004302503516490105
1783246439265366300,4.2283662109375,-0.003183306211233139,-0.0038525472423061725,0.002016911046672612
1783246439275378200,4.238378173828125,-0.031163200026750562,0.013145093581452966,0.005553426026192028
1783246439285389300,4.248389404296875,-0.007220598903298378,-0.00004175678249448538,0.01457246178673813
1783246439295401200,4.258401123046875,-0.024876667103171348,-0.010985577460005879,-0.008613258838094771
1783246439305412400,4.268412353515625,-0.019188100072741507,0.004065495873242617,-0.00008661883752793073
1783246439315424300,4.27842431640625,-0.017094927185773847,0.006195128313079476,0.005364630022400525
1783246439325435100,4.28843505859375,-0.027422844454646107,-0.01064034421890974,-0.007781052647519391
1783246439335447300,4.298447265625,-0.024729952108860014,0.002999291413836181,0.01287949688124936
1783246439345459200,4.308459228515625,-0.01350596278309822,0.004011792924627662,-0.00013768458777340127
1783246439355470000,4.318469970703125,-0.031310499542951585,-0.019085479948483405,-0.0007089634033967741
1783246439365482200,4.328482177734375,-0.028165771776437757,-0.005382971679978072,0.0009548073736485093
1783246439375493400,4.338493408203125,-0.02742109088897705,0.013261742231063543,-0.0004869934990769252
1783246439385505300,4.34850537109375,-0.016943536016345025,-0.0011659750394523143,0.0018878983891219832
1783246439395517400,4.358517333984375,-0.017691724035143852,-0.011045344823226331,-0.00021517940392950548
1783246439405528300,4.3685283203125,-0.016347323688864705,0.009807473591342568,-0.0060451550658908665
1783246439415540200,4.378540283203125,-0.016343232035636902,0.00013732611145824192,-0.0011866547845886088
1783246439425551000,4.388551025390625,-0.020533669462800025,-0.005528481097891926,0.00391815754113486
1783246439435563300,4.398563232421875,-0.022630349481105802,0.004678732400760054,-0.004225972248136531
1783246439445574400,4.408574462890625,-0.020685645154118536,0.008280190958827734,-0.000569874593114946
1783246439455586300,4.41858642578125,-0.032952421531081195,0.004153137624077498,-0.0038538669831352304
1783246439465598500,4.428598388671875,-0.02771685896515846,0.006290843772515654,-0.012421065039664971
1783246439475609300,4.438609375,-0.030858664122223853,0.00507828964497894,0.010218801188457291
1783246439485621200,4.448621337890625,-0.015443652847409247,-0.006342975818552077,0.0026422124713193626
1783246439495632100,4.458632080078125,-0.0239724117398262,0.011589132843725383,-0.0037935173813137225
1783246439505644300,4.468644287109375,-0.028610592934489247,0.005140541226230561,0.0001512062230496667
1783246439515655200,4.4786552734375,-0.02277472638785839,0.0001983721163123846,0.0069928728283382945
1783246439525667000,4.4886669921875,-0.012298340559005737,-0.0035897681202739476,0.006534840562264435
1783246439535679200,4.49867919921875,-0.0127443307608366,0.006955956617742776,-0.00020996893927222116
1783246439545690400,4.5086904296875,-0.01289338384270668,0.0021577625557780266,-0.0037637889633304437
1783246439555702300,4.518702392578125,-0.0028676643908023833,-0.012203209621459245,0.0070646868223790075
1783246439565713200,4.528713134765625,-0.019928104785084725,-0.007814436610601843,-0.01007358403148828
1783246439575725300,4.538725341796875,-0.029653964507579803,-0.001692556196823716,-0.015067581510054879
1783246439585736200,4.548736083984375,-0.031003041028976438,-0.007776113894209265,-0.00727389542653691
1783246439595748000,4.558748046875,-0.026513328394293784,0.011664609232731164,-0.001141651165660005
1783246439605760300,4.56876025390625,-0.017834931898117065,-0.0014759177714586257,0.0021931124303722752
1783246439615774500,4.5787744140625,-0.017388357174396515,0.013984028623625635,-0.007213675972167402
1783246439625786600,4.58878662109375,-0.024722353324294087,0.004914185124449431,0.0067139805384329515
1783246439635797500,4.598797607421875,-0.012001987960934638,-0.0029031375629827378,0.015231471401453017
1783246439645809400,4.608809326171875,-0.010356558841466903,0.004002440574392676,-0.011829341657634359
1783246439655820500,4.618820556640625,-0.018586042526364324,0.0036803324805572625,0.0019105234961723908
1783246439665832400,4.62883251953125,-0.02367313653230667,0.0012689970225095747,0.0009983565377187915
1783246439675844400,4.63884423828125,-0.02038403185904026,-0.0024059286305680868,0.006511872961919288
1783246439685855500,4.64885546875,-0.025474048474431035,-0.010874627898819744,0.015303938416042365
1783246439695867600,4.65886767578125,-0.01185293487906456,0.0015993980206549167,-0.0036504213994834568
1783246439705878500,4.66887841796875,-0.023374445846676827,0.00278480841293931,-0.0077084554854780435
1783246439715890400,4.678890380859375,-0.02457154667675495,-0.003508592642843723,0.002775481178879272
1783246439725901600,4.688901611328125,-0.027265023544430732,0.003224186210893094,-0.002130810616770759
1783246439735913500,4.69891357421875,-0.009753916773200035,0.001948028795234859,-0.004807829539990052
1783246439745925400,4.70892529296875,-0.02127250513136387,-0.015051402126811443,0.004498941687331535
1783246439755936500,4.7189365234375,-0.028600656062364577,0.008194595034606754,0.004514723778353072
1783246439765948400,4.728948486328125,-0.022765374037623406,0.019882146751508116,0.006145731646823697
1783246439775959600,4.73895947265625,-0.01827566140294075,-0.001985511261411011,0.0016380586637649685
1783246439785971500,4.748971435546875,-0.02082008518874645,0.0008668459624052047,-0.005122758974367752
1783246439795983600,4.758983642578125,-0.01423836871087551,0.0015225333921611308,-0.001024703405238688
1783246439805994500,4.768994384765625,-0.016779285365343094,-0.002298595798574388,0.005917398217087611
1783246439816006400,4.77900634765625,-0.028299627289175986,-0.00564023437667638,-0.006810862758359871
1783246439826017300,4.789017333984375,-0.02425882746577263,-0.0058121568774804466,-0.013435441130422986
1783246439836029400,4.799029541015625,-0.013781857115030287,0.0004226823914796114,-0.0035007267135079016
1783246439846040600,4.80904052734375,-0.02650163795650005,0.013615706767886876,0.00007713862312957644
1783246439856052500,4.819052490234375,-0.01348375095129013,0.002871609913557768,0.002277075803221669
1783246439866063600,4.829063720703125,-0.031139234629273413,-0.003159158150665462,0.00402037352330517
1783246439876075500,4.839075439453125,-0.021260814693570135,-0.00022361615542322395,-0.0020968055991805157
1783246439886087400,4.84908740234375,-0.018418284744024276,0.0008336012799292803,0.0031207989016547796
1783246439896098300,4.859098388671875,-0.02470364862382412,-0.00019822598583996295,-0.0070572364515741354
1783246439906110500,4.8691103515625,-0.015274726021289825,-0.00488123270291835,0.007754648697783704
1783246439916121600,4.87912158203125,-0.021704466807842254,-0.005151647142134607,-0.0007837137066177092
1783246439926133500,4.889133544921875,-0.03202536981403827,0.015830642870999872,0.010975882616476156
1783246439936145700,4.899145751953125,-0.009427169036865234,-0.0006902838191017508,0.004560216021048836
1783246439946156500,4.909156494140625,-0.02259644721150398,-0.01442976309712976,0.004543331101618241
1783246439956168400,4.91916845703125,-0.023494272834062576,-0.0038012919791042803,-0.002454562678420916
1783246439966179600,4.9291796875,-0.016314590463042258,0.003451674823835492,-0.004673716015636455
1783246439976191500,4.93919140625,-0.011675240224599837,-0.01002743648495525,-0.004024369278410449
1783246439986202400,4.949202392578125,-0.02813479211628437,-0.005999861469306051,0.002473568772990256
1783246439996214300,4.95921435546875,-0.03561550326049328,0.0011595087660476564,0.0051919357700389804
1783246440006226400,4.969226318359375,-0.01586450860798359,-0.006293766381964087,0.0038655734039493832
1783246440016237600,4.979237548828125,-0.016315759506821632,-0.006380677480436861,-0.005075789443927351
1783246440026249500,4.98924951171875,-0.01826221739947796,-0.005292188123986125,-0.006224669501394964
1783246440036260600,4.999260498046875,-0.01556815600991249,-0.006212846632860601,0.003859725901763886
1783246440046272500,5.0092724609375,-0.016166706424951553,-0.006972761622071266,0.0021313540394650773
1783246440056283400,5.019283447265625,-0.03218026811480522,-0.004062134872376918,-0.007394724777631927
1783246440066295300,5.02929541015625,-0.01617079807817936,0.010048881131783127,-0.00013906826068414374
1783246440076307500,5.039307373046875,-0.000009936872124671935,-0.006699388040788471,-0.0021512574664666315
1783246440086318600,5.049318603515625,-0.023052374285459518,0.0037273134274408218,0.008671105955576058
1783246440096330500,5.05933056640625,-0.012875848186016082,-0.0039359146768227216,0.005347852417535614
1783246440106341600,5.069341552734375,-0.013625205248594284,-0.0056850233664736145,0.0010821121313027105
1783246440116353500,5.079353515625,-0.006592822393774986,0.005098309519700706,-0.0006826119692996144
1783246440126364400,5.089364501953125,-0.024546996757388112,-0.003642082829400897,0.003909047219494823
1783246440136376300,5.099376220703125,-0.022152795097231864,-0.009028269379772245,-0.006404444231803063
1783246440146388500,5.109388427734375,-0.006738952866196632,-0.0036721857067197558,0.009300330070091876
1783246440156399600,5.119399658203125,-0.013026070311665534,-0.004961458332277834,0.0066151415401487605
1783246440166411500,5.12941162109375,-0.013625205248594284,-0.0016480594679713248,0.0032875086545129306
1783246440176422700,5.139422607421875,-0.0205085350215435,0.002841616634093225,-0.004750770157086663
1783246440186434600,5.1494345703125,-0.029788404542207717,-0.005332629732228815,0.0030467221685801633
1783246440196445400,5.159445556640625,-0.026796821510791775,-0.0006572217997163534,0.0013108177370857446
1783246440206457300,5.169457275390625,-0.017819149807095525,-0.00886803731676191,-0.0037547859562560913
1783246440216469500,5.179469482421875,-0.023057634982466695,0.007025953114032745,-0.0006481320276740007
1783246440226480400,5.18948046875,-0.02485211718380451,-0.011847345388494432,-0.007933937087713274
1783246440236492300,5.1994921875,-0.032033553120493885,-0.0024448358688503504,0.008236835874291136
1783246440246503700,5.209503662109375,-0.024997078612446783,0.0009164572577923536,0.013230150649556889
1783246440256515600,5.219515625,-0.019158873978257177,0.00010294891782104969,-0.007110126549436244
1783246440266526500,5.2295263671875,-0.01706687013506889,-0.008210194462537766,-0.004456607232813258
1783246440276538600,5.23953857421875,-0.023201427367329597,0.0010621858714148402,0.006772359662165399
1783246440286550500,5.249550537109375,-0.027239304581284523,-0.003928900414146483,-0.000757697915949393
1783246440296561400,5.2595615234375,-0.022747838380932806,0.009476743799634276,0.007170862027036491
1783246440306573300,5.2695732421875,-0.025138532909750936,0.002053242735378444,0.002393484707525931
1783246440316584700,5.279584716796875,-0.02169628350138664,-0.00019873744249343872,0.0043493862819625065
1783246440326596600,5.2895966796875,-0.011076689809560775,0.010081395161896944,-0.0040893060070928185
1783246440336607500,5.299607421875,-0.01496551394164562,-0.011652663066610693,0.007816745015408378
1783246440346619600,5.30961962890625,-0.015262451061606406,-0.0007744915038347244,-0.00007762268031947314
1783246440356631600,5.319631591796875,-0.01182370878458023,-0.01447802268564701,0.015681005267240106
1783246440366642400,5.329642333984375,-0.03845920225381851,0.00018525690641254186,0.004045544497179799
1783246440376654300,5.339654296875,-0.02408873159587383,0.005744133142568171,-0.010330634382343851
1783246440386665500,5.34966552734375,-0.009875497326254845,0.002948511074669659,0.006751826047501526
1783246440396677400,5.359677490234375,-0.03621171558797359,-0.005129435310326516,0.007802880886837374
1783246440406688500,5.3696884765625,-0.022445056042075157,0.0063939022881910204,0.007888757655560038
1783246440416700700,5.37970068359375,-0.011672902137041091,0.010324081343971192,0.0032300885120057497
1783246440426712600,5.389712646484375,-0.012121814948320387,-0.01091861317101866,0.0028977375853690315
1783246440436723500,5.399723388671875,-0.021996143230795857,0.0030964681779965756,-0.013004246638924815
1783246440446735400,5.4097353515625,-0.029326047727465627,-0.002357194118015468,0.0032508230560692026
1783246440456746500,5.41974658203125,-0.004635843107104301,-0.00429309408403933,0.01395132964713266
1783246440466758400,5.42975830078125,-0.028425299495458602,-0.009597301439382136,0.0003756877448642626
1783246440476770300,5.439770263671875,-0.004334229812026024,-0.0017988295828923581,0.00503027208505664
1783246440486781700,5.44978173828125,-0.021394085684418678,-0.00012947159856557846,-0.004556033036275766
1783246440496793600,5.459793701171875,-0.02184241397380829,-0.007778561579622328,-0.002973202557931654
1783246440506804500,5.469804443359375,-0.026330957564711568,0.0022386457722634078,-0.0011337304373970254
1783246440516816400,5.47981640625,-0.02019756937623024,0.012304587636701761,-0.009972680940281134
1783246440526827500,5.48982763671875,-0.02947626985311508,-0.011168459746241569,-0.004212676658434793
1783246440536839400,5.49983935546875,-0.02319090597331524,-0.014468889531120657,0.004114054572570603
1783246440546851300,5.509851318359375,-0.014062427622079848,0.00316745105497539,0.0038073404106893573
1783246440556862700,5.51986279296875,-0.02244096438884735,-0.007937953392416238,0.00851633323568385
1783246440566874600,5.52987451171875,-0.022140520137548445,-0.004368716603517532,0.017628894781868437
1783246440576885500,5.539885498046875,-0.02363923426270485,0.011390614596940577,-0.006060791026439983
1783246440586897700,5.549897705078125,-0.03486263906657695,-0.0034101007044315336,-0.0064037501120590605
1783246440596908500,5.559908447265625,-0.01690320400595665,-0.008716463484242558,0.009782731875730678
1783246440606920400,5.56992041015625,-0.011963409516215323,0.004853102586977184,-0.0033234636005945502
1783246440616929000,5.579928955078125,-0.02573357619345188,0.0012018866030499339,-0.005392867452907376
1783246440626940000,5.58993994140625,-0.017206570866703987,0.0005150733826681972,0.002724691706558224
1783246440636951800,5.599951904296875,-0.01631049880981445,0.002510594581440091,0.009447661552333737
1783246440646963000,5.609962890625,-0.01645955189168453,0.007884579237364232,0.010037334541173186
1783246440656975000,5.61997509765625,-0.019150690671801567,-0.0023579247703775764,0.0009902120471699163
1783246440666986000,5.629986083984375,-0.024092238727211952,0.002210004199668765,-0.007511010384350083
1783246440676998000,5.639997802734375,-0.029480361506342888,-0.0004595072705298662,-0.004695925564155914
1783246440687010000,5.650010009765625,-0.01750876868367195,-0.007211867607571185,0.008760202161269262
1783246440697021000,5.66002099609375,-0.023346973317861557,-0.0016044395219534636,-0.008226741455250885
1783246440707032800,5.67003271484375,-0.02484218031167984,0.014527414785325526,-0.010821329092292581
1783246440717044000,5.6800439453125,-0.021551322072744367,-0.0011653539849445223,0.0034034472013590856
1783246440727056100,5.69005615234375,-0.007488309928774833,-0.009163549664616584,0.006331561658682767
1783246440737067000,5.70006689453125,-0.021554244682192802,-0.0010856763448566199,-0.010351601821847725
1783246440747079000,5.710078857421875,-0.022152795097231864,0.002355075226165354,-0.0020432944468106143
1783246440757091000,5.720091064453125,-0.015272387933731079,-0.0031188992055132983,0.003059748330223374
1783246440767102000,5.73010205078125,-0.012431611549854277,-0.00171465843077749,0.004201744272466749
1783246440777113900,5.74011376953125,-0.01632277376949787,0.004878456223942339,-0.008109302787773776
1783246440787125000,5.750125,-0.008541033852100371,0.0033685996502637863,0.0019522551624919287
1783246440797137000,5.760136962890625,-0.01078676695227623,-0.003182794754579663,0.014327451216836925
1783246440807148000,5.77014794921875,-0.013481412863731383,0.0022393398920074106,-0.0009439320698962547
1783246440817160000,5.780159912109375,-0.014976619857549667,-0.004679389987885952,0.005035672062670346
1783246440827172000,5.790172119140625,-0.01647358041703701,-0.005867101935110986,-0.000008541782770771533
1783246440837183000,5.800182861328125,-0.021864041283726692,-0.004144333263114095,0.010996884305309504
1783246440847195000,5.81019482421875,-0.029347090515494344,0.015328757763467728,0.007793907562515232
1783246440857206000,5.8202060546875,-0.013784195202589035,0.00019840864893049,-0.005212092642078642
1783246440867218000,5.830218017578125,-0.007054010164737701,-0.0021076032711192963,0.010566984438465443
1783246440877229000,5.84022900390625,-0.02516366735100746,0.01010006332974881,0.005616597772762179
1783246440887241000,5.850240966796875,-0.014393267011642456,0.0067289429288357495,0.002215990982460789
1783246440897253000,5.860253173828125,-0.025467034211754797,-0.01137234828788787,-0.0026787085568066686
1783246440907264000,5.870263916015625,-0.01888473321199417,0.001688902935013175,0.012709460376854985
1783246440917276000,5.88027587890625,-0.010506196445226669,-0.0012737462628632783,0.00559230358172208
1783246440927287000,5.890287109375,-0.025765140375494957,-0.010362148332037031,0.0026590677079977466
1783246440937299000,5.900298828125,-0.011551321583986281,-0.0010468421718105674,0.003959010141331236
1783246440947310000,5.91031005859375,-0.011850012269616126,0.007321428929269313,-0.001413641074032057
1783246440957322000,5.920322021484375,-0.018429975181818006,-0.014637049172259867,0.01220002671710681
1783246440967334100,5.930334228515625,-0.020074819779396055,0.008080430603027343,0.00806983157719951
1783246440977345000,5.940344970703125,-0.014696633872389793,0.006791011846996844,-0.007190295096579939
1783246440987357000,5.95035693359375,-0.029026772519946096,-0.002930317830853164,0.0074558004652382805
1783246440997368000,5.9603681640625,-0.24605682755112646,0.02065009891670197,-0.07185002890189643
1783246441007380000,5.9703798828125,0.14439911858439444,-0.024998832178115844,0.03546959655035752
1783246441017390800,5.980390869140625,0.19526655151247976,0.00040985944252461195,0.10313417472746222
1783246441027402800,5.99040283203125,-0.32190497247874733,0.015341361516714095,-0.11907112751714885
1783246441037415000,6.000414794921875,0.09635901803672313,-0.004856609718315303,0.02653544889455661
1783246441047426000,6.010426025390625,0.12375438996255397,-0.006930895241722464,0.05181332177633885
1783246441057438000,6.02043798828125,-0.14498539403975008,0.00660560881011188,-0.05025427403238136
1783246441067449000,6.030448974609375,0.03806698806583881,-0.0005306728105992078,0.02156103061600588
1783246441077461000,6.0404609375,0.02943301523327827,-0.01169942481778562,0.01840505080311559
1783246441087471900,6.050471923828125,-0.04192541705965996,0.001098755022138357,-0.0019516911901999263
