time,seconds_elapsed,z,y,x
1783246408856155400,0.0571552734375,-0.007066869646310806,0.0030037483932450412,0.0024706758462940343
1783246408866166300,0.067166259765625,-0.014246552017331122,0.0021767595171928405,0.015688779865030665
1783246408876178200,0.07717822265625,-0.029357611909508703,0.0022753975860774515,-0.0014347044116584584
1783246408886189300,0.087189208984375,-0.025921207720041275,0.00689637191761285,-0.012091394693881739
1783246408896201500,0.097201416015625,-0.02188274598419666,0.0026061639104038477,0.010418246450426522
1783246408906212400,0.10721240234375,-0.007516366979479789,0.01095905477926135,0.0167722962188418
1783246408916224300,0.117224365234375,-0.023226561808586118,0.00913165668901056,-0.006614198541943915
1783246408926236400,0.127236328125,-0.01394727680981159,0.002816847519017756,-0.0017563855305197647
1783246408936247300,0.137247314453125,-0.019633505752682686,-0.003771189101785421,0.0034934521559276616
1783246408946259200,0.14725927734375,-0.029209143349528312,0.0017303309239447115,-0.0007205853425315581
1783246408956270300,0.157270263671875,-0.02277297282218933,0.0016815964113920925,-0.014063898059958592
1783246408966282200,0.1672822265625,-0.003918634748458862,-0.012235321792773902,-0.004858867890771943
1783246408976293400,0.17729345703125,-0.019479191973805425,-0.004497494082339108,0.001406587995449081
1783246408986305300,0.18730517578125,-0.014089315629005431,0.006645392831228673,0.00854310022831196
1783246408996317400,0.1973173828125,-0.015133856245875358,-0.0034428704628720877,-0.009510965729644522
1783246409006328300,0.207328369140625,-0.021267244434356687,-0.005592924636229873,-0.014420833155291619
1783246409016340200,0.21734033203125,-0.018423545441031454,-0.002009367061033845,0.013313191573799121
1783246409026351000,0.22735107421875,-0.015733575704693793,0.0036267025971785188,0.0033295097488909957
1783246409036363300,0.23736328125,-0.029951486149430273,-0.0012519362898543477,0.004861203695042058
1783246409046374400,0.24737451171875,-0.017983400458097456,0.0062942413059994574,-0.012419494137086439
1783246409056386300,0.25738623046875,-0.029805940198898314,-0.002047105255536735,0.0031399077442125414
1783246409066398500,0.2673984375,-0.013942016112804411,0.005224566247873008,0.004007068800448906
1783246409076409300,0.277409423828125,-0.01334521926343441,0.01034965417664498,-0.005033738117199391
1783246409086421200,0.287421142578125,-0.015139116942882537,0.010469517696648835,-0.007249535020126495
1783246409096432000,0.29743212890625,-0.0060106385916471475,0.00521404485385865,0.004187898410204798
1783246409106444300,0.3074443359375,-0.005862170031666755,0.001503024974092841,-0.0038692152493167665
1783246409116455400,0.317455322265625,-0.02052957780957222,-0.0011230857457965612,0.0027857651108759455
1783246409126467300,0.32746728515625,-0.024271102425456045,0.007119367018528282,0.00007448315845103934
1783246409136479500,0.3374794921875,-0.03804010005891323,-0.0026936595307663082,0.01799867565904278
1783246409146490400,0.347490478515625,-0.016042787784337997,0.004172499911673367,-0.005828585139184724
1783246409156502300,0.357502197265625,-0.022474282136559484,0.0060318275101482865,-0.003848464722232893
1783246409166513200,0.36751318359375,-0.025465280646085737,0.01257427142355591,0.012309464741218834
1783246409176525300,0.377525390625,-0.014092822760343552,-0.00418298477306962,0.012499719766445924
1783246409186536200,0.3875361328125,-0.02022621094882488,-0.0006326353477314115,0.009989981418242677
1783246409196548000,0.397548095703125,-0.017981646892428396,0.001006875487603247,-0.0007980390594922937
1783246409206560300,0.407560302734375,-0.009452888000011444,0.005660254251398146,0.013835740443447138
1783246409216571400,0.4175712890625,-0.017533318603038788,-0.0018112872056663036,0.018659966279100625
1783246409226583300,0.427583251953125,-0.03414484618604183,-0.0020701573375612498,-0.006289708978065755
1783246409236594200,0.43759423828125,-0.016038111609220505,0.0006113368313759566,-0.009193271232733969
1783246409246606300,0.4476064453125,-0.01648351728916168,0.005604067084752023,-0.01061571666772943
1783246409256617200,0.4576171875,-0.012594693157076835,0.007148081656359136,0.01835759493219666
1783246409266629000,0.467629150390625,-0.015588029754161833,0.01539378582369536,-0.012283478633302728
1783246409276641300,0.477641357421875,-0.020231471645832062,-0.0012553703559562562,-0.00825636255866848
1783246409286652400,0.48765234375,-0.030260698229074477,-0.005060096401162445,-0.003255101938964799
1783246409296664300,0.497664306640625,-0.02218202119171619,0.0030614699298515914,0.006632268488174304
1783246409306675200,0.50767529296875,-0.013654431343078612,-0.0004765680031850934,0.0030147287282743488
1783246409316687400,0.517687255859375,-0.024127310040593146,0.0026120456619188187,0.006893762118706945
1783246409326698200,0.5276982421875,-0.023228899896144864,0.0003542202651500702,0.008980251819849945
1783246409336710100,0.537710205078125,-0.02292845564484596,0.001059774718619883,-0.004877976733329706
1783246409346722300,0.547722412109375,-0.019933365482091903,0.011032448809035122,-0.008383103344030678
1783246409356733400,0.5577333984375,-0.006018237376213074,-0.001225340543873608,-0.0012649213523021898
1783246409366745300,0.567745361328125,-0.008564414727687835,0.006023498073220252,0.006975170491577591
1783246409376756200,0.577756103515625,-0.02652268074452877,0.0053072760952636595,0.01096182897494873
1783246409386768400,0.587768310546875,-0.015598551148176192,-0.004868482819199562,0.00035825711945071815
1783246409396779300,0.597779296875,-0.02128594913482666,-0.0027529154373332858,-0.0032113495622063054
1783246409406791200,0.607791259765625,-0.008564999249577522,0.006484320518001914,-0.012963473953830544
1783246409416803300,0.61780322265625,-0.016343816557526588,0.0058301674582064145,0.007004017560149077
1783246409426814200,0.627814208984375,-0.022926117557287216,-0.003787080790661275,0.001176672246691305
1783246409436826000,0.637826171875,-0.022326982620358465,-0.0006579524520784616,-0.0027549018984427674
1783246409446837200,0.647837158203125,-0.008860767325758934,0.004603694403171539,0.008261906383465975
1783246409456849400,0.657849365234375,-0.014397358664870262,-0.008255604506842791,0.012781931958021596
1783246409466861300,0.667861328125,-0.013051204752922057,-0.009143529789894819,0.0006380787078291177
1783246409476872200,0.6778720703125,-0.013948445853590964,0.006708228934369981,-0.007799935444502625
1783246409486884400,0.68788427734375,-0.015744681620597837,0.014661891352571546,0.014531581787078175
1783246409496895200,0.697895263671875,-0.013951952984929085,0.003066401833295822,0.004470635758165736
1783246409506907100,0.7079072265625,-0.016496376770734785,0.0041081294385716316,0.00901342572037829
1783246409516918300,0.717918212890625,-0.014250059148669243,0.001978241270408034,-0.015631247841380536
1783246409526930400,0.727930419921875,-0.0296627323359251,0.0001832110797986388,-0.011036608960921875
1783246409536941300,0.73794140625,-0.020382862815260885,0.004024250547401607,0.005634158545627724
1783246409546953200,0.747953125,-0.022478958311676976,0.005393310410901904,0.008815900704148226
1783246409556965400,0.75796533203125,-0.03160685214102268,0.008403415479697286,0.0011271819656016304
1783246409566976300,0.767976318359375,-0.016191840866208076,-0.0010883797585964203,0.00008364599572960287
1783246409576988200,0.77798828125,-0.018438743010163305,0.0016764453122392296,-0.0017781178717152216
1783246409586999300,0.787999267578125,-0.015298106896877288,-0.0041273455956950785,-0.003427387482661288
1783246409597011200,0.79801123046875,-0.01829261253774166,0.0007159662496298552,-0.0013068151321145706
1783246409607023400,0.8080234375,-0.015000585255026816,0.012533354891277848,0.016635591161891353
1783246409617034200,0.8180341796875,-0.010959200909733771,0.005479819650575518,0.008910753080481663
1783246409627046100,0.828046142578125,-0.01499824716746807,0.003801803435757756,0.006327419773105066
1783246409637057000,0.83805712890625,-0.03265431536734104,-0.004157156212069094,0.008742319444706662
1783246409647069200,0.848069091796875,-0.03160860570669174,-0.0011238894633948803,0.003202469852718059
1783246409657080000,0.858080078125,-0.030559388914704323,-0.0019116057749837636,-0.007964583387726452
1783246409667092000,0.868092041015625,-0.010205167672038077,-0.00798332690410316,-0.0007414683003560639
1783246409677104000,0.878104248046875,-0.010205752193927765,0.0002652268074452877,0.007162701553467195
1783246409687115300,0.888115234375,-0.010359481450915337,-0.0020350129589438437,0.012811925237486138
1783246409697127200,0.898127197265625,-0.023085107511281965,-0.004571216905675828,0.009504063348111231
1783246409707138000,0.908137939453125,-0.027425767064094542,-0.0009536839956417679,0.004231947614485397
1783246409717150200,0.918150146484375,-0.023086861076951026,0.0028079700928181407,0.009999148822098505
1783246409727161000,0.9281611328125,-0.016199439650774,0.004507723215408623,-0.004316835719230585
1783246409737173000,0.938173095703125,-0.008417115211486815,0.0067226593185216186,0.005410024083685129
1783246409747185200,0.94818505859375,-0.006025836160778999,-0.00262589152418077,0.0012406043283757753
1783246409757196300,0.9581962890625,-0.027575989189743993,0.00640584845431149,-0.0064076522523304445
1783246409767208200,0.968208251953125,-0.028475568377971647,0.001212736790627241,-0.0035172463067574423
1783246409777219000,0.978218994140625,-0.024732874718308446,0.0023728666111826895,0.0050256278759799895
1783246409787231200,0.988231201171875,-0.023237667724490166,0.01796290565934032,0.016381732848542743
1783246409797242000,0.9982421875,-0.02414016952216625,0.0007227247839793563,0.006525118319271132
1783246409807254000,1.00825390625,-0.018308394628763196,0.004718772150203585,0.016876003188488538
1783246409817266200,1.01826611328125,-0.01082768348455429,0.007298851771280169,-0.006472518199065234
1783246409827277000,1.028277099609375,-0.02385258475244045,0.008201974623464047,-0.0027617083818535317
1783246409837289200,1.038289306640625,-0.00888882437646389,0.002511763625219464,0.00021311302771791815
1783246409847300000,1.048300048828125,-0.010234978288412093,-0.006328655032254755,-0.00005679680471075698
1783246409857312300,1.058312255859375,-0.02579845812320709,0.006134849493205547,0.005700325966882519
1783246409867323100,1.0683232421875,-0.026246201890707015,0.0037065263677388428,0.004614286579133477
1783246409877335000,1.0783349609375,-0.017715689432621,0.0051680502876639365,0.006633286834903993
1783246409887347200,1.08834716796875,-0.021010639324784277,0.00703347883336246,-0.0009310588885913602
1783246409897358000,1.098358154296875,-0.025650574085116385,0.004973441031016409,0.015506879392906557
1783246409907370000,1.108369873046875,-0.007995090407133101,0.0029152663921937346,-0.00048659849014366045
1783246409917381000,1.118381103515625,-0.038973581516742704,-0.002379405949823558,0.011048237749922554
1783246409927393300,1.128393310546875,-0.03912380364239216,-0.010147921059466897,0.017910319238866212
1783246409937404200,1.138404052734375,-0.018473814323544502,-0.004162526506930589,-0.008011178458831272
1783246409947416000,1.148416015625,-0.022663082706928253,0.00015946487803012132,-0.0005373285969602875
1783246409957428200,1.15842822265625,-0.027597616499662397,0.0006779357941821217,0.016267650615354068
1783246409967439000,1.168439208984375,-0.013529343658685683,0.0013577347518876194,0.007129970610933378
1783246409977451000,1.178450927734375,-0.022207155632972715,-0.002858494703657925,0.0050073410173296
1783246409987462400,1.18846240234375,-0.021906126859784124,0.003381276468746364,-0.0004684646118315868
1783246409997474300,1.198474365234375,-0.027741993406414985,0.0014472761988639832,0.00924022706344258
1783246410007485200,1.208485107421875,-0.014423077628016472,0.00023450287561863658,-0.004910908605263102
1783246410017497000,1.2184970703125,0.006826046627759933,-0.00621628069896251,0.0076519098425167605
1783246410027509200,1.22850927734375,-0.02235737775862217,0.010199139790050684,-0.00004362679588375613
1783246410037520100,1.23852001953125,-0.018766075268387795,0.009163038207963109,0.015384693768364377
1783246410047532000,1.248531982421875,-0.024752748462557792,-0.011306443444825709,0.006944129182631149
1783246410057543200,1.258543212890625,-0.010085340684652328,0.009421689144149422,0.014669583751971367
1783246410067555000,1.26855517578125,-0.024751579418778417,0.00019625322446227073,0.00972118811395485
1783246410077566200,1.278566162109375,-0.015025135174393653,-0.00040459874551743266,0.004216087891650386
1783246410087578000,1.288578125,-0.016519173124432563,0.0017832301549613474,-0.00036465946077369153
1783246410097590300,1.29859033203125,-0.021603344520926476,0.0033473376665264366,0.005379759092873427
1783246410107601200,1.30860107421875,-0.008135375660657883,-0.012226846225373447,-0.002791050924058072
1783246410117613000,1.318613037109375,-0.03461772439479828,-0.0030224165610969063,0.007281382329959888
1783246410127624200,1.328624267578125,-0.039700726747512814,0.004336933225765824,-0.002369409712194465
1783246410137636000,1.338635986328125,-0.021443770045042037,0.004150799536518752,-0.007175579301349352
1783246410147647200,1.348647216796875,-0.018451017969846724,-0.008858831096999347,-0.00007546268927399068
1783246410157659100,1.3586591796875,-0.019647534278035162,-0.004992401459813118,0.004684744299727026
1783246410167671300,1.36867138671875,-0.021593407648801802,-0.007216214989125728,-0.007855592888186219
1783246410177682200,1.37868212890625,-0.017401801177859305,-0.011896810553409158,-0.01351100885097403
1783246410187694000,1.388694091796875,-0.012018939095735549,-0.004613412079587579,0.00025110466725891456
1783246410197705200,1.398705322265625,-0.02039922942817211,0.004081351029500365,0.017547034317848736
1783246410207717000,1.408717041015625,-0.01306932493150234,-0.007535290875658392,0.00045902777991723267
1783246410217728300,1.418728271484375,-0.006785130095481872,0.007437639187462627,0.008566476537322159
1783246410227740200,1.428740234375,-0.013821020081639289,0.000032112171314656736,0.006797909661952871
1783246410237752300,1.43875244140625,-0.022650807747244834,0.00035889644026756285,0.013326087587990332
1783246410247763200,1.44876318359375,-0.006789221748709678,0.007999145527742803,0.0029002400697092524
1783246410257775000,1.458775146484375,-0.018760814571380614,-0.005001278886012732,-0.005974914257717318
1783246410267786200,1.4687861328125,-0.01127951890528202,-0.007682298130914569,-0.004968536527035758
1783246410277798100,1.478798095703125,-0.013525836527347564,-0.0001590264866128564,0.010402827402297407
1783246410287809000,1.48880908203125,-0.018613515055179594,0.008072320361807942,0.006362634933670051
1783246410297821200,1.4988212890625,-0.014573299753665923,0.00044639206063002345,-0.001209487670904491
1783246410307833000,1.5088330078125,-0.019210896426439285,-0.007516330446861684,-0.007077359074284322
1783246410317844200,1.51884423828125,-0.01936053403019905,-0.003323116540722549,-0.0018462375047500245
1783246410327856000,1.528856201171875,-0.03566986379623413,0.004124422986246645,-0.0036822915422031655
1783246410337867300,1.5388671875,-0.020107553005218503,0.01295556235872209,-0.0014231601043371482
1783246410347879200,1.548879150390625,-0.02668985400497913,0.006329787543416023,-0.0003546974724740721
1783246410357890000,1.55889013671875,-0.02654255448877811,0.005350165388919413,0.002670755862502847
1783246410367902200,1.568902099609375,-0.03043254766464233,-0.0067952496306970716,-0.00325060386036057
1783246410377914000,1.5789140625,-0.019957915401458737,0.009211626590043306,-0.012106092222803271
1783246410387925200,1.58892529296875,-0.014417816931009292,0.008825732544995845,-0.006569987224170472
1783246410397937200,1.598937255859375,-0.025336101308465003,-0.00552614301033318,0.012576283000840339
1783246410407948300,1.6089482421875,-0.01635726056098938,-0.00418609004560858,-0.0047788934231619345
1783246410417960200,1.618960205078125,-0.01516074425280094,0.006446655388735234,0.003672108074906282
1783246410427971000,1.62897119140625,-0.0007949497699737549,0.004930222943797707,-0.00601055639325641
1783246410437983200,1.638983154296875,-0.010517302361130713,0.0022875264152884484,0.00822936495388858
1783246410447995100,1.6489951171875,-0.02308744559884071,0.005142294791899621,-0.002115571948443539
1783246410458006000,1.659006103515625,-0.016949381235241888,0.007162512040510773,-0.0022877250613993964
1783246410468018200,1.66901806640625,-0.019342998373508453,-0.010951784788258373,0.005865453400718979
1783246410478029300,1.679029296875,-0.04208616057932377,0.005600633018650114,0.009055182502872777
1783246410488041200,1.689041259765625,-0.020239070430397986,0.014574980254098773,0.000062879485625308
1783246410498052000,1.699052001953125,-0.02113689605295658,0.0043980157632380725,0.003011086882906966
1783246410508064300,1.709064208984375,-0.009913491249084472,-0.010279401952028274,0.013627678050182293
1783246410518076200,1.719076171875,-0.019340660285949707,0.00378616747520864,0.0022917550658341497
1783246410528087000,1.729087158203125,-0.019637597405910492,-0.005410919132828712,0.001799041928735096
1783246410538099000,1.739098876953125,-0.019039046990871427,-0.0074946300717070695,0.012463077550486194
1783246410548110300,1.7491103515625,-0.020984920361638067,-0.0007490282690152526,0.009167954128386918
1783246410558122200,1.759122314453125,-0.011857611054182052,0.000011909633502364157,0.013679134242783766
1783246410568133000,1.769133056640625,-0.02053776111602783,-0.0074361778827384106,0.0007193797661340795
1783246410578145300,1.779145263671875,-0.01171089605987072,-0.001995740394480526,0.01301017862278968
1783246410588157200,1.7891572265625,-0.02712006211578846,-0.01106781238336116,0.004508305454009678
1783246410598168300,1.799168212890625,-0.023227146330475807,0.0008417845863848924,-0.007500075715093407
1783246410608180200,1.80918017578125,-0.004970189628005027,-0.00666731240209192,0.017041733410523736
1783246410618191400,1.81919140625,-0.017537410256266595,-0.007619608158245682,0.0035035214587929658
1783246410628203500,1.82920361328125,-0.023521160840988157,-0.01079608276989311,-0.01885836351158796
1783246410638215400,1.83921533203125,-0.02576806298494339,-0.003397095092386007,0.013656652982917147
1783246410648226300,1.849226318359375,-0.033249943172931666,-0.007142053774371743,0.012175778191839345
1783246410658238200,1.85923828125,-0.02965747163891792,0.0037458354648202655,0.006859229661442805
1783246410668249300,1.869249267578125,-0.023218963024020194,0.008428330725245178,0.00612591270150151
1783246410678261200,1.87926123046875,-0.015437807628512382,-0.01044416405968368,0.0006401222511543892
1783246410688272100,1.889272216796875,-0.0185784437417984,-0.0028553528985008595,0.012296618959377519
1783246410698284300,1.8992841796875,-0.010196399843692779,0.01205444880053401,0.004793953994975891
1783246410708295400,1.90929541015625,-0.02022153477370739,0.005908822184987366,-0.000020545031107030808
1783246410718307300,1.919307373046875,-0.014834581038355827,-0.010102693678252398,0.0019432201893767342
1783246410728319500,1.929319580078125,-0.01722936722040176,0.01041479183472693,0.012550705601589288
1783246410738330400,1.939330322265625,-0.014538812962174415,0.0077860872989520425,0.0011538690431276335
1783246410748342300,1.94934228515625,-0.007958265528082847,0.003989544560201466,0.010963772053574211
1783246410758353200,1.959353271484375,-0.006911386823654175,0.0028229484662413594,-0.0009755761670414358
1783246410768365300,1.969365234375,-0.015737082836031913,0.0033471915360540148,-0.0094619709221879
1783246410778376400,1.97937646484375,-0.017081483182311057,-0.004495594386197626,0.00298548893405823
1783246410788388400,1.989388427734375,-0.0259112708479166,0.008556633280031383,0.014375354612327645
1783246410798400500,1.999400390625,-0.014985972207784653,-0.010633037695288658,0.011113293209613765
1783246410808411400,2.009411376953125,-0.007201309680938721,-0.00669668462704867,0.011042088853637687
1783246410818423300,2.01942333984375,-0.015579846447706222,0.00046710605509579176,0.0017958407580736092
1783246410828434200,2.02943408203125,-0.010792612171173095,0.006334500251151621,0.00016109286282444372
1783246410838446300,2.0394462890625,-0.015128011026978493,-0.0003596636252477765,0.005253415599733125
1783246410848458200,2.049458251953125,-0.02081540901362896,-0.005410663404501974,0.009921971383062191
1783246410858469000,2.05946923828125,-0.020365327158570288,0.007283033147640526,0.007138665374042466
1783246410868481300,2.069481201171875,-0.019318448454141615,-0.00826963303219527,0.002682366385194473
1783246410878492400,2.079492431640625,-0.02814531351029873,-0.002768478332646191,0.00880033780883532
1783246410888504300,2.08950439453125,-0.01976443865597248,0.00003419453054666519,0.006525109186116606
1783246410898515200,2.09951513671875,-0.020514380240440368,-0.004563691186346114,0.002089928333822172
1783246410908527400,2.10952734375,-0.02620119370520115,-0.004852919923886656,0.013136725328618194
1783246410918539300,2.119539306640625,-0.025602643290162087,-0.003960062737390399,-0.005140924818720668
1783246410928550100,2.129550048828125,-0.03577916938960552,-0.005571808782964945,0.0017987565176561474
1783246410938562300,2.139562255859375,-0.020965046617388725,-0.01635382649488747,0.0013296320354100315
1783246410948573400,2.149573486328125,-0.027398879057168958,0.009671645317226647,-0.008810496159957255
1783246410958585300,2.15958544921875,-0.022611644780635834,0.012532258912734687,-0.008600065996381454
1783246410968596200,2.16959619140625,-0.015278233152627944,-0.009344386124238371,-0.006364744692365638
1783246410978608400,2.1796083984375,-0.017376082214713096,-0.005823847315274178,-0.001326124904071912
1783246410988620300,2.189620361328125,-0.020971476358175277,0.0045917847696691745,-0.0016462419702205806
1783246410998631200,2.199631103515625,-0.020372341421246526,-0.005739676163159311,0.015892339613114016
1783246411008643300,2.209643310546875,-0.025763386809825897,-0.004440831991657615,0.004515803773875814
1783246411018654500,2.219654541015625,-0.009154197314381598,-0.009362323639728129,-0.0023438071967684664
1783246411028666400,2.229666259765625,-0.028457448199391364,0.00799541920069605,0.0036533965245704163
1783246411038677200,2.23967724609375,-0.022321721923351287,0.002434862464107573,0.0009160097332205622
1783246411048689400,2.249689453125,-0.018134207105636596,0.005343699115514755,0.008867025819898117
1783246411058701300,2.259701416015625,-0.02292319494783878,0.016591434643045067,-0.011456884766183792
1783246411068712200,2.269712158203125,-0.0078057053148746485,0.0031690950227901337,-0.004672734201524872
1783246411078724400,2.279724365234375,-0.029206805261969563,-0.0010937135208398104,-0.0040908632099395615
1783246411088735200,2.2897353515625,-0.04088087644279003,0.004944653327949345,0.004998089131794404
1783246411098747100,2.2997470703125,-0.020980244186520575,-0.0005712240166962147,0.005690030618442688
1783246411108758300,2.30975830078125,-0.017391864305734632,0.0042948111170902845,0.0004681540845776908
1783246411118770400,2.3197705078125,-0.011859949141740798,0.01503193024136126,0.0001695844132453203
1783246411128782300,2.3297822265625,-0.0302682970136404,0.002377944645099342,0.0013142335368786005
1783246411138793200,2.339793212890625,-0.011412205374240874,0.008025631675869225,-0.000782932821905706
1783246411148805400,2.349805419921875,-0.009618892216682433,-0.013308065590821205,0.001921617995633278
1783246411158816300,2.359816162109375,-0.023686580535769462,-0.004434548381343484,-0.0006494746013893745
1783246411168828200,2.369828125,-0.020694412982463835,-0.002030081055499613,0.010149172301637008
1783246411178839300,2.37983935546875,-0.02518237205147743,0.00153488141708076,-0.0012339165759738533
1783246411188851500,2.3898515625,-0.008873626807332039,-0.009200593739375472,-0.0051672808193950915
1783246411198863400,2.39986328125,-0.013961889857053756,-0.0024595950465649366,0.01857991189638851
1783246411208874200,2.409874267578125,-0.022642039918899536,0.005651121096871793,0.002837577496503945
1783246411218886400,2.419886474609375,-0.004985387197136879,0.0008910305555909872,0.004194990304694511
1783246411228897300,2.429897216796875,-0.006484101322293281,-0.004872391809336841,-0.0018310034030000679
1783246411238909200,2.4399091796875,-0.012469605472683906,0.011133753759041428,0.000964013593411073
1783246411248920300,2.44992041015625,-0.027582418930530546,0.01709858044758439,-0.003753861224360298
1783246411258932500,2.459932373046875,-0.00917816271185875,-0.011746515362523495,0.0051272844524355606
1783246411268944400,2.4699443359375,-0.009778466692566871,0.0022113559065386652,0.007113028609286994
1783246411278955300,2.479955322265625,-0.02534019296169281,0.005632014537602662,0.005004564538353588
1783246411288967400,2.489967529296875,-0.026985622081160544,0.002183043127506971,-0.0008520342690520919
1783246411298978300,2.499978271484375,-0.023545126238465306,0.0038510859375819563,-0.007749417683528736
1783246411308990200,2.509990234375,-0.019805939710140226,-0.006288030760921538,0.003288200490968302
1783246411319001000,2.5200009765625,-0.01217091478705406,-0.001891841628588736,-0.0003883485803264193
1783246411329013200,2.53001318359375,-0.020545944422483444,-0.006789806270599365,0.01368505024362821
1783246411339025200,2.540025146484375,-0.030870354560017584,0.007398476220853626,0.000627913506841287
1783246411349036300,2.550036376953125,-0.018149404674768447,0.0033173809196799992,0.01255267836296698
1783246411359048400,2.56004833984375,-0.01321136375069618,0.0022649857899174094,0.0016443308576359413
1783246411369059300,2.570059326171875,-0.013210779228806495,0.0027057518273591995,0.006897830939048435
1783246411379071200,2.5800712890625,-0.023983517655730247,0.0008757599212229251,0.00555127288501244
1783246411389082000,2.59008203125,-0.016502221989631652,-0.001950257284939289,-0.005219161703682039
1783246411399094300,2.60009423828125,-0.028171616995334624,0.001741911763884127,0.0016716093069175258
1783246411409106200,2.610106201171875,-0.024431845945119858,-0.00004077040180563926,0.008944153026584535
1783246411419117300,2.620117431640625,-0.008268062129616737,-0.003694214875437319,-0.007650494203565176
1783246411429129500,2.63012939453125,-0.01799333733022213,0.01573167600855231,-0.0009418748268391937
1783246411439140400,2.640140380859375,-0.015295768809318542,-0.01160659543517977,-0.000008726729149930178
1783246411449152300,2.65015234375,-0.03190320473909378,0.0021221067205071447,-0.007710131419333629
1783246411459163100,2.6601630859375,-0.02741056949496269,0.006972469361126422,-0.004087483942764811
1783246411469175300,2.67017529296875,-0.021124036571383474,0.00109546708650887,0.004490915927791502
1783246411479187200,2.680187255859375,-0.022767712125182152,0.0073110536657273765,-0.001816579868714325
1783246411489198000,2.690197998046875,-0.026057985842227935,0.008011785813607276,0.011755379088991321
1783246411499210200,2.700210205078125,-0.024413141244649886,0.0035534546978771685,0.009395164180116261
1783246411509221400,2.710221435546875,-0.017231705307960508,0.0022344810537993907,0.0003913511048769578
1783246411519233300,2.7202333984375,-0.030252514922618864,-0.0066822542428970335,-0.001064848185959272
1783246411529244200,2.730244140625,-0.03145078479647636,0.004867167644947767,-0.0005043853085837327
1783246411539256300,2.74025634765625,-0.020971476358175277,0.0002778670933097601,0.010076294295093975
1783246411549268200,2.750268310546875,-0.025163082829117774,-0.0007178294131532312,0.009704846617218573
1783246411559279000,2.760279052734375,-0.017231705307960508,-0.008368161503225564,0.014608469248458277
1783246411569291300,2.770291259765625,-0.023066987332701683,0.00821691646426916,0.00429097975876648
1783246411579302400,2.780302490234375,-0.028154665860533713,-0.0034411534298211333,0.0056489611058263105
1783246411589313800,2.790313720703125,-0.018880057036876677,-0.001730732782743871,-0.0024050153151154515
1783246411599324700,2.80032470703125,-0.017833178332448005,-0.003353329015895724,-0.0022936364956665785
1783246411609336800,2.8103369140625,-0.013941431590914726,-0.011319522122107446,0.006203866458672564
1783246411619348700,2.8203486328125,0.002668342426419258,0.0012483926258981227,-0.0036552368552074765
1783246411629359600,2.830359619140625,-0.01483750364780426,0.0029983415657654404,0.006688193076627795
1783246411639371800,2.840371826171875,-0.03219546568393707,0.01796878741085529,0.00022670316165313123
1783246411649383000,2.8503828125,-0.02710778715610504,-0.0043336818227544425,0.0037409081279532984
1783246411659394800,2.860394775390625,-0.014242460364103317,-0.004105170296505093,-0.0019773233883781357
1783246411669405700,2.87040576171875,-0.016339140382409096,-0.00032057372387498615,-0.002095522390969563
1783246411679417900,2.88041796875,-0.031004794594645498,-0.005070471664704382,-0.0011751949589466676
1783246411689429800,2.8904296875,-0.017987492111325262,0.008712591026723384,0.000567906398314517
1783246411699440600,2.900440673828125,-0.022326982620358465,0.0019810177493840456,0.0013098153733764775
1783246411709452800,2.910452880859375,-0.02860708580315113,-0.005460274699889123,0.0047490668237674975
1783246411719464000,2.9204638671875,-0.011846505138278007,-0.002507306645810604,0.006072954104980453
1783246411729475800,2.930475830078125,-0.017232874351739882,-0.009996237629093229,0.004262758311280049
1783246411739486700,2.94048681640625,-0.02246843691766262,-0.0060094695478677745,0.005813243722869083
1783246411749499000,2.950498779296875,-0.010647650742530821,0.0005965776536613702,0.0035785389067837965
1783246411759510800,2.9605107421875,-0.011094225466251372,0.0038292028993368145,0.013436854486085939
1783246411769521700,2.970521728515625,-0.015428455278277397,0.0069952291822060935,0.016430282414716203
1783246411779533800,2.980533935546875,-0.017822656938433646,-0.0018348872769623993,0.010300266643543728
1783246411789544700,2.990544677734375,-0.017972879064083097,0.0034115254765376447,0.0055073698112042616
1783246411799556600,3.000556640625,-0.016924831315875053,-0.0042257644688710565,-0.0004174422440701164
1783246411809567700,3.010567626953125,-0.027248656931519507,-0.0032171719482168553,-0.0004318680616444908
1783246411819580000,3.020579833984375,-0.029939211189746854,0.0056979924459010355,0.006749615824106149
1783246411829591800,3.030591796875,-0.028590719190239904,-0.00811429634001106,-0.0012872952976031229
1783246411839602700,3.040602783203125,-0.021110592567920684,-0.016453231748752295,0.0034971944659948346
1783246411849614800,3.05061474609375,-0.021709142982959746,-0.0005951894141733646,0.0040127678888733495
1783246411859625700,3.060625732421875,-0.020809563794732092,0.010131116055138409,0.006367735800473019
1783246411869637600,3.0706376953125,-0.032630934491753576,-0.0009512363102287053,0.013354117239231708
1783246411879648800,3.080648681640625,-0.016617957323789595,-0.004135017445497214,0.007783781177434139
1783246411889661000,3.090660888671875,-0.01556990957558155,-0.015516097029112278,0.008265027639025356
1783246411899672800,3.1006728515625,-0.017962942191958427,0.005705993089266121,-0.00399780321518192
1783246411909683700,3.11068359375,-0.02125321590900421,0.0022233751378953454,0.014013026389246806
1783246411919696000,3.12069580078125,-0.017958266016840935,0.00873038241174072,-0.002495412995328661
1783246411929706800,3.130706787109375,-0.019902385821938512,-0.002958813272975385,-0.0020178814443410375
1783246411939718700,3.14071875,-0.0249877262622118,-0.000922448607161641,0.007442367878218646
1783246411949729800,3.150729736328125,-0.016607435929775236,0.008792780123464763,0.014351987436471971
1783246411959742000,3.160741943359375,-0.015707856741547583,0.006203128956444561,0.0036977242900640703
1783246411969753900,3.17075390625,-0.011218144106864928,-0.0018927184114232657,0.006508692340855486
1783246411979764700,3.1807646484375,-0.0034381577551364896,-0.000673880673572421,-0.0009296227000420913
1783246411989777000,3.19077685546875,-0.009123802176117897,0.005451470338925719,-0.004623444849834777
1783246411999787800,3.200787841796875,-0.01420914261639118,0.005253901940211653,-0.005534330883366055
1783246412009799700,3.210799560546875,-0.011364859101176262,-0.001363287709839642,0.004093890850665047
1783246412019810600,3.220810546875,-0.013908698365092276,-0.011680683584697545,-0.01040441200460773
1783246412029822700,3.23082275390625,-0.02019406224489212,0.004329553636908531,0.0015241659435327164
1783246412039834600,3.240834716796875,-0.0170534261316061,0.0004888429628685117,-0.0005086550583248027
1783246412049845800,3.250845703125,-0.024234862068295476,-0.006713087772578,0.004139449308731127
1783246412059858000,3.26085791015625,-0.024079379245638848,0.009302483211271464,-0.00048506412018323316
1783246412069868800,3.270868896484375,-0.04009235641360283,-0.006955116367526352,-0.00414160929977661
1783246412079880700,3.280880615234375,-0.027974048596620556,-0.004949110307358205,0.0066959448415320364
1783246412089891600,3.2908916015625,-0.018546879559755324,-0.007490940277278423,0.011917878457612822
1783246412099903700,3.30090380859375,-0.01301496439576149,-0.002588189862295985,0.0044607673847000115
1783246412109915600,3.31091552734375,-0.02184358301758766,0.005193805783428251,-0.0018756485456135122
1783246412119926800,3.3209267578125,-0.03545943591594696,0.010998400408960878,0.013188928156602196
1783246412129939000,3.33093896484375,-0.027974048596620556,0.0011771174879744647,0.007505936917010694
1783246412139949800,3.34094970703125,-0.02946925559043884,0.008323701306991279,0.001974766105110757
1783246412149961700,3.350961669921875,-0.030368250256776808,0.0029752894837409257,-0.001167623573844321
1783246412159972900,3.360972900390625,-0.014805939465761184,0.0002839680405333638,0.00288036860874854
1783246412169984800,3.37098486328125,-0.01854571051597595,-0.0054336058886721725,0.010786869700264651
1783246412179996700,3.38099658203125,-0.011212298887968063,0.00008307517357170581,-0.0003570081605692394
1783246412190007800,3.3910078125,-0.013754969108104705,-0.006238382932916283,0.010409837098396383
1783246412200019700,3.401019775390625,-0.010013444492220878,-0.0026722879491746423,0.00299340966232121
1783246412210030800,3.41103076171875,-0.018391396737098692,0.0029576076965779066,-0.006254884259856771
1783246412220042800,3.421042724609375,-0.020634791749715803,-0.0051496013155207035,-0.007176620480965357
1783246412230054000,3.431053955078125,-0.006868716725707054,0.003257796219550073,-0.0006831371256848797
1783246412240065800,3.441065673828125,-0.020040917509794233,0.0006564180821180344,0.010960532067005988
1783246412250077700,3.45107763671875,-0.032013679376244546,0.002043378928489983,-0.0014685655820649117
1783246412260088600,3.461088623046875,-0.018247604352235793,-0.005409202099777758,0.008139437631133478
1783246412270100700,3.471100830078125,-0.024832243439555167,0.00641658904403448,0.0009436603585490956
1783246412280111900,3.48111181640625,-0.029770868885517117,0.003748977269977331,0.0006852811337099411
1783246412290123800,3.491123779296875,-0.024380408018827435,-0.005915361523628235,0.001310011736198794
1783246412300135000,3.501135009765625,-0.030662849289178847,0.0015113544110208748,0.017935469663143157
1783246412310146800,3.511146728515625,-0.016593991926312446,-0.0018595467941835522,-0.0028681164819514375
1783246412320158700,3.52115869140625,-0.015246668970584869,-0.0018787629513069986,0.0034417014190927147
1783246412330169600,3.531169677734375,-0.02736731487512588,-0.011147307360358535,-0.008687773962586652
1783246412340181800,3.541181640625,-0.03904080153405666,0.01806099573895335,-0.00971303905682871
1783246412350193000,3.55119287109375,-0.013598901763558387,-0.005070471664704382,0.00021169738876633345
1783246412360204800,3.561204833984375,-0.019580898782610892,-0.0067944459130987525,-0.004366965321137104
1783246412370216000,3.5712158203125,-0.02765899129807949,-0.00610942279100418,0.000036635366093833
1783246412380227800,3.581227783203125,-0.014641688814759253,0.013664295149967073,-0.00009492772485828027
1783246412390239700,3.59123974609375,-0.01868248863816261,-0.01938186907917261,-0.0035162096937187016
1783246412400250600,3.601250732421875,-0.0007277297526597976,0.021203568080998957,0.005018935557000804
1783246412410262800,3.6112626953125,-0.028563246661424634,0.017854659511893987,0.01707770890620304
1783246412420273700,3.621273681640625,0.0024111527949571606,-0.008022745599038898,-0.002321289404283743
1783246412430285600,3.63128564453125,-0.04951660284101963,-0.019452377032116053,-0.00043332251650281245
1783246412440297000,3.641296875,-0.007172668108344078,0.016117241260036826,0.021055665776599196
1783246412450308900,3.651308837890625,-0.02079261265993118,0.01768025279305875,-0.0066453859813627785
1783246412460320800,3.66132080078125,0.004945639708638191,-0.0448718092424795,-0.012172602137352806
1783246412470332000,3.671331787109375,-0.03501227667033672,0.0076017071753740305,0.01081023230954306
1783246412480343800,3.68134375,-0.011968670213222503,0.006114391227066517,0.02721583922401769
1783246412490354700,3.691354736328125,-0.03291793473958969,-0.012732859518751501,0.010134262426872737
1783246412500366600,3.70136669921875,-0.010771569383144377,-0.02664933933150023,-0.019832820867199914
1783246412510378000,3.7113779296875,-0.026640169644355772,0.028581549503095445,-0.012437433935864828
1783246412520390000,3.721389892578125,-0.024697803404927252,-0.011742642905004323,0.01120283693987876
1783246412530401800,3.73140185546875,-0.017367314386367797,-0.013348616796918213,0.0018302042519790119
1783246412540413000,3.741412841796875,-0.026799159598350525,0.013702508268505335,-0.008873594841291197
1783246412550424800,3.7514248046875,-0.006899696385860443,0.012117284903675318,0.004939066120667849
1783246412560435700,3.761435791015625,-0.0300941094905138,-0.025416107742115855,0.011194598834495991
1783246412570447600,3.771447509765625,-0.01348550451695919,0.014266535359434783,-0.0008915945278829895
1783246412580458800,3.781458740234375,-0.021270751565694808,0.009264160494878888,-0.018745048463379498
1783246412590471000,3.791470947265625,0.0004261164575815201,-0.0016421777164563535,0.008975116703717503
1783246412600482800,3.80148291015625,-0.02531272043287754,-0.005192673272266983,0.01367876663331408
1783246412610494000,3.811493896484375,-0.013341712132096289,0.023829569203034043,-0.005536095865478273
1783246412620505900,3.821505859375,-0.04551321241855621,-0.010905717156827449,0.008902843768661841
1783246412630517000,3.83151708984375,-0.015585691666603087,-0.007603205012716352,0.021542579360574018
1783246412640529000,3.84152880859375,-0.031002456507086752,0.0010283931996673346,0.00792843664539978
1783246412650539800,3.851539794921875,-0.02516892804801464,-0.0010190773820504546,-0.00753198010714259
1783246412660552000,3.861552001953125,-0.019931611916422842,-0.010449205560982227,0.0021752342803869396
1783246412670563800,3.871563720703125,-0.013496025910973548,0.009581373217888175,0.012667347401333972
1783246412680575000,3.881574951171875,-0.031152678632736203,0.01226184447351843,0.012971928971633314
1783246412690587000,3.8915869140625,-0.01558686071038246,-0.012965718426555395,-0.001392420189490076
1783246412700598000,3.901597900390625,-0.02022328833937645,0.003443272321671247,-0.002235969757987186
1783246412710610000,3.91160986328125,-0.02112637465894222,0.01434800309780985,0.013695452906633727
1783246412720621800,3.921621826171875,-0.020530162331461904,-0.006836239228211343,0.018459991294168865
1783246412730633000,3.931633056640625,-0.012599369332194327,-0.008177388171479106,-0.007200946638046298
1783246412740644900,3.941644775390625,-0.00961246247589588,0.014853870260715484,0.0000024385522585362194
1783246412750656000,3.951656005859375,-0.014699556481838225,-0.004021072209626436,0.016941353192413224
1783246412760668000,3.96166796875,-0.006617956835031509,-0.008975589344464243,0.0071015368176042095
1783246412770679000,3.971678955078125,-0.02218435927927494,0.008184877358190715,0.007712248027895111
1783246412780691000,3.98169091796875,-0.02577449272572994,-0.004560695511661469,0.010014800765668042
1783246412790702800,3.991702880859375,-0.021133973443508147,-0.007304441261850297,0.01109765953235328
1783246412800714000,4.0017138671875,-0.015301029506325722,0.00968516238592565,0.003496689859207254
1783246412810726000,4.011725830078125,-0.02757832727730274,-0.006603526450879872,-0.006871570836496539
1783246412820736800,4.02173681640625,-0.022190204498171804,-0.009778649355657398,0.0038750376353273164
1783246412830749000,4.0317490234375,-0.025477555605769156,-0.0025545067884027955,-0.0035178285453584973
1783246412840760000,4.041760009765625,-0.013508300870656966,-0.00474891156014055,0.0007658401232096367
1783246412850772000,4.05177197265625,-0.037001989182829854,-0.015509776886180042,-0.015557814995700027
1783246412860782800,4.061782958984375,-0.019792495706677436,-0.0011664864961057901,0.018820568234869276
1783246412870795000,4.071794921875,-0.028322423642873764,0.007071399690955877,0.009890640096459537
1783246412880807000,4.081806884765625,-0.01604921752512455,0.0014624372353777288,-0.003732332095853053
1783246412890817800,4.09181787109375,-0.022186112844943998,0.001063683708757162,-0.0025687111269799058
1783246412900830000,4.101829833984375,-0.025180033963918685,0.014563034087978302,0.0065857099496875885
1783246412910841000,4.111841064453125,-0.017843699726462364,0.005635521668940782,0.005592623242130503
1783246412920853000,4.12185302734375,-0.019939795222878455,-0.004519742446765304,-0.015488731814862693
1783246412930863900,4.13186376953125,-0.018894670084118843,0.00960442529991269,-0.0018874074820661917
1783246412940876000,4.1418759765625,-0.019490297889709473,0.009671901045553386,0.004177986654255074
1783246412950888000,4.151887939453125,-0.013354571613669394,-0.009938443027250467,-0.0031043546569300812
1783246412960898800,4.16189892578125,-0.02427402503490448,-0.002707140066847205,0.0011198685921146533
1783246412970911000,4.171910888671875,-0.02651566648185253,0.014591894856281578,-0.00046315824905177576
1783246412980921900,4.181921875,-0.014691373175382614,0.0022486191770061848,0.003314958350441884
1783246412990934000,4.19193408203125,-0.019929273828864096,0.004513824162632227,-0.004269898154831026
1783246413000946000,4.20194580078125,-0.031153263154625892,0.013217172436974942,-0.00277694476689212
1783246413010957000,4.21195703125,-0.014994740036129951,0.009095051005668937,0.006102627724036574
1783246413020969000,4.221968994140625,-0.01574117448925972,-0.00456690605673939,0.014697604270058218
1783246413030979800,4.231979736328125,-0.02098082870841026,0.004024469743110239,0.008266089368239044
1783246413040992000,4.241991943359375,-0.02562076346874237,-0.004931282389722764,-0.003868829373538028
1783246413051003000,4.2520029296875,-0.013051204752922057,0.0010585691422224045,0.0019370393270510247
1783246413061014800,4.262014892578125,-0.013054711884260177,-0.006929799263179302,0.0008894459532806649
1783246413071026700,4.272026611328125,-0.021283026525378227,0.0023068156376481056,-0.0007002937564626336
1783246413081038000,4.2820380859375,-0.017992168286442754,0.0030797727715224025,-0.015533153195190243
1783246413091050000,4.292050048828125,-0.017841361638903618,0.0005086436418816447,-0.004408005151001271
1783246413101060900,4.302060791015625,-0.015149053815007208,0.010573270332068204,0.004748603316175285
1783246413111073000,4.312072998046875,-0.018891162952780722,0.0020647139774635434,-0.00006954440514091402
1783246413121084000,4.322083984375,-0.025773323681950566,-0.001860788903199136,0.0030072852073353713
1783246413131095800,4.332095703125,-0.022779987084865568,0.0027623773854225874,0.006660759363719262
1783246413141107700,4.342107666015625,-0.016044541350007057,-0.0013280702659860253,0.018052723384241107
1783246413151119000,4.352119140625,-0.01978314335644245,0.0005537248926237226,-0.007872646770975551
1783246413161131000,4.362131103515625,-0.03100654816031456,-0.005710632731765509,-0.01165148032309953
1783246413171142000,4.372141845703125,-0.027115385940670967,0.0019051395015791056,0.00852541844114894
1783246413181154000,4.382154052734375,-0.026216391274333,0.008012443400733172,0.019017127420008183
1783246413191165000,4.3921650390625,-0.021729601249098777,0.010910941321216523,0.0034593832062557337
1783246413201176800,4.4021767578125,-0.013800561815500259,0.005566657683812082,0.0034356507042190058
1783246413211187700,4.412187744140625,-0.015595044016838073,-0.004481346665136516,0.012460938109038398
1783246413221200000,4.422199951171875,-0.022325813576579093,0.002777173095755279,0.000656653260847088
1783246413231211800,4.432211669921875,-0.021281272959709167,-0.002847133059427142,-0.00009796678202692419
1783246413241223000,4.442222900390625,-0.022633272090554237,0.003116999509371817,0.01585533892083913
1783246413251235000,4.452235107421875,-0.015453589719533919,0.010531842343136668,0.012842546421324368
1783246413261246000,4.462245849609375,-0.017246902877092362,0.0005883578145876526,-0.011041344501543789
1783246413271257900,4.4722578125,-0.017549100694060325,-0.008331263558939098,-0.0010688256747554987
1783246413281270000,4.48227001953125,-0.013359247788786888,0.010372085204161703,0.01098647022586083
1783246413291281000,4.492281005859375,-0.00961772317290306,0.013953523887507617,0.006329872025095391
1783246413301292800,4.502292724609375,-0.027573651102185247,-0.007025368592143058,0.010759511335880961
1783246413311304000,4.512303955078125,-0.01799684446156025,0.004206365648657083,0.0033232489714631807
1783246413321316000,4.522316162109375,-0.003933832317590713,-0.001109130285680294,0.0013567986035486683
1783246413331327000,4.532326904296875,-0.026232173365354536,0.010167721738480032,0.010627208459412212
1783246413341339000,4.5423388671875,-0.005732406172156333,-0.008959661122970282,0.0032510491016437297
1783246413351351000,4.55235107421875,-0.029376316609978675,0.011868315111286937,-0.017379125838459002
1783246413361362000,4.56236181640625,-0.01755494591295719,0.0019930369807407257,-0.011358710204891395
1783246413371373800,4.572373779296875,-0.02039572229683399,-0.02185154712833464,0.021348269214737228
1783246413381385000,4.582385009765625,-0.01980184805691242,0.01073788630925119,0.029252208456408697
1783246413391397000,4.592397216796875,-0.02489011110663414,0.02033157101944089,-0.01985148446847452
1783246413401408000,4.602407958984375,-0.032225860822200775,-0.013261194241791964,-0.0014383188575622626
1783246413411420000,4.612419921875,-0.003194412127137184,0.0013652239385992288,0.020597740825091023
1783246413421432000,4.62243212890625,-0.030724808609485624,0.027175226369127628,0.015349341610481496
1783246413431443000,4.63244287109375,-0.015463526591658592,-0.0055528848867863415,-0.025526536713493985
1783246413441454800,4.642454833984375,-0.019652794975042343,-0.01963339615482837,-0.015586159740772564
1783246413451465700,4.6524658203125,-0.013518237742781639,0.019875863141193984,0.027092886414495296
1783246413461478000,4.662477783203125,-0.024741642546653748,-0.004038863594643771,0.004419912501215003
1783246413471489000,4.672489013671875,-0.01680851145982742,-0.02834368562661111,-0.008473982798145152
1783246413481501000,4.6825009765625,-0.04329728993475437,0.014219006423279642,-0.007615434306627139
1783246413491513000,4.69251318359375,-0.012923778980970382,0.006069273443706333,0.011269972475513349
1783246413501524000,4.70252392578125,-0.023393735069036484,-0.01557787368632853,0.010843488408462144
1783246413511535900,4.712535888671875,-0.020999533408880233,0.006859072114527225,-0.007496685031475499
1783246413521546800,4.722546630859375,-0.01621346817612648,0.0176839425874874,0.0060683372953673825
1783246413531559000,4.732558837890625,-0.005285831448435783,-0.010691599482111631,0.021366350577410775
1783246413541570000,4.742570068359375,-0.03297112623155117,0.0008923091972246766,-0.006614162009325809
1783246413551582000,4.75258203125,-0.02803542339503765,0.014693528599850833,-0.015156314672855659
1783246413561592800,4.7625927734375,-0.023846155011653897,-0.00818348911870271,0.008167298319016117
1783246413571605000,4.77260498046875,0.010874445235729217,-0.011440518153272568,0.022159692912187893
1783246413581617000,4.782616943359375,-0.09506780918240547,0.009938333429396151,-0.011529061803116927
1783246413591628500,4.792628662109375,0.03032674920260906,0.02460866381675005,-0.018415051607321948
1783246413601640400,4.802640380859375,-0.06902735899686813,-0.016364859345555306,0.026851462891034315
1783246413611651600,4.812651611328125,0.01552022521495819,0.01441281196232885,0.01589730348259909
1783246413621663500,4.82266357421875,-0.033413609302043915,0.02674673529136926,-0.025302278953965286
1783246413631674600,4.832674560546875,-0.029828736552596092,0.003838664847426116,-0.02663531080614775
1783246413641686500,4.8426865234375,-0.010675123271346091,-0.016641849656030536,0.04716387483556755
1783246413651698700,4.85269873046875,-0.03491466151475906,0.03898761004209518,0.013493249431997537
1783246413661709600,4.86270947265625,0.0005465279668569565,-0.0058341129809617994,-0.017206625665631144
1783246413671721500,4.872721435546875,-0.04389408678412437,-0.016367489694058893,-0.015920440046302973
1783246413681732600,4.882732666015625,0.012667173871397971,0.013172018120996653,0.03121244827924529
1783246413691744500,4.89274462890625,-0.03821428758203983,0.027357085742056367,0.015894145694421602
1783246413701756400,4.90275634765625,0.007877601507306098,-0.021062004185840488,-0.012260661730007267
1783246413711767600,4.912767578125,-0.04479541953802108,0.008430997606366872,-0.0009283554748515598
1783246413721779700,4.92277978515625,-0.00035480478703975673,0.0051802156494930385,0.033210357797925825
1783246413731790600,4.93279052734375,-0.02369710192978382,-0.010852343001775443,0.005316585063014645
1783246413741802500,4.942802490234375,-0.00993102690577507,-0.006350172744318842,-0.02843744659097865
1783246413751813600,4.952813720703125,-0.04255436261296272,0.024536731091700494,-0.002388961512746755
1783246413761825500,4.962825439453125,-0.008284428742527961,0.003509834751859307,0.013950902672158554
1783246413771837400,4.97283740234375,-0.018158172503113745,-0.01988265820816159,-0.0034603741535218432
1783246413781848300,4.982848388671875,-0.03312485548853874,0.012953443466871975,-0.03196675094499951
1783246413791860500,4.992860595703125,-0.0139729957729578,0.002673603123426437,0.010935456991253886
1783246413801871600,5.00287158203125,-0.004990063372254372,-0.007180120762437582,0.02275333425666904
1783246413811883500,5.012883544921875,-0.006634323447942733,0.009398746659979224,-0.004677170631336048
1783246413821894700,5.022894775390625,-0.022795769175887107,0.002529262749291956,-0.02469693575524725
1783246413831906600,5.032906494140625,-0.013669044390320777,-0.02677260038498789,0.020190262852609157
1783246413841918500,5.04291845703125,-0.01980243257880211,0.011646306391060351,0.027333837297209538
1783246413851929300,5.052929443359375,-0.01875438483059406,0.0044466406779363745,-0.012133989443304016
1783246413861941500,5.06294140625,-0.03221826203763485,-0.007469751358777284,-0.001921800658723805
1783246413871952600,5.07295263671875,-0.012612228813767433,0.00890522752199322,0.024377786803478373
1783246413881964500,5.082964599609375,-0.025631869384646414,0.023145715124718844,0.011262364557792897
1783246413891975700,5.0929755859375,-0.009168810361623763,-0.009695135790668427,-0.01318426339792786
1783246413901987600,5.102987548828125,-0.029521862560510634,-0.0093466146139428,0.0025272420388530005
1783246413911999500,5.11299951171875,-0.015904256096482276,0.012940474387444554,0.01712401628294028
1783246413922010600,5.1230107421875,-0.017999182549118996,0.006952157225459814,0.015056117117835674
1783246413932022500,5.1330224609375,-0.022341011145710944,-0.009290683175623416,-0.004787811948556918
1783246413942033400,5.143033447265625,-0.037005496314167975,-0.016626615554280577,0.003166437274822965
1783246413952045600,5.153045654296875,-0.039997079345583914,0.014328713875450193,-0.0021948066305369136
1783246413962056700,5.163056640625,0.016419219881296156,-0.000703873953036964,0.006872584616648964
1783246413972068600,5.173068603515625,-0.050321489483118056,-0.008282857839949429,-0.013064324529399164
1783246413982080500,5.18308056640625,0.004749824875593185,0.0016379399327561257,0.0017011641949648037
1783246413992091600,5.193091552734375,-0.05824702178537845,0.007762523760274052,0.0036501017390750345
1783246414002103600,5.203103515625,0.0031055647999048233,-0.011861227783374487,-0.0025544177401461638
1783246414012114400,5.213114501953125,-0.04163783228993415,0.008992650077119468,0.007115206866641528
1783246414022126300,5.223126220703125,-0.006925999870896339,0.0014566285490989685,0.010332890271511859
1783246414032137700,5.2331376953125,-0.029072365227341652,-0.019176482700183985,0.008235696513263974
1783246414042149600,5.243149658203125,-0.006325695890188217,0.0066712579248473045,-0.004437724435830023
1783246414052161500,5.25316162109375,-0.029964345631003378,0.015094802877120672,0.0027966221483191472
1783246414062172700,5.263172607421875,-0.01828968992829323,-0.010561652959510684,0.011018116606294643
1783246414072184600,5.2731845703125,-0.025619594424962994,-0.010467873728834093,0.016925107593799473
1783246414082195500,5.283195556640625,-0.03504559441804886,0.011934841008856893,-0.005298754862090573
1783246414092207400,5.293207275390625,-0.01783200928866863,-0.00030698358993977307,-0.0002264953823876567
1783246414102218800,5.30321875,-0.01558686071038246,-0.011110920872725546,0.017659643829870036
1783246414112230700,5.313230712890625,-0.005411503654718399,-0.004663352168537676,0.012751340456935576
1783246414122242600,5.32324267578125,-0.03339607364535332,0.004507759748026728,0.0012004321481916122
1783246414132253700,5.333253662109375,-0.0034703064590692516,-0.00681779025606811,0.00831133958233986
1783246414142265600,5.343265625,-0.019179916766285894,0.0022546105263754725,0.0001327937835245393
1783246414152276500,5.3532763671875,-0.007960019093751906,0.015487382391281425,0.016842655758024194
1783246414162288400,5.363288330078125,-0.010803718087077141,-0.009625212359614669,0.008837208353658206
1783246414172299500,5.373299560546875,-0.01409632989168167,0.004904978904686868,0.006299084161187056
1783246414182311400,5.3833115234375,-0.03669277710318565,0.005970525776967406,0.005621874452789779
1783246414192323300,5.3933232421875,-0.0016769933015108108,-0.005260843137651682,0.00807108053608099
1783246414202334700,5.403334716796875,-0.0295101721227169,0.008969123071059584,0.008686184793699066
1783246414212346600,5.4133466796875,-0.011408113721013068,0.002637618494592607,-0.006342484911496285
1783246414222357500,5.423357421875,-0.029215573090314865,-0.00587590629607439,0.010757228047249372
1783246414232369400,5.433369384765625,-0.007816226708889007,0.002771254811622202,0.0060432051373994905
1783246414242380500,5.443380615234375,-0.018293197059631346,0.015399557977356015,-0.0013828235273715109
1783246414252392400,5.453392333984375,-0.005722469300031662,0.005045629484392702,0.0017551297217723912
1783246414262403600,5.463403564453125,-0.031008886247873305,0.002596628897078335,0.01494033840119373
1783246414272415700,5.473415771484375,-0.01350596278309822,0.005845620755665004,0.006190838013740722
1783246414282427600,5.483427734375,-0.012909750455617904,-0.016244082510098814,0.02086289913387736
1783246414292438500,5.4934384765625,-0.01979132666289806,-0.0053571065863594405,-0.0016269367648405022
1783246414302450700,5.50345068359375,-0.027870003700256347,0.010605747829563915,-0.0024261243185144847
1783246414312461600,5.513461669921875,-0.013352818048000335,0.006645685092173516,0.008801993193093221
1783246414322473500,5.523473388671875,-0.012748422414064407,-0.01728120700549334,0.009118251501454505
1783246414332485400,5.5334853515625,-0.032949498921632764,0.008437354281917215,-0.011605033665755764
1783246414342496500,5.54349658203125,-0.02083060658276081,-0.005881788047589361,0.012891650826635305
1783246414352508700,5.5535087890625,-0.031603345009684564,-0.017578545984253287,0.007925468370178714
1783246414362519600,5.56351953125,-0.007958265528082847,0.008852510954067111,0.0012059051910415291
1783246414372531700,5.57353173828125,-0.022023615759611127,0.010780921733379363,0.008669044145941733
1783246414382542600,5.58354248046875,-0.0016711480826139449,-0.009457235381565987,0.00809966045988258
1783246414392554500,5.593554443359375,-0.02875730792880058,0.00256553963907063,0.010257719843182711
1783246414402566400,5.60356640625,-0.005411503654718399,0.010879778997972607,0.008564647623128257
1783246414412577500,5.61357763671875,-0.007056932774186134,-0.0015640344463288783,0.005806071913277264
1783246414422589400,5.62358935546875,-0.019626491490006445,-0.004555544412508607,-0.010215275790810118
1783246414432600600,5.6336005859375,-0.030249592313170433,-0.0032378859426826236,0.0018711344839888624
1783246414442612700,5.64361279296875,-0.03294190013706684,-0.0059628173945471645,0.009296167634916492
1783246414452623600,5.65362353515625,-0.017830255722999573,-0.008159889047406613,0.010118489469005726
1783246414462635500,5.663635498046875,-0.014991817426681518,-0.0016014073146507143,0.008668655986874364
1783246414472647400,5.6736474609375,-0.004969020584225654,-0.0018302476344630122,-0.002075456850475166
1783246414482658600,5.683658447265625,-0.028010873475670814,-0.0018796397341415284,0.010080141636438202
1783246414492670500,5.69367041015625,-0.024116788646578787,0.0020659926190972327,0.005417004097031895
1783246414502681600,5.703681640625,-0.032498248022794725,0.006736541713401675,0.0005442264119163155
1783246414512693800,5.71369384765625,-0.024119126734137533,-0.00012366291228681803,-0.0009680367479799315
1783246414522704600,5.72370458984375,-0.01424187584221363,0.0002842237688601017,-0.003081366506987251
1783246414532716500,5.733716552734375,-0.026810850036144255,0.0040143502078950405,0.010953298608621116
1783246414542728400,5.743728515625,-0.023818097960948942,-0.001229614860191941,0.01492988778912695
1783246414552739600,5.753739501953125,-0.011102408772706985,-0.0008379851941019296,-0.002403394180187024
1783246414562751500,5.76375146484375,-0.024573884764313696,0.005236914272792637,-0.005912046188535168
1783246414572762400,5.773762451171875,-0.006019990941882133,-0.0034163112495094535,0.0019438686433481051
1783246414582774500,5.7837744140625,-0.010360065972805022,0.014698423970676958,-0.0008057405920466408
1783246414592785700,5.79378564453125,-0.021582301732897758,0.010648746721073984,0.002018109773204196
1783246414602797600,5.803797607421875,-0.013207856619358062,0.016310644940286875,0.010041839469643309
1783246414612808400,5.813808349609375,-0.014707739788293837,-0.0018580854894593357,0.0055485557715408505
1783246414622820600,5.823820556640625,-0.01575344944894314,-0.0047459524180740115,0.004075932785577606
1783246414632832500,5.83383251953125,-0.013963058900833129,0.006903093919344246,0.0036894428021972997
1783246414642843400,5.843843505859375,-0.013063479712605476,-0.0006106427116319537,0.011815338248456828
1783246414652855600,5.85385546875,-0.013660861083865165,0.0019053952299058435,0.001092140334972646
1783246414662866700,5.86386669921875,-0.02144143195748329,0.014454787940531968,-0.003927553273853845
1783246414672878600,5.873878662109375,-0.009469839134812355,0.011311229217797517,-0.001831418961531017
1783246414682889500,5.883889404296875,-0.02278817039132118,-0.003195142779499292,-0.006864415009925142
1783246414692901600,5.893901611328125,-0.005430792877078056,-0.006025361236743629,0.009984225247602443
1783246414702913500,5.90391357421875,-0.019049568384885786,-0.004474953456968069,0.0019195698857307434
1783246414712924400,5.91392431640625,-0.026235680496692657,-0.006631510436348616,0.005834268244588747
1783246414722936600,5.9239365234375,-0.017557284000515937,-0.0007882277682423591,0.005791445166303311
1783246414732947700,5.93394775390625,-0.028329437905550002,0.009333609001897275,0.0031905396696180104
1783246414742959600,5.943959716796875,-0.026684593307971953,0.00023552578892558813,0.005698958276992198
1783246414752970500,5.953970458984375,-0.03327215500473976,0.004508490400388836,0.011239088713482488
1783246414762982700,5.963982666015625,-0.022947160345315933,0.011991320436447859,0.0015240083966171368
1783246414772994600,5.97399462890625,-0.021897359031438825,0.0020664310105144978,0.0024047344706137662
1783246414783005400,5.98400537109375,-0.022343933755159376,-0.003831979378312826,-0.00749990675173467
1783246414793017600,5.994017578125,-0.022194880673289296,0.0042536753891035915,0.009523564916313626
1783246414803028500,6.004028564453125,-0.016658873856067655,0.005168634809553623,0.0050429169374983755
1783246414813040400,6.014040283203125,-0.01949906571805477,0.006141023505665362,0.002111370697361417
1783246414823051500,6.024051513671875,-0.01919628337919712,-0.00022259324211627244,0.0024241447072708977
1783246414833063700,6.034063720703125,-0.014859715479612349,-0.008382372691668569,0.0006517738730413839
1783246414843075600,6.04407568359375,-0.027880525094270706,-0.004730426055379212,-0.003093465653446037
1783246414853086500,6.05408642578125,-0.019946809485554693,0.0016402414876967668,0.001907272093161009
1783246414863098600,6.0640986328125,-0.02039572229683399,0.008379157821275292,-0.009397860743990167
1783246414873109500,6.074109619140625,-0.02219429615139961,0.003357639864832163,0.005521103792323265
1783246414883121400,6.084121337890625,-0.04179565320014953,-0.0005533595664426684,0.006346903074998408
1783246414893132500,6.094132568359375,0.0021954642176628112,0.0054963689265772695,0.00203134143082425
1783246414903144700,6.104144775390625,-0.027134675163030624,-0.003612710604444146,-0.002035992489766795
1783246414913156600,6.114156494140625,0.006083703827857971,0.001655621719919145,-0.003917088962055277
1783246414923167500,6.12416748046875,-0.01785831277370453,-0.0023780907755717633,-0.0024552819143398665
1783246414933179600,6.1341796875,-0.011576456025242805,0.0003853825883939862,0.011395144641585647
1783246414943190500,6.1441904296875,-0.016366028389334677,-0.01366002083364874,-0.00009665845764102414
1783246414953202400,6.154202392578125,-0.01636544386744499,0.011318572274036705,-0.0036210902737220745
1783246414963213600,6.164213623046875,-0.03043079409897327,0.008456460841186344,0.017387681320961565
1783246414973225500,6.1742255859375,-0.023847324055433272,0.003540814412012696,-0.008295747004274745
1783246414983237600,6.184237548828125,-0.020111060136556624,-0.007255524086207151,0.001618369865894783
1783246414993248500,6.19424853515625,-0.021909633991122245,0.01869078154247254,-0.0008501505559310316
1783246415003260700,6.2042607421875,-0.01532324133813381,-0.007098178100027144,0.002479845533438492
1783246415013271600,6.214271484375,-0.01831482436954975,-0.00009615385085344313,0.003579879197210539
1783246415023283500,6.224283447265625,-0.017265023055672644,0.009875168532691896,-0.010042570122005417
1783246415033294300,6.23429443359375,-0.0235498024135828,0.008812836530804634,0.013785492110531776
1783246415043306500,6.244306396484375,-0.004095744881033897,-0.008574461197666824,0.010160785107617266
1783246415053318400,6.254318359375,-0.027585926061868667,0.011405044981092214,0.001333671172999311
1783246415063329500,6.26432958984375,-0.02279869178533554,0.006954787573963403,-0.004187918959802482
1783246415073341700,6.274341796875,-0.015317980641126631,-0.002729607626982033,0.0037471620555152184
1783246415083352600,6.2843525390625,-0.019808277797698972,0.0011891732519492507,0.0070999955977778875
1783246415093364500,6.294364501953125,-0.03147767280340195,0.0083143854893744,-0.0014026927050435915
1783246415103375400,6.304375244140625,-0.01546528015732765,0.008743388023786247,0.011194384205364621
1783246415113387500,6.314387451171875,-0.028633389288187025,0.005740991337411105,0.006659240976779256
1783246415123399400,6.3243994140625,-0.010675707793235779,0.0037599370554089544,-0.00020574942188104613
1783246415133410600,6.33441064453125,-0.017854221120476722,0.0006756707718595862,-0.008640580669860355
1783246415143422700,6.344422607421875,-0.01201367839872837,-0.0012359715357422828,-0.0013176516199600882
1783246415153433600,6.35443359375,-0.01485620834827423,0.00219937320780009,0.001095090343884658
1783246415163445500,6.364445556640625,-0.023088614642620086,0.003739551854506135,0.0018050857937429098
1783246415173456400,6.374456298828125,-0.012612228813767433,-0.009469802602194249,-0.00009273348448332399
1783246415183468500,6.384468505859375,-0.014556933140754699,0.0038377149993553757,-0.01110707581466995
1783246415193480400,6.39448046875,-0.011862871751189231,-0.00037091567162424324,0.0008242146803648211
1783246415203491300,6.4044912109375,-0.024132570737600324,0.01158222817890346,0.010108070822979789
1783246415213503500,6.41450341796875,0.0008604162216186523,0.013887290250882506,0.0054367545436951326
1783246415223514600,6.4245146484375,-0.06632569882273674,-0.009928286959417163,0.01165270188251743
1783246415233526500,6.434526611328125,-0.005721884778141975,0.032096535354107614,-0.005213008240819908
1783246415243537400,6.444537353515625,-0.03759469437897205,0.007111293309926986,0.00044949504988035186
1783246415253549600,6.454549560546875,-0.01709317362010479,-0.010279548082500695,0.0034145713835721835
1783246415263561500,6.4645615234375,-0.020085341173410414,0.004079743594303727,0.00976200418153312
1783246415273572400,6.474572265625,-0.03234977946281433,0.015447707968018948,-0.003942789658892434
1783246415283584500,6.48458447265625,-0.000775076025724411,-0.022723471124656495,0.012653051731211598
1783246415293595600,6.494595703125,-0.05224982719719409,0.0046525750461965795,-0.01421092358152382
1783246415303607600,6.504607666015625,-0.01618774921298027,0.0009148863552138209,-0.005458783712412696
1783246415313618700,6.51461865234375,-0.041027006915211675,0.0010555734675377606,0.012063570538617204
1783246415323630600,6.524630615234375,-0.011843582528829574,-0.024481968697160482,0.015238296151172835
1783246415333642500,6.534642578125,-0.037431028249859805,0.013353292972035705,-0.013998244378645903
1783246415343653400,6.5446533203125,-0.023511808490753173,-0.004981112880818546,0.013574023050628601
1783246415353665500,6.55466552734375,-0.04371171595454216,-0.0005251929178833961,0.022425906100322024
1783246415363676700,6.5646767578125,-0.020066051951050757,0.005384140723757445,0.014304390001657884
1783246415373688600,6.5746884765625,-0.03742167589962482,0.006978131916932761,0.0053660958937020034
1783246415383699700,6.58469970703125,-0.009588497078418731,-0.007699504994042218,0.0022660087032243606
1783246415393711600,6.594711669921875,-0.030539515170454976,-0.009004925036802888,-0.0029813972808304242
1783246415403723500,6.6047236328125,-0.01123334167599678,0.010523585971444845,0.002650361528445501
1783246415413734400,6.614734375,-0.019163550153374672,-0.006691862321458756,0.008856858335621654
1783246415423746600,6.62474658203125,-0.024103344643115997,0.007710062920674682,-0.00432546883354662
1783246415433757400,6.63475732421875,-0.008840309059619904,0.010252806206047535,-0.007488230013672727
1783246415443769300,6.644769287109375,-0.009438274952769278,0.0028996304316446183,0.0017435876977397128
1783246415453780700,6.65478076171875,-0.016170213556289673,-0.024980164010263976,-0.0042622970869764685
1783246415463792600,6.664792724609375,-0.009137246179580689,-0.0019376169990748167,0.010770219959563109
1783246415473804500,6.674804443359375,-0.016021160474419593,0.004055960859917104,-0.0013806475533056073
1783246415483815400,6.6848154296875,-0.018563830694556235,-0.00899224821832031,-0.00047109952691243957
1783246415493827600,6.69482763671875,-0.01362228263914585,-0.003989946419000625,0.0058266648934455585
1783246415503838500,6.70483837890625,-0.026939444851875303,0.004819967502355575,0.012254729746142402
1783246415513850400,6.714850341796875,-0.015117489632964134,-0.007155643908306956,0.00882406117771752
1783246415523861800,6.72486181640625,-0.03396481344401836,0.009127053579129279,0.0025630531377508303
1783246415533873700,6.734873779296875,-0.03127192109823227,0.006754186967946589,0.00047616157780867066
1783246415543885600,6.744885498046875,-0.02199380514323711,-0.008679930866137147,0.006363623597647528
1783246415553896400,6.754896484375,-0.011219897672533988,-0.005532207424938679,-0.0010277059297892264
1783246415563908600,6.76490869140625,-0.022145196312665937,0.010664492279477416,0.002134587176167406
1783246415573919500,6.77491943359375,-0.018254034093022346,0.0018310513520613312,-0.002208051987888757
1783246415583931400,6.784931396484375,-0.017205986344814298,-0.007168832183443009,-0.00020204821100924163
1783246415593942000,6.79494189453125,-0.03561141160726547,-0.0019287395728752015,-0.0000643316571949981
1783246415603954000,6.804953857421875,-0.032765959048271176,-0.004683116314932703,0.0031868293255916794
1783246415613966000,6.814966064453125,-0.01840016456544399,-0.01023103276565671,0.00010260414123767986
1783246415623977000,6.82497705078125,-0.017503507986664772,-0.0007639335772022604,0.007972734728141221
1783246415633988900,6.83498876953125,-0.019151275193691253,-0.008502966864034534,0.00660884423010284
1783246415643999700,6.844999755859375,-0.01735153229534626,-0.002762450450658798,0.006768706400354858
1783246415654012000,6.855011962890625,-0.017947744622826577,0.004659150917455554,-0.0005379313851590268
1783246415664023000,6.86502294921875,-0.03126315326988697,-0.002880414274521172,0.003637034478236455
1783246415674035000,6.875034912109375,-0.0064233110457658765,-0.008122881505265831,0.0035249044568277893
1783246415684047000,6.885047119140625,-0.028868951609730718,-0.01394720374457538,-0.010511386360286269
1783246415694058000,6.89505810546875,-0.016899112352728844,0.0037296149823814627,0.00011259581228950992
1783246415704070000,6.90506982421875,-0.009714169284701347,-0.00007280950788408517,0.008345990770612844
1783246415714080800,6.915080810546875,-0.031409283742308614,0.01259615446180105,0.004826280795421916
1783246415724093000,6.925093017578125,-0.02901566660404205,0.01531209888961166,0.004509988237731158
1783246415734103800,6.935103759765625,-0.017790508234500884,0.0019350962484255432,0.012065451968449633
1783246415744115700,6.94511572265625,-0.014951485416293143,0.003237484083883464,0.007401937686419114
1783246415754128000,6.9551279296875,-0.010762801554799079,0.0067057447163388125,-0.001932723911537323
1783246415764139000,6.965138916015625,-0.019592004698514937,0.0023780907755717633,0.007691209806443658
1783246415774151000,6.97515087890625,-0.014207973572611807,-0.016846140056475997,-0.001084947975783143
1783246415784161800,6.985161865234375,-0.016903788527846336,-0.0006234656605869531,-0.008064801492344122
1783246415794174000,6.995174072265625,-0.02408697803020477,-0.004789645429328084,-0.0032378813761053606
1783246415804184800,7.005184814453125,-0.013012626308202742,-0.0012241349674761294,-0.002107543905614875
1783246415814196700,7.01519677734375,-0.020942250263690947,0.0011467954149469732,-0.004303213619254529
1783246415824209000,7.025208984375,-0.018396657434105873,-0.008022745599038898,0.007087617890106048
1783246415834220000,7.035219970703125,-0.013010872742533684,0.0045705958511680364,0.004553710931737441
1783246415844232000,7.04523193359375,-0.019891279906034467,0.010639102109894156,0.010724248226254712
1783246415854242800,7.055242919921875,-0.018393734824657438,0.0019354981072247028,0.007472009531233925
1783246415864255000,7.0652548828125,-0.022729133680462837,0.003019968875683844,0.006773062915063928
1783246415874265900,7.075265869140625,-0.014798340681195258,-0.008514730367064476,0.0062399310026085
1783246415884277800,7.08527783203125,-0.022428689429163932,-0.0013565657081082462,0.0010113073508371598
1783246415894290000,7.0952900390625,-0.020484569624066352,0.009600808570720255,0.005648104872589465
1783246415904301000,7.105301025390625,-0.012405892586708068,-0.0035321561815217137,-0.001564235375728458
1783246415914313000,7.11531298828125,-0.020337270107865332,0.005300115702114999,0.004956309516413603
1783246415924323800,7.12532373046875,-0.025123335340619085,-0.00014090630803257226,0.012058296141878236
1783246415934336000,7.1353359375,-0.006119944185018539,-0.0022181144408881664,-0.0034865178083535284
1783246415944347000,7.145346923828125,-0.005370002600550651,0.004163403289765119,0.008386811404768378
1783246415954358800,7.15535888671875,-0.007764788782596587,0.002989062280766666,0.001497419500502292
1783246415964371000,7.165370849609375,-0.015844634863734244,-0.01243270752839744,0.006354867185745388
1783246415974381800,7.1753818359375,-0.022279051825404166,-0.010489683701843023,0.014944158343074377
1783246415984393700,7.185393798828125,-0.01794365296959877,-0.0021411036819219587,0.009456207901681772
1783246415994405000,7.195405029296875,-0.02752221317589283,-0.0015060937140136956,-0.00690275370933814
1783246416004417000,7.2054169921875,-0.019741057780385016,0.009120769968815147,0.0025743576997658236
1783246416014428000,7.215427978515625,-0.01166296526491642,-0.008168510745279491,0.013413731622113845
1783246416024439800,7.225439697265625,-0.013009119176864623,-0.003843377555161714,0.007879638200765475
1783246416034452000,7.235451904296875,-0.016745967617630957,-0.0018598390551283954,0.007016283386677969
1783246416044462800,7.245462890625,-0.006720248165726661,-0.0017058540698140859,0.002396850274968892
1783246416054474800,7.255474853515625,-0.010014613536000251,0.005688786226138472,0.007907519438245799
1783246416064486100,7.265486083984375,-0.019144260931015015,-0.009389028983563185,0.00491452761774417
1783246416074498000,7.275498046875,-0.02333236027061939,0.0004542100409045815,0.00103080206917366
1783246416084509000,7.285509033203125,-0.014054244315624236,-0.011533858992531894,0.0035895238083903675
1783246416094520800,7.295520751953125,-0.014203297397494315,0.0031082682136446237,-0.011217123476846608
1783246416104533000,7.305532958984375,-0.020339023673534393,-0.0013615341441705821,0.0034164573799818753
1783246416114543900,7.3155439453125,-0.03081774758994579,-0.006951353507861495,0.0055689820716390386
1783246416124555800,7.3255556640625,-0.013013795351982115,-0.0007453750072047114,0.0011121031274786218
1783246416134567000,7.33556689453125,-0.0368038362622261,0.003990165614709258,0.015165397595032118
1783246416144578800,7.345578857421875,-0.019746902999281883,-0.008988996815308927,0.00498182298358297
1783246416154590000,7.35558984375,-0.013910451930761337,-0.003764357502199709,0.003029862365324516
1783246416164601900,7.365601806640625,-0.008971241962909698,0.0021864406609907747,-0.00030083469365490596
1783246416174614000,7.375614013671875,-0.034929859083890916,0.0039178675634786485,-0.0023156085821683515
1783246416184625000,7.385625,-0.27131460292637344,0.020456804834306237,-0.08828848777320235
1783246416194636800,7.39563671875,0.25452654973268507,-0.024584917614981532,0.09682880010609514
1783246416204648000,7.40564794921875,0.11475625999271868,0.0035416546622291205,0.07367330337287857
1783246416214659800,7.415659912109375,-0.3433434818267822,0.004153393352404237,-0.14504665924031288
1783246416224671000,7.4256708984375,0.1751537378102541,-0.016533859236910937,0.057007762314006685
1783246416234683000,7.435682861328125,0.0418318935573101,-0.009108458476513624,0.04258464815337211
1783246416244695000,7.445695068359375,-0.11947393616437911,0.0034555107487365603,-0.047773403302347285
1783246416254706000,7.455705810546875,0.0677647917151451,0.003693703418783843,0.03531656597969122
1783246416264717800,7.4657177734375,0.029214988568425176,-0.01733249880131334,0.011966103796800598
1783246416274729000,7.47572900390625,-0.06321779593527317,0.006346373352035879,-0.009264128528838046
1783246416284740900,7.485740966796875,0.025125088906288146,0.018655783294327558,0.036837985127000136
1783246416294752000,7.495751953125,-0.00837561415731907,-0.018210341081768274,0.004571445234538987
1783246416304764200,7.50576416015625,-0.20935703618526458,0.0063295683477073905,-0.10533464391380548
