time,seconds_elapsed,z,y,x
1783246435100548900,0.063548828125,0.0010912662837654352,0.0006861964939162135,0.0004103402607142925
1783246435110560800,0.073560791015625,-0.0010437900200486183,0.0014449310256168246,0.0004950291477143764
1783246435120572200,0.083572265625,-0.00012489664368331432,0.00012566940858960152,-0.0003389958292245865
1783246435130584000,0.093583984375,-0.0010359641164541245,-0.0013976588379591703,-0.0008607092313468456
1783246435140595000,0.103594970703125,0.0009294156916439533,-0.00032796221785247326,0.0007299860008060932
1783246435150607000,0.113607177734375,0.0001491094008088112,-0.00027629686519503593,-0.001043679192662239
1783246435160619000,0.123618896484375,0.0009188423864543438,0.0004398204619064927,-0.00048101553693413734
1783246435170630000,0.1336298828125,-0.0007427036762237549,-0.00010239914990961552,0.0005919719114899635
1783246435180641800,0.143641845703125,0.0008171724621206522,-0.00002435198985040188,-0.00004559103399515152
1783246435190653200,0.153653076171875,0.0002001181710511446,-0.0009306257124990225,0.0008236649446189404
1783246435200665000,0.1636650390625,0.0008820188231766224,0.00017670670058578253,0.0012469054199755192
1783246435210677000,0.173677001953125,0.000029807211831212044,-0.0010028074029833078,-0.000540608074516058
1783246435220688100,0.183688232421875,0.0003556429874151945,-0.00149357202462852,-0.00047389091923832893
1783246435230700000,0.193699951171875,0.001285086153075099,0.0008052686462178826,-0.0005822817329317331
1783246435240711000,0.2037109375,-0.0003619738854467869,0.000535019556991756,0.0006998288445174694
1783246435250722800,0.213722900390625,0.000744569581001997,-0.0005883018020540476,0.0007171398028731346
1783246435260734200,0.223734130859375,-0.0001891076099127531,0.0006856811232864857,0.0013064933009445667
1783246435270746000,0.23374609375,0.0007986589334905148,0.0004135060589760542,0.0005940976552665234
1783246435280758000,0.243758056640625,0.0001996371429413557,-0.0007198615930974483,0.00017984909936785698
1783246435290769200,0.25376904296875,0.0006475809495896101,-0.00040054856799542904,-0.0005189641378819942
1783246435300781000,0.263781005859375,0.002037664409726858,-0.0003200701903551817,0.0005380385555326939
1783246435310792000,0.2737919921875,0.0005550824571400881,0.00030337576754391193,0.00048717204481363297
1783246435320803800,0.283803955078125,0.0002133373636752367,-0.0017528682947158813,-0.00028620846569538116
1783246435330816000,0.29381591796875,0.0009542286861687899,-0.0011477982625365257,0.00002857716754078865
1783246435340827000,0.303826904296875,-0.00013233418576419353,-0.0014796729665249586,-0.0009436772670596838
1783246435350838800,0.3138388671875,0.0005643486510962248,-0.0013331992086023092,0.001135452650487423
1783246435360850200,0.32385009765625,0.0004631809424608946,-0.001135705504566431,-0.000307377427816391
1783246435370862000,0.333862060546875,-0.0005248517263680696,-0.0009567411616444588,-0.0003920658491551876
1783246435380873000,0.343873046875,0.00044426973909139633,-0.0014889014419168234,-0.00026829401031136513
1783246435390884900,0.353884765625,0.00020511774346232414,-0.000046533532440662384,0.0001128041185438633
1783246435400897000,0.36389697265625,-0.001296195201575756,0.00048274826258420944,-0.0008274978026747704
1783246435410908000,0.373907958984375,0.0004380552563816309,-0.0016038385219871998,0.0007677357643842697
1783246435420919800,0.383919921875,-0.000706676859408617,0.0005071250488981605,0.00026426510885357857
1783246435430931200,0.39393115234375,0.0010355634149163961,-0.000238027423620224,0.0002472209744155407
1783246435440943000,0.403943115234375,0.00002866145223379135,-0.0007878632750362158,0.0006843795999884605
1783246435450955000,0.413955078125,0.0006071000825613737,0.000029194634407758713,-0.00024106865748763084
1783246435460966100,0.423966064453125,-0.0003767712041735649,0.0013110714498907328,0.0018489127978682518
1783246435470978000,0.43397802734375,0.00174417020753026,-0.0010367713402956724,-0.0007535284385085106
1783246435480989000,0.443989013671875,-0.0005255383439362049,0.0010781248565763235,0.0006948988884687424
1783246435491000800,0.454000732421875,-0.0006501744501292706,0.00011592474766075611,0.0011990354396402836
1783246435501012000,0.464011962890625,-0.0007041702046990395,0.00014618691056966782,0.0003072093240916729
1783246435511023900,0.47402392578125,-0.0015523871406912804,0.0013414134737104177,-0.0007260970305651426
1783246435521036000,0.4840361328125,0.0007939606439322233,-0.00022979709319770336,0.0007309196516871452
1783246435531047200,0.494047119140625,0.001040036790072918,-0.000329931965097785,0.0010936418548226357
1783246435541059000,0.50405908203125,0.0005202384199947119,0.00021265936084091663,0.0009004282765090466
1783246435551070000,0.514070068359375,0.0020704646594822407,-0.000660857418552041,0.0009981663897633553
1783246435561081900,0.524081787109375,0.0005990159697830677,-0.00026193889789283276,-0.00018114037811756134
1783246435571094000,0.534093994140625,-0.0016686657909303904,0.0009314235066995025,0.0007128827273845673
1783246435581105000,0.54410498046875,0.00039075291715562344,0.0011675091227516532,0.001186851877719164
1783246435591116800,0.55411669921875,0.0002725084777921438,-0.00018404517322778702,-0.0006153094582259655
1783246435601128200,0.564128173828125,-0.000312252901494503,-0.0007932856678962708,-0.0001347111538052559
1783246435611140400,0.574140380859375,-0.0008928221650421619,0.0006448212079703808,-0.00006333831697702408
1783246435621151200,0.584151123046875,-0.0011138080153614283,0.001004846766591072,0.0021139439195394516
1783246435631163100,0.5941630859375,-0.0001143238041549921,-0.0014607077464461327,-0.0006424279417842627
1783246435641175300,0.60417529296875,-0.00003193155862390995,-0.00011152634397149086,0.0002729627303779125
1783246435651186200,0.614186279296875,0.001455710269510746,-0.0005349689163267612,0.00041970284655690193
1783246435661198000,0.624197998046875,0.0011831731535494328,-0.0006598860491067171,0.0001529376022517681
1783246435671209200,0.634209228515625,0.0007634588982909918,-0.0001296508125960827,-0.0001607830636203289
1783246435681221000,0.64422119140625,0.0009958625305444002,-0.0015725628472864628,0.0015393332578241825
1783246435691232300,0.654232177734375,0.002343954751268029,0.0009513148106634617,0.0010658232495188713
1783246435701244200,0.664244140625,0.00023151375353336334,0.0009011618094518781,-0.000011076219379901886
1783246435711256300,0.67425634765625,-0.0006776894442737103,0.0008316533640027046,0.0008238246664404869
1783246435721267200,0.68426708984375,-0.00030835275538265705,-0.0004869322292506695,0.000506971962749958
1783246435731279000,0.694279052734375,-0.0001906410325318575,0.0012273445026949048,-0.0007015704177320004
1783246435741290000,0.7042900390625,-0.0009043102618306875,-0.00007453607395291328,-0.000003948807716369629
1783246435751302100,0.71430224609375,0.0007710845675319433,0.0000841883011162281,-0.0004188693128526211
1783246435761314000,0.72431396484375,0.0006954530254006386,-0.0001452991273254156,-0.00041464949026703835
1783246435771325200,0.7343251953125,0.0002674830611795187,-0.0006520987953990698,0.0010042828507721424
1783246435781337300,0.74433740234375,-0.0007233358919620514,0.001127422321587801,0.0006131185218691826
1783246435791348200,0.75434814453125,0.00043141073547303677,-0.002080621663480997,-0.00023536477237939835
1783246435801360100,0.764360107421875,0.0007044447120279074,0.0003244978142902255,-0.000271049328148365
1783246435811371000,0.77437109375,-0.0010369964875280857,-0.000509604113176465,0.001020317431539297
1783246435821383200,0.784383056640625,0.00002861209213733673,-0.0004600242245942354,0.00007179239764809608
1783246435831395000,0.79439501953125,-0.0005042864941060543,0.0002707472303882241,0.0008965735323727131
1783246435841406200,0.80440625,-0.00036084139719605446,0.0008624591864645481,-0.0008718241006135941
1783246435851418400,0.81441845703125,-0.00035258568823337555,0.00008747936226427555,0.0002730689011514187
1783246435861429200,0.82442919921875,-0.0009238680358976126,0.0001317937858402729,0.0004400983452796936
1783246435871441200,0.834441162109375,-0.0007723344024270773,0.001696933526545763,0.001686191651970148
1783246435881453300,0.844453369140625,0.0008146062027662992,-0.0003660530783236027,0.00025623757392168045
1783246435891464200,0.854464111328125,0.001048964448273182,0.0011610034853219986,-0.0005650809034705162
1783246435901476000,0.86447607421875,0.0005435652565211058,-0.0012537590228021145,-0.00007169600576162338
1783246435911487000,0.874487060546875,-0.0003813505172729492,0.0013164576375856996,-0.0002349475398659706
1783246435921499100,0.8844990234375,-0.0005642815958708525,-0.0006925608031451702,-0.0009148207027465105
1783246435931510300,0.89451025390625,0.00044851843267679214,0.0004102541133761406,-0.0004069558344781399
1783246435941522200,0.904522216796875,0.000872995238751173,-0.0004700769204646349,0.0003784298896789551
1783246435951534300,0.914534423828125,0.000592297874391079,0.004083928652107716,0.00010092835873365402
1783246435961545200,0.924545166015625,-0.0007520006038248539,0.0006768041057512164,0.002493554260581732
1783246435971557000,0.93455712890625,0.00115295872092247,0.0035418327897787094,-0.0005070292390882969
1783246435981568000,0.944568115234375,0.00028190435841679573,-0.0010829586535692215,0.00009122304618358612
1783246435991580200,0.954580078125,-0.0005873516201972961,0.0011064261198043823,0.0005104048177599907
1783246436001592000,0.964592041015625,-0.0007143260445445776,0.00011431751772761345,-0.0006563109345734119
1783246436011603200,0.974603271484375,0.00006092013791203499,0.0012208609841763973,-0.00012154830619692802
1783246436021615400,0.984615478515625,-0.00009138323366641998,-0.0025703739374876022,-0.002038045320659876
1783246436031626200,0.994626220703125,0.0001405780203640461,0.00001449044793844223,0.00018010148778557777
1783246436041638100,1.00463818359375,-0.0011497826781123877,-0.0005475052166730165,-0.0005042660050094128
1783246436051649000,1.01464892578125,-0.00015882030129432678,-0.0008572309743613005,-0.0005868240259587765
1783246436061661200,1.0246611328125,0.0002490249462425709,0.0007961501833051443,0.0008821776136755943
1783246436071673000,1.034673095703125,0.00123972084838897,-0.014761237427592278,-0.004461987875401974
1783246436081684200,1.044684326171875,0.0009121333714574575,0.007560215424746275,0.0003001033328473568
1783246436091696400,1.0546962890625,0.000021838583052158356,0.0007475833408534527,-0.0007872655987739563
1783246436101707300,1.064707275390625,0.0006444640457630157,-0.00498559046536684,-0.0014397574122995138
1783246436111719200,1.07471923828125,-0.00020082341507077217,0.006628188770264387,0.00033603841438889503
1783246436121731000,1.08473095703125,-0.0009217392653226852,-0.003960432950407267,-0.0016568261198699474
1783246436131742200,1.0947421875,-0.00005195080302655697,0.001219149213284254,0.0002710362896323204
1783246436141754000,1.104754150390625,-0.000909862108528614,-0.00032516452483832836,-0.0006012385711073875
1783246436151765000,1.114764892578125,0.001472335308790207,-0.0015656650066375732,0.00016974657773971558
1783246436161777200,1.124777099609375,0.00018905475735664368,0.0020722050685435534,0.0001644357107579708
1783246436171788300,1.134788330078125,0.00018213060684502125,-0.0016524919774383307,0.0009673791937530041
1783246436181800200,1.14480029296875,0.0007668349426239729,0.0008784518577158451,0.00005841953679919243
1783246436191812400,1.154812255859375,0.0006501884199678898,0.000578047358430922,-0.0006875316612422466
1783246436201823200,1.1648232421875,-0.000862782821059227,0.000727627077139914,0.000635102391242981
1783246436211835100,1.174835205078125,0.0014847934944555163,0.0012485412880778313,-0.0005665156058967113
1783246436221846000,1.184845947265625,-0.0007685197051614523,0.0005507582100108266,-0.0008948110044002533
1783246436231858200,1.194858154296875,0.0009345717262476683,0.0004231927450746298,0.0002559409476816654
1783246436241870000,1.2048701171875,0.000191875034943223,-0.0003063799813389778,0.00038932543247938156
1783246436251881200,1.214881103515625,-0.0010382388718426228,-0.0014118582475930452,0.00035656848922371864
1783246436261893400,1.224893310546875,-0.0005251893308013678,0.0011358722113072872,0.001220040488988161
1783246436271904300,1.234904296875,-0.0016280044801533222,-0.0002915821969509125,-0.0002707969397306442
1783246436281916200,1.244916259765625,-0.0007416077423840761,-0.000245056813582778,0.0008399640209972858
1783246436291927000,1.254927001953125,-0.0010702416766434908,-0.0007523889653384686,0.0005534081719815731
1783246436301939200,1.264939208984375,-0.0010864567011594772,0.00024135899730026722,-0.00009351223707199097
1783246436311951000,1.274951171875,0.0001697565894573927,0.0005369698628783226,-0.0004602298140525818
1783246436321962200,1.284962158203125,0.0006141043268144131,-0.0003430077340453863,-0.0005759112536907196
1783246436331974100,1.29497412109375,-0.0005337181501090527,0.00017870543524622917,0.0007719146087765694
1783246436341985300,1.3049853515625,-0.000484054209664464,-0.00004411255940794945,0.0016203424893319607
1783246436351997200,1.3149970703125,-0.0003008286003023386,-0.0009762188419699669,-0.00024200603365898132
1783246436362008000,1.325008056640625,0.0005587537307292223,-0.0000017229467630386353,0.00035626115277409554
1783246436372020200,1.335020263671875,0.0009694132022559643,0.00038177240639925003,-0.00007543712854385376
1783246436382032100,1.3450322265625,-0.00034950440749526024,0.00027957733254879713,0.0008068266324698925
1783246436392043000,1.35504296875,0.0003189491108059883,0.0005139355780556798,0.00002438994124531746
1783246436402055200,1.36505517578125,-0.0002834324259310961,0.000381630496121943,0.0010177390649914742
1783246436412066300,1.37506640625,0.0001602501142770052,-0.0008372983429580927,-0.000270698219537735
1783246436422078200,1.385078125,-0.0005295933224260807,0.0009219578932970762,-0.00007455842569470406
1783246436432090000,1.395090087890625,0.0011932055931538343,-0.0006330618634819984,0.0009318501688539982
1783246436442101200,1.405101318359375,0.00025722780264914036,0.00003662658855319023,-0.0026766154915094376
1783246436452113200,1.415113037109375,-0.00008472194895148277,-0.0007239722181111574,0.0007354263216257095
1783246436462124000,1.4251240234375,0.0019059375626966357,-0.001024971716105938,-0.0005815331824123859
1783246436472136200,1.43513623046875,-0.00037106522358953953,0.00005573895759880543,0.0015066512860357761
1783246436482147300,1.445147216796875,0.00040340120904147625,0.0014185409527271986,0.00027258461341261864
1783246436492159200,1.4551591796875,0.0007829018868505955,0.000044882530346512794,0.0004757838323712349
1783246436502171400,1.46517138671875,0.0006923440378159285,0.0012440584832802415,0.00023576663807034492
1783246436512182300,1.475182373046875,0.000003117835149168968,-0.001083544222638011,-0.0007788976654410362
1783246436522194200,1.485194091796875,-0.0005189499352127314,0.001361175673082471,0.00020011793822050095
1783246436532205000,1.495205078125,-0.00038339500315487385,-0.0001275313552469015,0.00022648321464657784
1783246436542217200,1.50521728515625,0.0005657686851918697,0.0004433835856616497,-0.0008660838939249516
1783246436552228000,1.51522802734375,-0.0010467753745615482,0.00035683088935911655,-0.000718278344720602
1783246436562240000,1.525239990234375,-0.0014102114364504814,-0.0013515027239918709,-0.00001793866977095604
1783246436572252200,1.535252197265625,-0.00022909953258931637,-0.00043377745896577835,0.0005125626921653748
1783246436582263300,1.54526318359375,-0.0004246602766215801,-0.00046864687465131283,0.00034546852111816406
1783246436592275200,1.555275146484375,-0.0013138898648321629,-0.000567716546356678,0.0005750330165028572
1783246436602286000,1.5652861328125,-0.0007927578408271074,0.0012055221013724804,0.000516258180141449
1783246436612297700,1.575297607421875,-0.0008111337665468454,0.0013826224021613598,0.00133597943931818
1783246436622309600,1.5853095703125,-0.00009823450818657875,-0.0005088427569717169,0.0003644051030278206
1783246436632320800,1.59532080078125,0.0002903207205235958,-0.0006063145119696856,-0.00005637435242533684
1783246436642332700,1.605332763671875,-0.0011268539819866419,-0.00006513390690088272,0.0018272330053150654
1783246436652343800,1.61534375,-0.0009430961217731237,0.0006999921752139926,0.0006240163929760456
1783246436662356000,1.62535595703125,-0.00045720627531409264,-0.00014237244613468647,0.001001083292067051
1783246436672366800,1.635366943359375,0.0011587997432798147,-0.000014540739357471466,-0.0006090640090405941
1783246436682378800,1.645378662109375,0.0009628210682421923,0.000703768921084702,-0.00002979440614581108
1783246436692390700,1.655390625,0.0007191419135779142,-0.0015519284643232822,0.001511110458523035
1783246436702401800,1.66540185546875,-0.0011421614326536655,0.00026733195409178734,-0.0009192188736051321
1783246436712413700,1.67541357421875,-0.0006854292005300522,0.0002878383966162801,-0.002385288942605257
1783246436722424800,1.6854248046875,-0.001384217757731676,0.0006289251614362001,-0.0002984916791319847
1783246436732437000,1.69543701171875,-0.0008348077535629272,0.0008401138475164771,0.000837080180644989
1783246436742449000,1.705448974609375,-0.0005298145115375519,0.0002984461607411504,0.0013337335549294949
1783246436752459800,1.715459716796875,0.0007471712306141853,0.0005839370423927903,-0.0004852055571973324
1783246436762471700,1.7254716796875,0.0007118270732462406,-0.0008518088143318892,-0.0011390557046979666
1783246436772482800,1.73548291015625,0.001468963804654777,-0.0006121241021901369,-0.00017685536295175552
1783246436782494700,1.74549462890625,-0.0005777801852673292,-0.000017219455912709236,-0.00015902379527688026
1783246436792505900,1.755505859375,-0.000032897572964429855,-0.0001192186027765274,0.0008830707520246506
1783246436802518000,1.76551806640625,-0.0005649104714393616,0.0008998347911983728,-0.00040116580203175545
1783246436812530000,1.775530029296875,-0.00035984721034765244,-0.0006605111993849277,-0.0010421888437122107
1783246436822540800,1.785540771484375,0.0007662505377084017,-0.00023509562015533447,0.00033028749749064445
1783246436832552700,1.795552734375,-0.0007142005488276482,0.0009058024734258652,-0.0001874309964478016
1783246436842563800,1.805563720703125,-0.0005851313471794128,-0.0000449309591203928,-0.0006339512765407562
1783246436852575700,1.81557568359375,-0.0013196312356740236,-0.0020769229158759117,-0.0003963974304497242
1783246436862586600,1.825586669921875,-0.0006920390296727419,0.0007723572198301554,0.00022008363157510757
1783246436872598800,1.835598876953125,-0.0015130916144698858,0.00026768818497657776,0.00018706033006310463
1783246436882610700,1.845610595703125,-0.001896935049444437,0.0009932680986821651,0.000813737977296114
1783246436892621800,1.855621826171875,-0.0005408534780144691,-0.00012685731053352356,0.0012097503058612347
1783246436902633700,1.8656337890625,0.0010309531353414059,-0.0008727258536964655,-0.00023991335183382034
1783246436912644900,1.875644775390625,-0.00034057488664984703,0.0015187927056103945,0.00011402042582631111
1783246436922656800,1.88565673828125,-0.000011970987543463707,-0.000378255732357502,-0.0003187693655490875
1783246436932667600,1.895667724609375,0.0008090815972536802,-0.0007279287092387676,0.00041200220584869385
1783246436942679800,1.9056796875,-0.0002728537656366825,-0.00037776469253003597,-0.0011095369700342417
1783246436952691700,1.915691650390625,0.00007575401104986668,0.0005783099913969636,0.00028329622000455856
1783246436962702800,1.925702880859375,0.00046431925147771835,0.00046024471521377563,0.0017770645208656788
1783246436972715000,1.935715087890625,-0.00011385302059352398,0.000419231946580112,0.001419401727616787
1783246436982726000,1.945725830078125,0.00041082664392888546,-0.0006710207089781761,-0.0013899949844926596
1783246436992737800,1.95573779296875,-0.00013006129302084446,0.00017426651902496815,-0.00043099094182252884
1783246437002749700,1.965749755859375,0.00101908715441823,0.0003623983357101679,-0.0005953800864517689
1783246437012760800,1.9757607421875,0.0014643676113337278,0.00017384649254381657,-0.0013077757321298122
1783246437022772700,1.985772705078125,0.00020008720457553864,0.0011426026467233896,0.0007112231105566025
1783246437032784000,1.995783935546875,0.000026981811970472336,0.000965236104093492,-0.0011812194716185331
1783246437042795800,2.005795654296875,-0.0006846615578979254,0.00032956432551145554,-0.0008559990674257278
1783246437052807000,2.015806884765625,0.0003803365398198366,0.0010408946545794606,-0.0005662469193339348
1783246437062818800,2.02581884765625,-0.00015365798026323318,0.00007440196350216866,0.000020577572286128998
1783246437072830700,2.035830810546875,0.0000950812827795744,0.0006104963831603527,0.000004598870873451233
1783246437082841900,2.045841796875,-0.0003077315632253885,-0.001144195208325982,-0.0001824852079153061
1783246437092853800,2.055853759765625,-0.0002121240831911564,0.00038925278931856155,0.000624452717602253
1783246437102864600,2.06586474609375,0.0006805283483117819,-0.00010201730765402317,-0.0018225968815386295
1783246437112876800,2.075876708984375,0.00008131726644933224,0.001008254592306912,0.00019767694175243378
1783246437122888700,2.085888671875,0.0006165869999676943,0.0003208386478945613,-0.001446703914552927
1783246437132899800,2.09589990234375,-0.0002785015385597944,0.0006007369374856353,-0.00042351754382252693
1783246437142911700,2.105911865234375,0.0010436235461384058,0.0016065540257841349,0.0009050420485436916
1783246437152923000,2.1159228515625,0.000500338850542903,-0.003071554470807314,0.00020383205264806747
1783246437162934800,2.125934814453125,-0.0006499078590422869,0.0019655488431453705,-0.0002527576871216297
1783246437172945700,2.135945556640625,0.000819091685116291,0.0015351821202784777,0.0002878643572330475
1783246437182957800,2.145957763671875,0.00033310288563370705,0.00014360062777996063,-0.00021082302555441856
1783246437192969700,2.1559697265625,-0.00020831776782870293,-0.00037305266596376896,-0.0010494522284716368
1783246437202980900,2.16598095703125,-0.000009013572707772255,0.0012721344828605652,0.0004958393983542919
1783246437212992800,2.17599267578125,-0.0006644173990935087,-0.00016570626758038998,-0.0015667788684368134
1783246437223004000,2.18600390625,-0.0004648696631193161,-0.0008486309088766575,-0.000065553467720747
1783246437233015800,2.196015869140625,-0.0006334476638585329,-0.00048644118942320347,0.0008670855313539505
1783246437243026700,2.206026611328125,0.0010506450198590755,0.0009544743224978447,-0.0003442983143031597
1783246437253038800,2.216038818359375,-0.00015363632701337337,-0.00003542262129485607,-0.0007584197446703911
1783246437263050800,2.22605078125,0.0007581338286399841,-0.0001961949747055769,-0.0009037114214152098
1783246437273061600,2.2360615234375,0.00039221555925905704,0.00019821920432150364,-0.0007460522465407848
1783246437283073800,2.24607373046875,-0.0005554284434765577,-0.00016952026635408401,0.0001479126513004303
1783246437293085000,2.2560849609375,0.0005066401790827513,0.000425429898314178,0.0013535255566239357
1783246437303096800,2.266096923828125,-0.0005768237169831991,-0.0014653024263679981,-0.0008162993472069502
1783246437313107700,2.276107666015625,0.0002580771688371897,-0.0010325389448553324,0.0008606933988630772
1783246437323119900,2.286119873046875,0.00033738440833985806,0.002159024588763714,0.0011080671101808548
1783246437333131800,2.2961318359375,0.0001341851893812418,-0.00015872460789978504,0.00027050310745835304
1783246437343142700,2.306142578125,-0.00012459768913686275,-0.0003125795628875494,-0.0022673688363283873
1783246437353154800,2.31615478515625,0.0009302804246544838,0.0019479114562273026,0.0008903411217033863
1783246437363166000,2.326166015625,0.0010489949490875006,0.0008121452992781997,-0.0010380854364484549
1783246437373177900,2.336177734375,0.0003525782376527786,-0.00045871525071561337,-0.0004679025150835514
1783246437383189800,2.346189697265625,-0.0015199705958366394,0.0006551819387823343,0.00046915095299482346
1783246437393201000,2.356200927734375,-0.0017790962010622025,-0.0015720196533948183,0.00022786855697631836
1783246437403212800,2.366212890625,-0.0013377713039517403,0.0037083299830555916,0.0004950291477143764
1783246437413223700,2.3762236328125,0.00017889891751110554,-0.00003421027213335037,-0.0013119257055222988
1783246437423235800,2.38623583984375,0.0012009767815470695,0.00008123531006276608,-0.0007093260064721107
1783246437433247000,2.3962470703125,0.00008910708129405975,0.000369655666872859,-0.0012733836192637682
1783246437443259000,2.4062587890625,-0.00011053564958274364,0.0017746351659297943,-0.0006877360865473747
1783246437453270800,2.416270751953125,-0.0025004565250128508,-0.0011577715631574392,-0.0002240799367427826
1783246437463282000,2.426281982421875,-0.0005218882579356432,-0.0006779693067073822,-0.00020941952243447304
1783246437473293800,2.4362939453125,-0.001961326925083995,0.00012896861881017685,-0.0006935819983482361
1783246437483304700,2.4463046875,-0.0010627545416355133,0.0000016489066183567047,-0.0007280800491571426
1783246437493316900,2.45631689453125,0.0006786861922591925,0.00033214723225682974,-0.0007219547405838966
1783246437503328800,2.466328857421875,0.0001683917362242937,0.000003542983904480934,0.0001513422466814518
1783246437513339600,2.476339599609375,0.00005254428833723068,0.0008866471471264958,-0.0017240557353943586
1783246437523351600,2.4863515625,0.0009138572495430708,0.0015134233981370926,0.0006574620492756367
1783246437533363000,2.496363037109375,0.0008946824818849564,-0.000007774215191602707,-0.0016839893069118261
1783246437543374800,2.506374755859375,0.0007350670639425516,-0.002283656969666481,-0.0009669419378042221
1783246437553385700,2.5163857421875,0.0001539653167128563,0.0015283916145563126,0.0008400129154324532
1783246437563398000,2.52639794921875,0.00009941472671926022,0.0015292352763935924,0.00004559243097901344
1783246437573409800,2.536409912109375,0.00043816864490509033,0.0003294812049716711,0.0005734311416745186
1783246437583420700,2.546420654296875,-0.0002703787758946419,0.00006773555651307106,0.00021093618124723434
1783246437593432800,2.556432861328125,0.00014374288730323315,0.0016794806579127908,-0.00043541286140680313
1783246437603444000,2.56644384765625,-0.00043055065907537937,0.0006369886687025428,0.001008862629532814
1783246437613456100,2.5764560546875,-0.00009392714127898216,-0.0003670230507850647,-0.0009432341903448105
1783246437623467300,2.58646728515625,0.0008393044117838144,-0.0016874386928975582,-0.0009600317571312189
1783246437633479200,2.596479248046875,0.0009042855817824602,0.0006651977309957147,0.0014740973711013794
1783246437643491000,2.606490966796875,0.00024664122611284256,0.001355050364509225,-0.000265615526586771
1783246437653502200,2.616502197265625,0.0010115010663866997,-0.0012415316887199879,-0.0005324645899236202
1783246437663514000,2.62651416015625,0.0014944142894819379,-0.00029233982786536217,0.0010436349548399448
1783246437673525000,2.63652490234375,0.001117044361308217,0.0008754562586545944,-0.000868514645844698
1783246437683537000,2.646536865234375,0.0003561119083315134,0.0006240446818992496,-0.00014725886285305023
1783246437693548300,2.65654833984375,0.00005091354250907898,-0.000757869565859437,0.0006833812221884727
1783246437703560200,2.666560302734375,-0.0005608780775219202,-0.00044988677836954594,0.0009760218672454357
1783246437713572000,2.676572021484375,0.0006753613706678152,-0.00018090754747390747,-0.0004250672645866871
1783246437723583200,2.686583251953125,0.0016501026693731546,0.00011103088036179543,0.0008426080457866192
1783246437733595100,2.69659521484375,0.0012282580137252808,0.0005898673553019762,-0.00006153527647256851
1783246437743606000,2.70660595703125,-0.0011750597041100264,-0.0007705774623900652,-0.0007332912646234035
1783246437753618000,2.716617919921875,-0.0012464325409382582,0.00007124757394194603,0.00009548431262373924
1783246437763630000,2.726630126953125,0.0002393214963376522,-0.00010010018013417721,0.00043865712359547615
1783246437773641200,2.73664111328125,0.0006859335117042065,0.0002913844073191285,0.0003678170032799244
1783246437783653000,2.746653076171875,0.00013719475828111172,-0.0010328090284019709,-0.00009160861372947693
1783246437793664300,2.756664306640625,0.00031828973442316055,0.001784549094736576,-0.0010367645882070065
1783246437803676200,2.76667626953125,-0.0005442539695650339,-0.00013028900139033794,0.00021364819258451462
1783246437813687000,2.77668701171875,-0.00041509070433676243,0.0000350933987647295,0.0010035419836640358
1783246437823699200,2.78669921875,0.000568104675039649,0.0002754451707005501,0.0005575306713581085
1783246437833711000,2.796711181640625,-0.0007815852295607328,0.0012323189293965697,0.0007391585968434811
1783246437843722000,2.806721923828125,0.0011414685286581516,-0.0003443020395934582,0.0007972074672579765
1783246437853734100,2.816734130859375,-0.0003762671258300543,-0.0010593608021736145,0.0010163853876292706
1783246437863745300,2.826745361328125,-0.0011829936411231756,0.0005501915002241731,0.0008962457068264484
1783246437873757200,2.836757080078125,0.0002668313682079315,0.00022262264974415302,0.0005561602301895618
1783246437883768000,2.84676806640625,-0.00013108900748193264,0.0009787059389054775,-0.000509258359670639
1783246437893780200,2.8567802734375,-0.00034760404378175735,-0.000736636109650135,-0.00046851160004734993
1783246437903792000,2.866792236328125,0.0003390931524336338,0.000043073203414678574,-0.00022731628268957138
1783246437913803000,2.876802978515625,0.0009652022272348404,-0.00015693018212914467,-0.0008542241994291544
1783246437923815000,2.88681494140625,-0.0005161701701581478,-0.0004444026853889227,0.0004791105166077614
1783246437933826300,2.896826416015625,-0.0010091213043779135,-0.000028683338314294815,0.00017124926671385765
1783246437943838200,2.906838134765625,0.0029961976688355207,0.00001619197428226471,-0.0008189096115529537
1783246437953850000,2.91685009765625,0.00011758692562580109,0.0006388390902429819,0.0015307972207665443
1783246437963861200,2.926861328125,0.0014567640610039234,0.0008761772187426686,-0.0006187544204294682
1783246437973873200,2.936873046875,0.0006628758274018764,0.00018615229055285454,-0.00000409688800573349
1783246437983884000,2.946884033203125,-0.0005674907006323338,-0.0004597876686602831,-0.0009480940643697977
1783246437993896000,2.95689599609375,-0.0009448605123907328,-0.000641681719571352,0.00020798388868570328
1783246438003907300,2.9669072265625,0.00031722686253488064,0.00028577959164977074,0.0002018357627093792
1783246438013919200,2.976919189453125,-0.0006130151450634003,0.00046847236808389425,-0.0001891162246465683
1783246438023931100,2.98693115234375,0.0006476074922829866,0.000932457041926682,-0.00007237028330564499
1783246438033942300,2.9969423828125,-0.0009830461349338293,0.00003550434485077858,0.00018489127978682518
1783246438043954200,3.0069541015625,-0.00024594785645604134,-0.0002229679375886917,0.0005714078433811665
1783246438053965000,3.016965087890625,-0.0004925564862787724,-0.001346023054793477,-0.0006054430268704891
1783246438063977000,3.02697705078125,-0.0005367533303797245,-0.00023054215125739574,-0.0003239801153540611
1783246438073988000,3.036988037109375,-0.00044886907562613487,0.00042432930786162615,-0.0013311877846717834
1783246438084000000,3.047,-0.00025838520377874374,0.00018682191148400307,-0.001376917352899909
1783246438094012000,3.057011962890625,-0.001121249282732606,0.0013620748650282621,0.0004180530086159706
1783246438104023300,3.067023193359375,0.0006465788464993238,0.0015939297154545784,0.00031064124777913094
1783246438114035200,3.07703515625,-0.0002684833016246557,0.0015561127802357078,-0.00024595949798822403
1783246438124046000,3.087046142578125,-0.00019868905656039715,0.0007088046986609697,-0.0008490777108818293
1783246438134058200,3.097058349609375,-0.0000887005589902401,0.0010331777157261968,0.0006561409682035446
1783246438144069000,3.107069091796875,-0.0011523973662406206,-0.0009889176581054926,0.0007308223284780979
1783246438154081000,3.1170810546875,-0.0007707662880420685,-0.000986520666629076,0.0003824806772172451
1783246438164093000,3.127093017578125,0.0013247437309473753,0.0007424142677336931,-0.00003961008042097092
1783246438174104300,3.137104248046875,-0.0008673043921589851,0.002261747606098652,0.0005217841826379299
1783246438184116200,3.1471162109375,-0.0007287729531526566,-0.0007540399674326181,0.0017249765805900097
1783246438194127000,3.157127197265625,0.00020013772882521152,-0.0012254195753484964,-0.0002300497144460678
1783246438204139300,3.16713916015625,0.0012738477671518922,0.0004677368560805917,-0.0011011830065399408
1783246438214151200,3.177151123046875,0.000040804268792271614,0.0009511006064713001,0.0005579660646617413
1783246438224162000,3.187162109375,-0.00003566662780940533,0.00023844989482313395,-0.0011849587317556143
1783246438234174000,3.197174072265625,-0.0004508534912019968,-0.0004965825937688351,0.0001431596465408802
1783246438244185000,3.20718505859375,0.001022882992401719,0.000018313992768526077,-0.0010291673243045807
1783246438254197200,3.217197265625,-0.0003558353055268526,0.0006830390775576234,0.0004025478847324848
1783246438264208100,3.2272080078125,-0.0009568198584020138,0.00067223294172436,-0.0014018032234162092
1783246438274220300,3.23722021484375,-0.0001749158836901188,0.0003201630897819996,-0.0005759568884968758
1783246438284232200,3.247232177734375,0.0006028320640325546,-0.000021904241293668747,-0.00013868091627955437
1783246438294243000,3.2572431640625,-0.000027538277208805084,0.000014581019058823586,-0.0004635867662727833
1783246438304255000,3.2672548828125,-0.0006002709269523621,-0.0000427889171987772,0.00005744351074099541
1783246438314266000,3.27726611328125,0.0002338311169296503,-0.000040924642235040665,0.0005530579946935177
1783246438324278000,3.287278076171875,0.0003651990555226803,-0.0005443873815238476,0.0005077351815998554
1783246438334289200,3.2972890625,0.000956154428422451,0.00033232534769922495,0.0006113322451710701
1783246438344301300,3.30730126953125,0.0002959468401968479,0.0010970532894134521,-0.0011684317141771317
1783246438354313200,3.317313232421875,-0.0007373597472906113,-0.0018760995008051395,0.0008161556906998158
1783246438364324000,3.327323974609375,-0.00008435104973614216,0.000620810897089541,0.0006560748443007469
1783246438374336000,3.3373359375,-0.00024280906654894352,0.000826406991109252,0.0011519556865096092
1783246438384347100,3.34734716796875,0.0007790997624397278,-0.0005942774005234241,-0.00020899903029203415
1783246438394359000,3.357359130859375,-0.0010723299346864223,-0.00013381685130298138,-0.0004183235578238964
1783246438404370200,3.3673701171875,0.0015065347542986274,0.00006685336120426655,-0.0004269997589290142
1783246438414382300,3.37738232421875,0.00016536680050194263,0.0013062884099781513,-0.001292260829359293
1783246438424394200,3.387394287109375,0.002092646434903145,-0.0011673485860228539,-0.00011269096285104752
1783246438434405000,3.397405029296875,-0.0006418873090296984,0.00021216890309005976,0.00047666672617197037
1783246438444417300,3.407417236328125,0.0009660688228905201,-0.00003754906356334686,0.0015257755294442177
1783246438454428200,3.41742822265625,-0.0007029343396425247,-0.00010226387530565262,0.0012842267751693726
1783246438464440000,3.427440185546875,-0.0003182999789714813,0.0009403445292264223,0.0003021801821887493
1783246438474452000,3.437451904296875,-0.00032016425393521786,0.0003826785832643509,-0.0006363177672028542
1783246438484463000,3.447463134765625,0.00045576575212180614,-0.0007503100205212831,0.0005418905057013035
1783246438494475000,3.45747509765625,-0.0005048364400863647,0.0025719834957271814,0.00003562355414032936
1783246438504486100,3.467486083984375,0.00027577043510973454,-0.0020344615913927555,0.00027256039902567863
1783246438514498300,3.477498291015625,0.0006086656358093023,-0.0004645281005650759,0.001200139056891203
1783246438524509200,3.48750927734375,-0.0002192093525081873,0.0007304575992748141,-0.0008308333344757557
1783246438534521000,3.49752099609375,-0.0009361323900520802,0.0003285865532234311,0.00031832093372941017
1783246438544533000,3.507532958984375,0.0003720193635672331,-0.0002957489341497421,-0.00015109265223145485
1783246438554544000,3.517544189453125,0.000015954719856381416,-0.00026405719108879566,0.0008348096162080765
1783246438564556000,3.52755615234375,-0.0002617610152810812,0.0006242329254746437,0.0012460262514650822
1783246438574567200,3.537567138671875,0.00019763410091400146,-0.000010664574801921844,0.0004204465076327324
1783246438584579300,3.547579345703125,0.0003029105719178915,-0.00019614258781075478,-0.0001607523299753666
1783246438594590200,3.557590087890625,0.0011141092982143164,0.0000693746842443943,0.00010210182517766953
1783246438604602000,3.56760205078125,0.000439612427726388,0.0002494936343282461,-0.0007917806506156921
1783246438614614300,3.5776142578125,-0.0007090091239660978,-0.00020723859779536724,0.00032727932557463646
1783246438624625200,3.587625244140625,0.00007313513197004795,0.0003927240613847971,-0.0008845045231282711
1783246438634637300,3.59763720703125,0.0009346676524728537,0.00008832477033138275,-0.0011803817469626665
1783246438644648200,3.607648193359375,-0.00011150236241519451,-0.0003532294649630785,0.0009002611041069031
1783246438654660400,3.617660400390625,0.0008645460475236177,0.00019298470579087734,0.0007473956793546677
1783246438664671200,3.627671142578125,0.00000534718856215477,-0.001905901124700904,-0.00047260941937565804
1783246438674683400,3.637683349609375,0.0007819249294698238,-0.0008678010199218988,0.0008254153653979301
1783246438684695300,3.6476953125,0.0020212007220834494,-0.000859373714774847,0.0009178193286061287
1783246438694706200,3.6577060546875,0.0010017426684498787,0.00024770223535597324,-0.0014846182893961668
1783246438704718300,3.66771826171875,0.0009825406596064568,0.0005060432013124228,-0.00015760911628603935
1783246438714729200,3.677729248046875,0.000491453567519784,-0.0001472302246838808,-0.000489438883960247
1783246438724741000,3.6877412109375,0.0005654261913150549,-0.00024902145378291607,-0.0004629986360669136
1783246438734753000,3.6977529296875,0.002293817698955536,-0.0006634094752371311,-0.00208805943839252
1783246438744764400,3.707764404296875,-0.00036623515188694,-0.0001468108966946602,-0.0004806350916624069
1783246438754776300,3.7177763671875,0.0011368528939783573,-0.0002922194544225931,0.000635762233287096
1783246438764787200,3.727787109375,0.0015062030870467424,0.00039894343353807926,0.0008719265460968018
1783246438774799400,3.73779931640625,0.00008647190406918526,-0.0013044143561273813,0.00042185233905911446
1783246438784810200,3.747810302734375,0.0011285773944109678,-0.0016274121589958668,0.0016140607185661793
1783246438794822100,3.757822265625,-0.0008586735930293798,-0.00034403475001454353,-0.00126961013302207
1783246438804834000,3.767833984375,0.0006994740106165409,-0.00038552586920559406,0.0008833198808133602
1783246438814845400,3.777845458984375,-0.0006345033179968596,0.00009517476428300142,0.0005275215953588486
1783246438824857300,3.787857421875,0.0005981691647320986,-0.000009231502190232277,0.00045968126505613327
1783246438834868200,3.7978681640625,-0.0009169033728539944,-0.0015373534988611937,-0.000011964701116085052
1783246438844880400,3.80788037109375,0.00018978328444063663,-0.0006126419175416231,-0.0012951502576470375
1783246438854891300,3.817891357421875,0.000036119017750024796,-0.00020810775458812714,-0.0004613148048520088
1783246438864903200,3.827903076171875,0.001056191511452198,0.0005891063483431935,-0.0004804241470992565
1783246438874915300,3.837915283203125,0.0020468872971832752,0.0002005512360483408,0.0007832455448806286
1783246438884926200,3.84792626953125,-0.0009740134701132774,-0.0001501454971730709,-0.0016754886601120234
1783246438894938000,3.857938232421875,-0.0006839954294264317,0.00047489837743341923,0.0008198930881917477
1783246438904949200,3.86794921875,0.0008802337106317282,0.0004853664431720972,0.0008838693611323833
1783246438914961400,3.87796142578125,0.00022962363436818123,0.0009074775734916329,-0.0004415856674313545
1783246438924972300,3.88797216796875,-0.0003941913601011038,0.0001899366034194827,-0.0005048303864896297
1783246438934984200,3.897984130859375,0.00027772411704063416,-0.001264149323105812,-0.00024623749777674675
1783246438944996400,3.907996337890625,-0.0000897569116204977,-0.001250274246558547,0.0005699619650840759
1783246438955007200,3.91800732421875,0.00024793180637061596,-0.0024849155452102423,-0.00006866408511996269
1783246438965019100,3.92801904296875,-0.00025735655799508095,0.0003290408058091998,-0.00127222272567451
1783246438975030300,3.9380302734375,0.0007170941680669785,0.0015439748531207442,0.00017094425857067108
1783246438985042400,3.94804248046875,0.00035638315603137016,-0.00015326566062867641,-0.00009404029697179794
1783246438995054300,3.958054443359375,0.00036064418964087963,-0.000013982178643345833,-0.0021201730705797672
1783246439005065200,3.968065185546875,-0.00017611845396459103,-0.001989701297134161,-0.0016004072967916727
1783246439015077400,3.978077392578125,0.00004998384974896908,0.0001584045821800828,0.0006254627369344234
1783246439025088300,3.988088134765625,0.0014928857563063502,-0.0011461186222732067,0.00140048423781991
1783246439035100200,3.99810009765625,-0.00030235107988119125,-0.0010169553570449352,-0.00013589346781373024
1783246439045111300,4.008111328125,-0.0008837149944156408,-0.00008513149805366993,-0.00007338728755712509
1783246439055123500,4.01812353515625,-0.0006717273499816656,0.0004541585221886635,0.0010691084899008274
1783246439065135400,4.02813525390625,0.0004250844940543175,-0.0002315735910087824,-0.0001136884093284607
1783246439075146200,4.038146240234375,-0.00008704117499291897,0.00013461115304380655,0.00039284443482756615
1783246439085158400,4.048158447265625,0.0010375166311860085,-0.0006970881950110197,0.0013701850548386574
1783246439095169300,4.058169189453125,-0.001216316595673561,0.0006992071866989136,-0.0001142607070505619
1783246439105181200,4.06818115234375,-0.0012647765688598156,0.0012989608803763986,-0.0009107864461839199
1783246439115192000,4.078192138671875,0.0009030364453792572,0.0005844347178936005,-0.0007978682406246662
1783246439125204200,4.088204345703125,-0.0010035894811153412,-0.0015688471030443907,-0.0006691613234579563
1783246439135216000,4.098216064453125,0.0007197421509772539,0.00032226357143372297,0.0004581548273563385
1783246439145227300,4.108227294921875,0.0016152940224856138,0.0008662892505526543,-0.0010313659440726042
1783246439155239400,4.118239501953125,0.0006443054880946875,0.00003405148163437843,0.0004288451746106148
1783246439165250300,4.128250244140625,-0.00037219375371932983,-0.00043646874837577343,-0.00012771738693118095
1783246439175262200,4.13826220703125,0.0015953496331349015,-0.00025883596390485764,0.0003577768802642822
1783246439185273000,4.148273193359375,0.0008057758677750826,-0.00030475365929305553,-0.0007224110886454582
1783246439195285200,4.15828515625,0.0015173725550994277,-0.0005215350538492203,-0.0002995012328028679
1783246439205297200,4.168297119140625,0.0008948741015046835,0.0008454963099211454,0.0003452966921031475
1783246439215308300,4.178308349609375,0.0003020544536411762,0.0008899711538106203,0.00003450550138950348
1783246439225320400,4.188320556640625,0.0006315859500318766,-0.0012330778408795595,-0.000774032436311245
1783246439235331300,4.198331298828125,-0.0000680265948176384,0.0011075743241235614,0.00027978047728538513
1783246439245343200,4.20834326171875,0.0007713150698691607,0.0003300214884802699,0.00013992097228765488
1783246439255354000,4.21835400390625,0.0001603858545422554,-0.0007272535003721714,0.00039025815203785896
1783246439265366300,4.2283662109375,-0.002103821374475956,0.0010874662548303604,-0.00110207824036479
1783246439275378200,4.238378173828125,-0.00020631891675293446,-0.000775681110098958,-0.0005737072788178921
1783246439285389300,4.248389404296875,-0.0000911499373614788,-0.0000302288681268692,-0.0003500068560242653
1783246439295401200,4.258401123046875,-0.00027224491350352764,0.0002126514445990324,-0.0005875611677765846
1783246439305412400,4.268412353515625,0.0009345363359898329,0.0011416864581406116,0.0008445549756288528
1783246439315424300,4.27842431640625,0.0007060370407998562,0.000649268040433526,0.001001414842903614
1783246439325435100,4.28843505859375,0.000458139693364501,-0.0005474481731653214,0.001346698496490717
1783246439335447300,4.298447265625,0.00017078453674912453,0.000824612332507968,-0.00045146793127059937
1783246439345459200,4.308459228515625,-0.00012805243022739887,-0.00011612940579652786,-0.0006747902370989323
1783246439355470000,4.318469970703125,-0.001565626822412014,0.00017016043420881033,-0.00011632544919848442
1783246439365482200,4.328482177734375,-0.00029406254179775715,-0.0013313174713402987,0.0012686527334153652
1783246439375493400,4.338493408203125,-0.0008733002468943596,-0.000026901019737124443,0.0004814225248992443
1783246439385505300,4.34850537109375,0.000627005472779274,0.0003725226270034909,-0.0012045018374919891
1783246439395517400,4.358517333984375,-0.00028033345006406307,-0.0005870142485946417,0.0014804969541728497
1783246439405528300,4.3685283203125,0.00025429227389395237,-0.00008818577043712139,-0.0003202119842171669
1783246439415540200,4.378540283203125,-0.0011595799587666988,-0.00031002704054117203,-0.00047946861013770103
1783246439425551000,4.388551025390625,-0.00008436734788119793,0.00032527034636586905,0.00044542644172906876
1783246439435563300,4.398563232421875,0.0007140485104173422,0.0018145100912079215,-0.0004645753651857376
1783246439445574400,4.408574462890625,0.000053259311243891716,0.0007232780335471034,-0.0007024835795164108
1783246439455586300,4.41858642578125,-0.0008042787667363882,0.0005805325927212834,0.00043042516335844994
1783246439465598500,4.428598388671875,0.0012264286633580923,0.000737121095880866,0.000552445650100708
1783246439475609300,4.438609375,0.00145732460077852,-0.00047861202619969845,-0.00171417067758739
1783246439485621200,4.448621337890625,-0.00007239705882966518,0.0004442695062607527,0.00012189708650112152
1783246439495632100,4.458632080078125,-0.0004673439543694258,0.0007944751996546984,-0.001078389585018158
1783246439505644300,4.468644287109375,-0.0003321799449622631,0.001026869285851717,0.00011569168418645859
1783246439515655200,4.4786552734375,-0.0003803831059485674,0.0007230027113109827,-0.000028385315090417862
1783246439525667000,4.4886669921875,-0.0011542104184627533,-0.0004914966411888599,-0.0013269500341266394
1783246439535679200,4.49867919921875,0.00036032916978001595,-0.0003679259680211544,-0.0011178918648511171
1783246439545690400,4.5086904296875,0.00015015131793916225,-0.00008312193676829338,-0.00039530638605356216
1783246439555702300,4.518702392578125,-0.0010125846602022648,-0.0005222770851105452,-0.0008768057450652122
1783246439565713200,4.528713134765625,0.0007357732392847538,-0.001266195671632886,0.00022033415734767914
1783246439575725300,4.538725341796875,-0.00044400710612535477,0.0008888342417776585,-0.00010936520993709564
1783246439585736200,4.548736083984375,-0.0005822565872222185,0.00016604759730398655,0.0005889530293643475
1783246439595748000,4.558748046875,0.0008590463548898697,-0.00041505414992570877,-0.00035300711169838905
1783246439605760300,4.56876025390625,0.0002473744098097086,-0.0006820093840360641,0.0005118926055729389
1783246439615774500,4.5787744140625,0.00026202178560197353,-0.0001765415072441101,0.0006711496971547604
1783246439625786600,4.58878662109375,0.000011677155271172523,0.0010228360770270228,-0.00008793128654360771
1783246439635797500,4.598797607421875,0.0004521638620644808,-0.0010477716568857431,0.0006132791750133038
1783246439645809400,4.608809326171875,-0.00003998796455562115,0.0001698794076219201,0.0006399410776793957
1783246439655820500,4.618820556640625,-0.0016013993881642818,-0.0008048375602811575,0.0008474015630781651
1783246439665832400,4.62883251953125,-0.0008891080506145954,-0.0002560995053499937,0.0000112936832010746
1783246439675844400,4.63884423828125,-0.00003396696411073208,0.0008645587367936969,0.0016198428347706795
1783246439685855500,4.64885546875,0.00031337072141468525,-0.0005889718886464834,-0.00039562443271279335
1783246439695867600,4.65886767578125,-0.00022858241572976112,0.0006573875434696674,-0.0004976238124072552
1783246439705878500,4.66887841796875,-0.0003109038807451725,0.00015929865185171366,-0.0013748593628406525
1783246439715890400,4.678890380859375,-0.0006752242334187031,-0.0006271328311413527,0.0013399668969213963
1783246439725901600,4.688901611328125,0.0008607127238065004,-0.00025366549380123615,-0.0013250079937279224
1783246439735913500,4.69891357421875,0.00031423219479620457,-0.0011085402220487595,-0.0022912027779966593
1783246439745925400,4.70892529296875,-0.0010340656153857708,-0.00048612523823976517,-0.0010062437504529953
1783246439755936500,4.7189365234375,0.00017341156490147114,-0.0003745388239622116,-0.0008123656734824181
1783246439765948400,4.728948486328125,-0.000023506581783294678,-0.00019497470930218697,-0.0005885763093829155
1783246439775959600,4.73895947265625,0.0008249764796346426,0.00022127723786979914,-0.00012705055996775627
1783246439785971500,4.748971435546875,0.00019744783639907837,0.00080506457015872,-0.0004888884723186493
1783246439795983600,4.758983642578125,-0.00026327907107770443,0.0005478031234815717,-0.0003181798383593559
1783246439805994500,4.768994384765625,0.00005196221172809601,0.0010551607701927423,-0.0007521738298237324
1783246439816006400,4.77900634765625,0.00006474554538726807,0.0013869907706975937,0.00035916315391659737
1783246439826017300,4.789017333984375,0.0005642352625727654,-0.0004058897029608488,0.000018810387700796127
1783246439836029400,4.799029541015625,0.0001631632912904024,-0.000474332831799984,0.000012418720871210098
1783246439846040600,4.80904052734375,0.000020109349861741066,-0.001979601103812456,0.0009741182439029217
1783246439856052500,4.819052490234375,0.00015300093218684196,0.0005099220434203744,-0.0007958183996379375
1783246439866063600,4.829063720703125,0.001935157342813909,-0.0001454707235097885,-0.0008003399707376957
1783246439876075500,4.839075439453125,0.0002328646369278431,0.0003980804467573762,-0.0006296313367784023
1783246439886087400,4.84908740234375,-0.0005591381341218948,-0.0004656796809285879,-0.000052776653319597244
1783246439896098300,4.859098388671875,0.000013441545888781548,0.000385466730222106,-0.0008570512291043997
1783246439906110500,4.8691103515625,-0.0005393843166530132,0.0003192550502717495,-0.0006774328649044037
1783246439916121600,4.87912158203125,0.0006875339895486832,0.0004100687801837921,-0.001160530373454094
1783246439926133500,4.889133544921875,-0.00020707352086901665,0.000672189868055284,-0.0022600579541176558
1783246439936145700,4.899145751953125,-0.000009200768545269966,-0.000598137965425849,-0.00016468297690153122
1783246439946156500,4.909156494140625,-0.0002042124979197979,-0.0014354854356497526,-0.0001187673769891262
1783246439956168400,4.91916845703125,0.00030897860415279865,0.0002399092772975564,0.00040827225893735886
1783246439966179600,4.9291796875,0.0025318090338259935,-0.0010828583035618067,0.000790162943303585
1783246439976191500,4.93919140625,0.0002063368447124958,-0.0015377262607216835,-0.0005853599868714809
1783246439986202400,4.949202392578125,-0.000819881446659565,-0.0006766568403691053,-0.0005526412278413773
1783246439996214300,4.95921435546875,0.0002275398001074791,0.0003380074631422758,-0.0002293335273861885
1783246440006226400,4.969226318359375,0.0009688255377113819,-0.0006789674516767263,0.0004135081544518471
1783246440016237600,4.979237548828125,-0.00030389917083084583,-0.001564468489959836,0.000023088883608579636
1783246440026249500,4.98924951171875,-0.00005111680366098881,0.0007323634345084429,-0.0009612210560590029
1783246440036260600,4.999260498046875,0.0006431692745536566,0.0008056004298850894,0.00011442974209785461
1783246440046272500,5.0092724609375,0.0002724090591073036,0.0007072860607877374,0.0013696430251002312
1783246440056283400,5.019283447265625,0.0008950561750680208,-0.0007017925381660461,0.00010251114144921303
1783246440066295300,5.02929541015625,-0.0023686238564550877,-0.0008809464052319527,0.0006445413455367088
1783246440076307500,5.039307373046875,0.0006370195187628269,-0.0003230141010135412,-0.000443093478679657
1783246440086318600,5.049318603515625,0.001623405609279871,-0.00004712282679975033,-0.00033089378848671913
1783246440096330500,5.05933056640625,-0.00027489569038152695,0.0004021523054689169,-0.0005024014972150326
1783246440106341600,5.069341552734375,0.0012072839308530092,-0.0013602310791611671,-0.00037671811878681183
1783246440116353500,5.079353515625,0.0007723898161202669,0.000011563068255782127,0.0008499338291585445
1783246440126364400,5.089364501953125,0.0004287315532565117,0.0005828897701576352,-0.0005708811804652214
1783246440136376300,5.099376220703125,0.00030436180531978607,-0.00020940066315233707,-0.001360508380457759
1783246440146388500,5.109388427734375,-0.0006477301940321922,-0.00003260001540184021,0.000035577453672885895
1783246440156399600,5.119399658203125,0.000021788524463772774,-0.000998794799670577,0.000824405811727047
1783246440166411500,5.12941162109375,0.00027437182143330574,-0.00022296537645161152,0.0002714106813073158
1783246440176422700,5.139422607421875,0.0009007472544908524,-0.0008607923518866301,0.0008679586462676525
1783246440186434600,5.1494345703125,0.0003707029391080141,-0.00028170133009552956,0.0003852355293929577
1783246440196445400,5.159445556640625,-0.00006339233368635178,-0.00028969068080186844,0.0006062779575586319
1783246440206457300,5.169457275390625,0.0009410330094397068,-0.0011436045169830322,0.0001268782652914524
1783246440216469500,5.179469482421875,0.001911488943733275,-0.0019532055594027042,0.00040118396282196045
1783246440226480400,5.18948046875,0.0007483388762921095,0.0001351399114355445,0.0004635690711438656
1783246440236492300,5.1994921875,-0.0005968236364424229,-0.00031333649531006813,-0.0007079553324729204
1783246440246503700,5.209503662109375,-0.0002360271755605936,0.000681319972500205,-0.00006593391299247742
1783246440256515600,5.219515625,0.0006191139109432697,0.00018277624621987343,0.0007708310149610043
1783246440266526500,5.2295263671875,-0.00013403291814029217,0.0013665754813700914,-0.000985176069661975
1783246440276538600,5.23953857421875,-0.0002573372330516577,-0.00006727059371769428,0.0003666444681584835
1783246440286550500,5.249550537109375,0.0024749396834522486,-0.0008636252023279667,-0.0007826206274330616
1783246440296561400,5.2595615234375,0.0008376282639801502,0.0000027013011276721954,-0.0018534776754677296
1783246440306573300,5.2695732421875,0.0008888754528015852,0.000008217524737119675,-0.0003321249969303608
1783246440316584700,5.279584716796875,-0.000932726776227355,0.00044364435598254204,0.0006953226402401924
1783246440326596600,5.2895966796875,0.00040097255259752274,-0.0005692238919436932,0.001354810781776905
1783246440336607500,5.299607421875,0.0002667491789907217,-0.0006853376980870962,-0.001312078908085823
1783246440346619600,5.30961962890625,0.00011490611359477043,0.0007124461699277163,-0.00034975120797753334
1783246440356631600,5.319631591796875,-0.0007796499412506819,0.0007899441989138722,-0.000006469897925853729
1783246440366642400,5.329642333984375,-0.00009898887947201729,-0.0002458672970533371,-0.001224470091983676
1783246440376654300,5.339654296875,0.0007537552155554295,0.0005288462853059173,-0.0000819740816950798
1783246440386665500,5.34966552734375,0.0012781317345798016,0.0010737290140241385,0.0020157978869974613
1783246440396677400,5.359677490234375,-0.0004928703419864178,-0.0006943435873836279,0.000545733142644167
1783246440406688500,5.3696884765625,0.000024684937670826912,-0.000836698105558753,-0.000016592442989349365
1783246440416700700,5.37970068359375,-0.0005542861763387918,-0.00004653818905353546,0.00028008362278342247
1783246440426712600,5.389712646484375,-0.000494855223223567,-0.0005383437965065241,-0.00012028496712446213
1783246440436723500,5.399723388671875,0.0011299392208456993,0.0006654050666838884,-0.0011048554442822933
1783246440446735400,5.4097353515625,-0.00037008943036198616,-0.00006947014480829239,-0.00007999967783689499
1783246440456746500,5.41974658203125,-0.00003612902946770191,-0.0007240751292556524,0.0006747404113411903
1783246440466758400,5.42975830078125,-0.00041008926928043365,0.0002602029126137495,-0.0001322990283370018
1783246440476770300,5.439770263671875,0.00016009341925382614,-0.0005062548443675041,0.0005926135927438736
1783246440486781700,5.44978173828125,0.00040331739000976086,0.0007361300522461534,0.0008529652841389179
1783246440496793600,5.459793701171875,-0.0008627495262771845,-0.0010806785430759192,-0.00032095611095428467
1783246440506804500,5.469804443359375,-0.0000074643176048994064,-0.00006860587745904922,0.000732677523046732
1783246440516816400,5.47981640625,0.000264178030192852,0.00023366278037428856,-0.00033844588324427605
1783246440526827500,5.48982763671875,-0.0005115692038089037,-0.0002061838749796152,0.00048384442925453186
1783246440536839400,5.49983935546875,-0.0004002489149570465,-0.0009939468000084162,0.000640437938272953
1783246440546851300,5.509851318359375,-0.00006669852882623672,0.0013468924444168806,-0.0011134529486298561
1783246440556862700,5.51986279296875,0.0010097513440996408,-0.00027603795751929283,-0.0005501941777765751
1783246440566874600,5.52987451171875,0.0002560995053499937,0.0007986234268173575,-0.00030999211594462395
1783246440576885500,5.539885498046875,0.000334929209202528,0.0003669250290840864,0.00156300887465477
1783246440586897700,5.549897705078125,-0.0003504822961986065,0.00020758039318025112,-0.0009748039301484823
1783246440596908500,5.559908447265625,0.0015387642197310925,-0.0002890992909669876,-0.00048478227108716965
1783246440606920400,5.56992041015625,-0.0008261788170784712,0.000055199721828103065,-0.000760083319619298
1783246440616929000,5.579928955078125,0.0005040699616074562,-0.0001868817489594221,0.0003560474142432213
1783246440626940000,5.58993994140625,0.0012433375231921673,-0.0007485125679522753,0.0008900323882699013
1783246440636951800,5.599951904296875,-0.00026427791453897953,-0.0001785962376743555,0.0008841734379529953
1783246440646963000,5.609962890625,0.0004972114693373442,0.0008277499582618475,-0.0012482022866606712
1783246440656975000,5.61997509765625,-0.0002135862596333027,0.0009976596338674426,-0.00034112948924303055
1783246440666986000,5.629986083984375,0.0014681067550554872,0.0020342713687568903,0.001648156438022852
1783246440676998000,5.639997802734375,0.0012401401763781905,-0.0008169086650013924,-0.0007984894327819347
1783246440687010000,5.650010009765625,-0.0001224589068442583,-0.0003671133890748024,-0.00033739348873496056
1783246440697021000,5.66002099609375,-0.0009389840997755527,-0.0007340968586504459,0.001113230362534523
1783246440707032800,5.67003271484375,-0.0011755141895264387,0.000950594199821353,-0.000713494373485446
1783246440717044000,5.6800439453125,-5.275942385196686e-7,-0.0003306525759398937,0.0007616304792463779
1783246440727056100,5.69005615234375,0.0016564260004088283,-0.00016070343554019928,0.00061784777790308
1783246440737067000,5.70006689453125,-0.00019234046339988708,0.0011386529076844454,-0.000038621481508016586
1783246440747079000,5.710078857421875,0.000663326820358634,0.0006028993520885706,0.00014013564214110374
1783246440757091000,5.720091064453125,0.000642021419480443,0.00024923146702349186,-0.0002308427356183529
1783246440767102000,5.73010205078125,-0.0000186131801456213,0.00149605143815279,-0.0002500731498003006
1783246440777113900,5.74011376953125,-0.000049505848437547684,-0.0015719099901616573,-0.000700946431607008
1783246440787125000,5.750125,-0.00015034666284918785,-0.00006603449583053589,0.000017109792679548264
1783246440797137000,5.760136962890625,-0.0016707454342395067,-0.0003461991436779499,-0.0001535988412797451
1783246440807148000,5.77014794921875,0.00035708281211555004,0.00012521352618932724,0.0005482891574501991
1783246440817160000,5.780159912109375,-0.0008064522407948971,0.0014903497649356723,-0.0010727769695222378
1783246440827172000,5.790172119140625,-0.0003269976004958153,0.0005506323650479317,0.001351360697299242
1783246440837183000,5.800182861328125,0.0010083112865686417,0.0007735389517620206,0.0003689201548695564
1783246440847195000,5.81019482421875,-0.00045860232785344124,0.0008585581090301275,-0.0006330013275146484
1783246440857206000,5.8202060546875,-0.001475929981097579,-0.00005171028897166252,0.001347857527434826
1783246440867218000,5.830218017578125,0.0012467802735045552,0.000793293584138155,0.0012754416093230247
1783246440877229000,5.84022900390625,-0.0006331452168524265,0.00046599109191447496,0.0005566547624766827
1783246440887241000,5.850240966796875,-0.00039731268770992756,0.002262801630422473,0.00027954578399658203
1783246440897253000,5.860253173828125,-0.0009848058689385653,-0.0006032921373844147,-0.0008293946739286184
1783246440907264000,5.870263916015625,0.00032312911935150623,0.00042033090721815825,0.0016118125058710575
1783246440917276000,5.88027587890625,0.00010315189138054848,0.0006235301261767745,-0.0004002056084573269
1783246440927287000,5.890287109375,0.00007018959149718285,0.0006820160197094083,0.00012106634676456451
1783246440937299000,5.900298828125,-0.0011716424487531185,0.0007954667089506984,0.0008411849848926067
1783246440947310000,5.91031005859375,0.0009596711024641991,-0.00016161054372787476,0.0006469804793596268
1783246440957322000,5.920322021484375,-0.00022996286861598492,-0.00005774735473096371,-0.0012049817014485598
1783246440967334100,5.930334228515625,0.000041773077100515366,0.0010785534977912903,-0.00013215187937021255
1783246440977345000,5.940344970703125,0.0004175452049821615,0.004813370294868946,0.006043718662112951
1783246440987357000,5.95035693359375,-0.0034233075566589832,0.09303661435842514,0.02672792784869671
1783246440997368000,5.9603681640625,0.0022865096107125282,-0.017739437520503998,-0.0023945362772792578
1783246441007380000,5.9703798828125,0.002693454036489129,-0.04386216402053833,-0.009321726858615875
1783246441017390800,5.980390869140625,-0.002369215013459325,0.05300233140587807,0.007662848103791475
1783246441027402800,5.99040283203125,0.0002304126974195242,-0.004093102179467678,-0.0030286740511655807
1783246441037415000,6.000414794921875,0.00023174425587058067,-0.021807650104165077,-0.004840156529098749
1783246441047426000,6.010426025390625,-0.00013151089660823345,0.01265285536646843,-0.000992421293631196
1783246441057438000,6.02043798828125,0.0015694500179961324,-0.016615817323327065,-0.0049650585278868675
1783246441067449000,6.030448974609375,0.0007444489747285843,-0.031990934163331985,-0.009347490966320038
1783246441077461000,6.0404609375,0.0003495020791888237,-0.027704846113920212,-0.0066545018926262856
1783246441087471900,6.050471923828125,0.0006391617935150862,0.008070557378232479,0.0011926968581974506
