time,seconds_elapsed,z,y,x
1783246483114350300,0.051350341796875,-0.045562896779179574,0.007739581276103854,-0.007441091519873589
1783246483124362500,0.061362548828125,-0.01293956107199192,-0.009369374435022473,0.0053936300713103265
1783246483134374400,0.07137451171875,-0.03658054890036583,0.008286876427941023,0.004026241575088352
1783246483144385300,0.08138525390625,-0.008596563431620597,0.003642886546999216,-0.009171559441136196
1783246483154397400,0.0913974609375,-0.022953005564212797,-0.007550853770971298,-0.005595089193852618
1783246483164409300,0.101409423828125,-0.019061843344569205,-0.00141059745028615,0.003577255698572844
1783246483174420500,0.11142041015625,-0.02654430805444717,0.005329232198745012,-0.01796638539121486
1783246483184432400,0.121432373046875,-0.015320903250575064,-0.01756426173057407,0.0033185682297684252
1783246483194443500,0.131443603515625,-0.020555881294608114,-0.003962693085893989,0.0017482227736618369
1783246483204455400,0.141455322265625,-0.017567220872640607,0.013164346271194517,-0.005430948140705004
1783246483214467600,0.151467529296875,-0.02205634898543358,0.01495126622058451,0.002156949705025181
1783246483224478500,0.161478515625,-0.037167993399500845,-0.005270341618359088,-0.004967504480574279
1783246483234490400,0.171490478515625,-0.027293665117025374,0.004501366539858281,-0.0012087912678718567
1783246483244502500,0.18150244140625,-0.030285832670331,0.003885682326927781,0.008809356798930093
1783246483254513400,0.191513427734375,-0.021748890471458435,-0.0026551906839013097,-0.012632677946751936
1783246483264525300,0.201525390625,-0.03656652037501335,-0.0091818890389055,0.006800647325022145
1783246483274537200,0.211537109375,-0.02833294503688812,-0.0010247764704748987,0.01216230222233571
1783246483284548600,0.221548583984375,-0.028032500785589217,0.0030026158820837734,-0.003501733643794432
1783246483294560500,0.231560546875,-0.009769698864221573,-0.0024893325977027414,-0.009711164476862176
1783246483304572400,0.241572509765625,-0.011865209838747977,-0.00827361508756876,-0.0112177879138384
1783246483314583600,0.25158349609375,-0.02084112797677517,0.0009679317167028785,0.01214802710181102
1783246483324595500,0.261595458984375,-0.024425416204333306,0.0023187983363866806,0.002058001108886674
1783246483334607400,0.271607421875,-0.0278676656126976,-0.0014064692644402384,-0.021567542555183172
1783246483344618200,0.2816181640625,-0.014703063613176345,0.005819901792518794,-0.013102542214514687
1783246483354630400,0.29163037109375,-0.016352584385871886,0.0025692294334992765,-0.006751246092189103
1783246483364642300,0.301642333984375,-0.022783494216203688,-0.01244370384644717,-0.011357196384528652
1783246483374653400,0.3116533203125,-0.004828150808811187,-0.0007248802084475755,0.00011872187568806112
1783246483384665600,0.32166552734375,-0.020395137774944304,0.007322744103521108,0.009800724190147592
1783246483394677500,0.331677490234375,-0.02443593759834766,0.014326887244544922,-0.005421413127379491
1783246483404688400,0.3416884765625,-0.024434184032678604,-0.01010324166752398,-0.009671243458427488
1783246483414700500,0.351700439453125,-0.017546178084611893,-0.0011896847086027263,-0.010022184921102597
1783246483424712400,0.36171240234375,-0.017093758141994476,-0.01830207448583096,-0.0065614043422043316
1783246483434723300,0.371723388671875,-0.024871990928053856,-0.006222016320005059,0.0005433861616998911
1783246483444735500,0.381735595703125,-0.03175765878856182,-0.00034347967542707917,0.007121613774541765
1783246483454747400,0.391747314453125,-0.01874094082713127,-0.010179521774128078,0.0020603665959089993
1783246483464758300,0.40175830078125,-0.005272971966862678,-0.004222403468005359,0.007977308155270292
1783246483474770400,0.4117705078125,-0.028463877940177917,0.0135773840514943,0.007989793177507818
1783246483484782300,0.4217822265625,-0.00961421604156494,-0.013239055475220083,0.008403223683452234
1783246483494793500,0.43179345703125,-0.012752514067292213,-0.00013162702303379773,-0.007854595091054215
1783246483504805400,0.441805419921875,-0.024426585248112677,0.011302351791597902,0.005533513466035947
1783246483514817500,0.451817626953125,-0.023526421537995338,-0.00012435703203082083,0.0028253504858817904
1783246483524828400,0.461828369140625,-0.011854688444733618,-0.002542377959191799,0.001969857034552842
1783246483534840300,0.47184033203125,-0.024733459240198135,0.0009272709127515554,-0.003280756970029324
1783246483544851500,0.4818515625,-0.016058569875359533,-0.0048522623367607595,0.0014335764670744538
1783246483554863400,0.49186328125,-0.018752631264925,-0.0002053498463705182,0.0015782821673899889
1783246483564875300,0.501875244140625,-0.028787118545174597,0.002617306358925998,-0.0004517714886460453
1783246483574886400,0.511886474609375,-0.017570728003978728,-0.0028194778675213455,0.002909302442288026
1783246483584898600,0.521898681640625,-0.02729483416080475,0.007129486553743482,0.0032408633510582147
1783246483594910500,0.531910400390625,-0.02205576446354389,0.0003564852874726057,0.002471596011612564
1783246483604921300,0.54192138671875,-0.020257775130867958,-0.0026649083603173494,-0.0011021616887766867
1783246483614933500,0.55193359375,-0.02145370691716671,0.000893149447441101,-0.0009924999023787676
1783246483624945400,0.5619453125,-0.017865911558270452,0.0007954246940091252,-0.0029877014407422393
1783246483634956300,0.571956298828125,-0.019961422532796858,0.010528992798924445,-0.01973778811106458
1783246483644968400,0.581968505859375,-0.016968670457601545,0.005440108694694936,-0.004635642177704721
1783246483654979800,0.591979736328125,-0.029693127474188803,-0.005566803814284503,-0.0023536869866773486
1783246483664991200,0.6019912109375,-0.02594868024885654,0.00781604404579848,-0.010356184382131322
1783246483675003100,0.612003173828125,-0.010830021572113036,-0.003198759508691728,-0.00317298574661836
1783246483685015000,0.62201513671875,-0.02100654767155647,0.009541516131535172,0.007033405768126249
1783246483695026200,0.632026123046875,-0.010386953979730605,-0.004878456223942339,0.0027038612643722443
1783246483705038000,0.6420380859375,-0.030288755279779433,-0.017299181053601204,0.004670393830677494
1783246483715050000,0.652050048828125,-0.008138298270106314,0.0001685980325564742,-0.0012155132696032524
1783246483725060900,0.662060791015625,-0.0073871876418590545,-0.0037776188425719735,-0.003011356310965493
1783246483735073000,0.672072998046875,-0.027440964633226393,0.0007662351321429014,-0.00415183158298023
1783246483745085000,0.6820849609375,-0.015471709898114203,-0.0062346566058695315,0.0034845541801303624
1783246483755096000,0.692095947265625,-0.0073918638169765466,-0.0012898571474477649,-0.0025073705778922884
1783246483765108200,0.702108154296875,-0.018911036697030065,0.004950936938263476,-0.009385046928189695
1783246483775120100,0.7121201171875,-0.021161445972323417,0.0005309285389259457,-0.01084108182224445
1783246483785131000,0.722131103515625,-0.026855273699760436,0.004274243253096938,0.0019285112440120427
1783246483795143200,0.73214306640625,-0.012186112356185913,0.008692096227966248,0.008085919628897681
1783246483805155000,0.742155029296875,-0.022211831808090207,0.002696216814033687,-0.004961942389467731
1783246483815166000,0.752166015625,-0.03627718203961849,0.005826952587813138,-0.0034482224914245303
1783246483825178000,0.76217822265625,-0.014129647639393806,0.005063019010610878,0.0043163927612360565
1783246483835190000,0.77218994140625,-0.0168225399851799,0.0003948810691013932,0.012061335199046879
1783246483845201000,0.782200927734375,-0.028639819028973577,-0.0019074410565197467,-0.002861216383706778
1783246483855213000,0.792213134765625,-0.01352116035223007,0.00802464529518038,0.0049350361162330955
1783246483865224200,0.80222412109375,-0.022354455149173735,-0.001331869658268988,-0.0037877566440962253
1783246483875236000,0.812236083984375,-0.01127776533961296,-0.004552914064005017,-0.0017610457226168363
1783246483885248000,0.822248046875,-0.015611410629749297,0.00042871027346700426,0.00481088914675638
1783246483895259100,0.832259033203125,-0.0239899473965168,0.00324690949935466,0.010955995172495021
1783246483905271000,0.84227099609375,-0.02204582759141922,0.005205459688603878,0.001186232376191765
1783246483915283000,0.852282958984375,-0.01710311049222946,0.004664155886135995,0.0010060535036958754
1783246483925294000,0.862294189453125,-0.040893735924363135,-0.0013526567179709672,0.005369025353016332
1783246483935306000,0.872305908203125,-0.016799743631482122,-0.006043956339359283,-0.004556740855751559
1783246483945318000,0.88231787109375,-0.022636779221892354,-0.008999627807177602,-0.0015202957693021743
1783246483955329000,0.8923291015625,-0.0066296472728252405,-0.005176123996265232,-0.0011693908392451703
1783246483965341200,0.902341064453125,-0.0248830968439579,0.00930394451599568,-0.010431633371673524
1783246483975353000,0.91235302734375,-0.014555179575085639,0.003554916002601385,-0.014953403378743678
1783246483985364000,0.922364013671875,-0.02308569203317165,-0.0034667262624949215,0.0074596957556437695
1783246483995376000,0.932376220703125,-0.017995675417780875,0.0063688043795526025,0.026038249095296485
1783246484005388000,0.942387939453125,-0.03520283080637455,0.012002097558788954,-0.006398587596463039
1783246484015399000,0.95239892578125,-0.015600889235734938,0.0016999357856810093,-0.01729550952548161
1783246484025411000,0.9624111328125,-0.023085107511281965,-0.0015570932488888501,0.017698372971639037
1783246484035423000,0.972423095703125,-0.014407295536994933,0.003406666638329625,0.007515380598790943
1783246484045434000,0.98243408203125,-0.023682488882541656,-0.014576076232641934,-0.016355397397466002
1783246484055446300,0.9924462890625,-0.01619827060699463,-0.007277808983251452,-0.008965990399057044
1783246484065458200,1.002458251953125,-0.022338088536262513,-0.0001740048600360751,0.01803895743708126
1783246484075469000,1.012468994140625,-0.011117606341838835,-0.017678608825244007,0.004589930739300325
1783246484085481200,1.022481201171875,-0.015903087052702904,-0.008135667921602726,-0.014215316628850996
1783246484095493000,1.0324931640625,-0.009017419192194938,0.00008051789030432701,-0.005104090806515887
1783246484105504000,1.04250390625,-0.017398294046521184,-0.005903707618452608,0.015913599313562735
1783246484115516000,1.052515869140625,-0.04298340167999267,-0.004303834673762321,0.006218646185984835
1783246484125528000,1.062528076171875,-0.0199421333104372,0.00681062986291945,-0.01985608986164443
1783246484135539000,1.0725390625,-0.02263444113433361,0.005292882243730128,-0.0034117355390917508
1783246484145550800,1.08255078125,-0.011110592079162597,-0.004035867919959127,0.01357808730439283
1783246484155563000,1.09256298828125,-0.01530979733467102,-0.002236526880413294,0.0006608841946814209
1783246484165574100,1.10257421875,-0.00992751977443695,0.011769311716221273,-0.0071055028899572785
1783246484175586000,1.1125859375,-0.02085457198023796,0.004944105338677764,0.007659300847817212
1783246484185597000,1.122596923828125,-0.006343231546878814,-0.018502382830902935,0.009421049823332578
1783246484195609000,1.132609130859375,-0.03342880687117576,0.009628500295244157,-0.011318572274036705
1783246484205621000,1.14262109375,-0.0063397244155406944,0.008088906170427798,-0.013412612810684368
1783246484215632000,1.1526318359375,-0.024743396112322805,-0.00510050147678703,0.00040012349979951975
1783246484225644000,1.16264404296875,-0.021156769797205925,0.00351673941668123,0.003978968367259949
1783246484235656000,1.172656005859375,-0.021607436174154282,-0.005277538544125855,-0.005595390587951988
1783246484245667000,1.1826669921875,-0.02459901920557022,-0.006189831083454191,-0.009586679580667987
1783246484255679200,1.19267919921875,-0.02280219891667366,-0.0024912322938442227,0.011141526073543354
1783246484265691100,1.202691162109375,-0.01382277364730835,0.01664842552728951,0.007255615417752414
1783246484275702000,1.212701904296875,-0.016212299132347105,0.0007147241406142711,-0.013771892843442038
1783246484285714200,1.222714111328125,-0.02025192991197109,0.005229169357754289,-0.016065036148764193
1783246484295726000,1.23272607421875,-0.030580431702733037,0.007526194253750145,0.010839136460330337
1783246484305737000,1.242737060546875,-0.02025543704330921,0.00046564475037157534,0.002508238227572292
1783246484315749000,1.2527490234375,-0.0061906713336706155,0.0037594255987554786,-0.011466118385409936
1783246484325761000,1.262760986328125,-0.027442133677005768,0.009341390449553727,-0.0016269892804790288
1783246484335772200,1.272772216796875,-0.02744330272078514,0.01129782174695283,0.005813535983813926
1783246484345784000,1.2827841796875,-0.026393501406908035,-0.009267558028362691,0.012459412872232496
1783246484355796200,1.292796142578125,-0.03267535815536975,-0.00018452625405043362,-0.005287329285778105
1783246484365807000,1.30280712890625,-0.02249240231513977,0.0012128829210996627,-0.008606728632608428
1783246484375819000,1.312819091796875,-0.013814005818963051,0.005696713804267346,-0.004037310958374291
1783246484385831200,1.3228310546875,-0.011269582033157349,-0.013030819552019238,-0.008996075010066851
1783246484395842000,1.332842041015625,-0.018602993661165235,0.002253697210922837,-0.003150207659229636
1783246484405854000,1.34285400390625,-0.023241174855828283,0.00838244575690478,0.0010338639592286198
1783246484415866000,1.3528662109375,-0.010072481203079223,0.0010363207777962088,0.0013409936796408145
1783246484425877000,1.362876953125,-0.011873977667093276,-0.0021563743162900206,0.0012966065486427396
1783246484435889000,1.372888916015625,-0.023995208093523977,0.004736673133075237,-0.010390753372013568
1783246484445901000,1.382901123046875,-0.007836684975028037,0.0016398396288976073,0.008189663131162523
1783246484455912200,1.392912109375,-0.0005026888251304626,-0.006781184572726488,0.007994862078269943
1783246484465924000,1.402924072265625,-0.017116554495692254,-0.004766118423268199,-0.0005361709696240723
1783246484475935000,1.41293505859375,-0.01158580837547779,0.005207359384745359,0.004526382250105962
1783246484485947100,1.422947021484375,-0.01816752485334873,-0.0009743249248713254,0.013495359190693125
1783246484495959000,1.432958984375,-0.03761690621078014,-0.006853409558720886,-0.005469553984887898
1783246484505970000,1.442969970703125,-0.020711364117264746,-0.0035050124462693926,-0.005621273947879672
1783246484515982000,1.452982177734375,-0.019066519519686697,-0.006917158977314829,-0.00035245756632648406
1783246484525994000,1.462993896484375,-0.012635609689354895,0.009126176796294749,0.0002874386392533779
1783246484536005000,1.473005126953125,-0.011288286733627318,0.009264452755823731,0.007149177634902298
1783246484546017300,1.483017333984375,-0.018470891714096067,-0.009441307160072028,0.006264722950570285
1783246484556029200,1.493029296875,-0.02116086145043373,0.006225304255634546,0.013350470827287061
1783246484566040000,1.5030400390625,-0.015029811349511146,0.006745455672219396,0.005553469408676028
1783246484576052000,1.513052001953125,-0.01787467938661575,0.0006266074657440185,0.002525627753790468
1783246484586064100,1.523064208984375,-0.017125322324037552,0.0019529972312971949,0.006535794976912438
1783246484596075000,1.533074951171875,-0.027300094857811926,0.008506912386789918,0.0054492692486848675
1783246484606087000,1.5430869140625,-0.0056014732688665385,-0.009627258186228572,0.009148324696021153
1783246484616099000,1.55309912109375,-0.022658406531810758,0.0027252237128093837,0.0010826715370174497
1783246484626110000,1.56310986328125,-0.02520458388328552,-0.007732055556774139,-0.003810187671612948
1783246484636122000,1.5731220703125,-0.029994156247377394,-0.002926153112389147,0.0074098743977025145
1783246484646134000,1.583134033203125,-0.015777999368309974,-0.0003901683613657951,0.010255299557233229
1783246484656146000,1.59314599609375,-0.02176174995303154,0.002123202699050307,0.0041230530130676925
1783246484666157800,1.60315771484375,-0.006347907721996307,0.0014858181109651922,-0.0004023428563494235
1783246484676170000,1.613169921875,-0.02221007824242115,0.003292794467695057,-0.016430818987544626
1783246484686180900,1.623180908203125,-0.03388648751080036,0.016252850338444112,0.0031987138429190962
1783246484696192800,1.63319287109375,-0.01592763697206974,0.006631985360383987,0.005136961029656231
1783246484706205000,1.643204833984375,-0.036278351083397865,-0.0038527299053966995,-0.007749198487820103
1783246484716215800,1.6532158203125,-0.021315759751200675,0.008299589779041707,0.001236546924477443
1783246484726227700,1.663227783203125,-0.016530279040336607,0.007616539418324827,0.004580313527584075
1783246484736238600,1.673238525390625,-0.010990765091776848,0.012792005827464162,0.003505112910969183
1783246484746250800,1.683250732421875,-0.012632687079906463,-0.006439568060822785,-0.01221782266870141
1783246484756262700,1.6932626953125,-0.0353705885887146,-0.0028199893241748213,0.01160451307594776
1783246484766273800,1.703273681640625,-0.01920797381699085,-0.002420468612574041,0.0028616639082785695
1783246484776286000,1.713285888671875,-0.022049334722757337,0.007858385350182653,-0.0003288026961032301
1783246484786297900,1.7232978515625,-0.012618658554553986,0.003619724867120385,0.0022561905621085315
1783246484796308700,1.733308837890625,-0.026083120283484456,-0.003481047048792243,-0.007962229317147284
1783246484806321000,1.74332080078125,-0.02937690113186836,-0.0019658567128703,0.00005582184046506881
1783246484816332800,1.753332763671875,-0.02159749930202961,-0.012878076675720511,-0.010037245492916553
1783246484826343700,1.76334375,-0.018756722918152807,-0.0021889248790219426,-0.007726986656012013
1783246484836355800,1.77335595703125,-0.026992636343836782,-0.0007496493235230445,0.007631088533485307
1783246484846367700,1.78336767578125,-0.026994389909505843,0.005894610996544361,0.002648824875196442
1783246484856379000,1.79337890625,-0.021305822879076,-0.008211619234643875,0.0002985628214664757
1783246484866390800,1.803390869140625,-0.009034370326995849,0.0017895502978935837,-0.0076660867816302925
1783246484876403000,1.81340283203125,-0.020107553005218503,0.002678023570217192,-0.0046859110602177675
1783246484886413800,1.823413818359375,-0.023249358162283896,0.0092426427828148,0.00018864530674181877
1783246484896425700,1.83342578125,-0.016369535520672798,-0.014196356200054288,0.005859338753763586
1783246484906438000,1.84343798828125,-0.015323825860023498,-0.0018808818431571125,0.0009474186516366898
1783246484916448800,1.85344873046875,-0.0112847796022892,0.0015734598618000746,0.0006382339714560658
1783246484926460700,1.863460693359375,-0.011730185282230377,0.003618738486431539,0.006063108564401045
1783246484936472800,1.873472900390625,-0.026839491608738896,0.013586663336493074,-0.013631160065345465
1783246484946484000,1.88348388671875,-0.03207330060899258,0.002893018027767539,0.0010273063542786986
1783246484956496000,1.893495849609375,-0.034762101301550864,-0.006303082199580967,0.008117209816304967
1783246484966508000,1.903508056640625,-0.029525369691848755,-0.0012033844403922557,-0.009224833131488412
1783246484976519000,1.913518798828125,-0.015310381856560706,0.005071750306338071,-0.018739406457170843
1783246484986530800,1.92353076171875,-0.01665653576850891,0.00534278580006212,-0.016238429087447003
1783246484996541700,1.933541748046875,-0.015012860214710235,0.008669519069977105,0.002284594672685489
1783246485006553900,1.943553955078125,-0.013970657685399054,-0.0020081249520182607,0.0025591829635202884
1783246485016565800,1.953565673828125,-0.016515081471204757,-0.005139079921506345,0.00017259835423901677
1783246485026576600,1.96357666015625,-0.018308394628763196,-0.006662343966029584,-0.01323616026523523
1783246485036588800,1.9735888671875,-0.005290507623553276,-0.0012843407221138476,-0.002379816941777244
1783246485046600700,1.9836005859375,-0.020702011767029762,-0.005051657366380095,-0.006732769720582291
1783246485056611800,1.99361181640625,-0.01889993078112602,-0.008747698872722684,-0.0028119064824189987
1783246485066624000,2.0036240234375,-0.037895723152160644,-0.0033485797755420208,0.00637091413824819
1783246485076636000,2.013635986328125,-0.02412614099681377,0.006327522521093487,-0.0016975611655041575
1783246485086646800,2.023646728515625,-0.021579379123449323,-0.010487272549048066,-0.007685412536608055
1783246485096658700,2.03365869140625,-0.011107084947824478,-0.0011657193111255764,0.004591492508724332
1783246485106670800,2.0436708984375,-0.0331049817442894,0.005582439774833619,0.002152337461989373
1783246485116681700,2.053681640625,-0.016045125871896743,0.002564735921472311,-0.0068293619628529995
1783246485126693600,2.063693603515625,-0.0172451493114233,-0.012202661632187663,-0.005058790360065177
1783246485136705800,2.073705810546875,-0.030569325786828992,-0.002969407732225954,0.0016246055271476507
1783246485146717000,2.083717041015625,-0.019801263535022734,-0.0031696795446798202,-0.003184192127222195
1783246485156728800,2.093728759765625,-0.021602759999036786,0.001120053538493812,0.0033722985778469592
1783246485166741000,2.103740966796875,-0.01547229442000389,-0.006291610957495868,0.0006348547042813151
1783246485176751900,2.113751953125,-0.03881517608463764,-0.00916460911054164,-0.00677198748611845
1783246485186763800,2.123763671875,-0.023252280771732328,-0.0015439049737527965,0.007584701241645961
1783246485196776000,2.13377587890625,-0.03313186975121498,0.0027172230694442988,-0.0010730908579193055
1783246485206786800,2.143786865234375,-0.03507248242497444,-0.004689801784045994,-0.01389669740004465
1783246485216798700,2.153798828125,-0.014422493106126784,-0.0030315862482413647,-0.010710340715199709
1783246485226810600,2.163810546875,-0.015619009414315222,0.005020714238844812,-0.007934345796378328
1783246485236822000,2.173822021484375,-0.028937925192713737,0.01416281925663352,-0.003449510266212746
1783246485246834000,2.183833984375,-0.04225625644922256,0.006393281233683228,-0.014369219415774568
1783246485256844800,2.1938447265625,-0.022804537004232406,-0.005377382189407944,-0.001712840933026746
1783246485266857000,2.20385693359375,-0.01637245813012123,-0.022112207358516753,0.003903208850463852
1783246485276868900,2.213868896484375,-0.016219897916913032,0.00761317841745913,-0.006396751832403242
1783246485286879700,2.223879638671875,-0.01023731637597084,0.004396335262805223,-0.0009397742012981325
1783246485296891600,2.2338916015625,-0.015472878941893576,0.0034735578620806334,0.0028423290201462803
1783246485306903800,2.24390380859375,-0.021906711381673813,0.0076628993107005945,-0.0026914401742164046
1783246485316914700,2.253914794921875,-0.019514847809076308,-0.0066755322411656375,-0.0073742094292771065
1783246485326926600,2.263926513671875,-0.025050270104408263,0.0018349968748167156,0.006115131012583151
1783246485336938800,2.273938720703125,-0.02251110701560974,0.008040829245001078,0.0012623846186324953
1783246485346950000,2.283949951171875,-0.02461129416525364,0.004239573798514903,0.006923122927220538
1783246485356961800,2.2939619140625,-0.009946224474906921,0.004364551885053515,-0.003740382971568033
1783246485366974000,2.303973876953125,-0.00441021765768528,-0.005504734896123409,0.0016124127658549694
1783246485376984800,2.31398486328125,-0.029249475359916684,-0.0028395708074793217,-0.003088604531949386
1783246485386996700,2.323996826171875,-0.03223930482566356,-0.001538169352710247,-0.0042528990709688515
1783246485397009000,2.3340087890625,-0.02326104860007763,0.00010652911439538002,-0.0050142662317492065
1783246485407019800,2.344019775390625,-0.016079028141498565,0.003704334410652518,-0.006341121788183227
1783246485417031700,2.35403173828125,-0.011890344280004501,0.0005887231407687068,0.0017500220051035284
1783246485427043800,2.3640439453125,-0.020569909819960593,0.0017957243103533982,0.004581162910955026
1783246485437055000,2.374054931640625,-0.017879940083622932,0.001393390587158501,-0.0031031171144917605
1783246485447067000,2.38406689453125,-0.012194880184531211,0.003826572550833225,-0.0020038689020089803
1783246485457078800,2.394078857421875,-0.027156302472949027,-0.0013249649934470654,-0.004617823393223807
1783246485467090000,2.40408984375,-0.038380876320600506,-0.01207680676281452,0.015403960157837718
1783246485477101800,2.414101806640625,-0.02446399464905262,0.006192753692902625,-0.003824316661665216
1783246485487112700,2.42411279296875,-0.014288637593388557,0.003193681474775076,0.011121387467812747
1783246485497124900,2.434124755859375,-0.024018004447221755,-0.008878156851977109,0.004236112332949415
1783246485507136800,2.44413671875,-0.019379823252558707,-0.003350479471683502,0.00401782993976958
1783246485517148000,2.45414794921875,-0.027462591943144796,0.00671348963137716,-0.0055968153600580986
1783246485527159800,2.464159912109375,-0.01789046147763729,0.004859532327763736,-0.008872101570526137
1783246485537172000,2.474171875,-0.014447627547383308,-0.004255027095973491,0.001156522224517539
1783246485547182800,2.484182861328125,-0.012955343163013458,0.007012837904132902,-0.0007469002440106123
1783246485557194800,2.49419482421875,-0.022387188374996186,-0.0006816621212288737,-0.005689115019701421
1783246485567207000,2.50420703125,-0.02508008072078228,0.007833141311071812,-0.001986525041563436
1783246485577217800,2.5142177734375,-0.020142039796710014,-0.014785079340822994,-0.008198915016697719
1783246485587229700,2.524229736328125,-0.018942016357183455,0.010139007100649177,-0.003292401742050424
1783246485597241900,2.534241943359375,-0.022977555483579635,0.000040258945152163504,-0.009079871702846139
1783246485607252700,2.544252685546875,-0.0184825821518898,0.0008614391349256039,-0.003159569142619148
1783246485617264600,2.5542646484375,-0.009203297153115271,0.0029332039076834914,-0.006251032351935282
1783246485627276800,2.56427685546875,-0.02101882263123989,-0.0031341698398813602,-0.013496729163872078
1783246485637288000,2.574287841796875,-0.0208703540712595,-0.0036942514080554245,-0.002794389092037454
1783246485647299800,2.5842998046875,-0.023262217643857,-0.0022275398563593625,0.002489222999848425
1783246485657311200,2.594311279296875,-0.02565291217267513,0.004899425946734846,-0.0046713893445208664
1783246485667322000,2.604322021484375,-0.018921558091044424,0.0007541063029319048,0.0038753435960039496
1783246485677334000,2.614333984375,-0.008295534658432007,0.007318396721966564,0.0031653686957433817
1783246485687346000,2.624345947265625,-0.02131342166364193,-0.0003007730448618531,0.01340314172944054
1783246485697357000,2.634357177734375,-0.04016717521548271,0.00642718350328505,-0.004061952209286392
1783246485707369200,2.644369140625,-0.03313303879499435,0.005398863368853926,-0.004987067697569727
1783246485717381000,2.654381103515625,-0.01607785909771919,0.010852817925810812,-0.010961913456628098
1783246485727392300,2.664392333984375,-0.006797989577054977,0.005107881065644323,0.0012691705524455754
1783246485737404200,2.674404052734375,-0.02864274163842201,-0.003917209976352751,0.002751655062008649
1783246485747415000,2.6844150390625,-0.010090601381659507,0.00990983798727393,0.0030513047288637605
1783246485757427200,2.69442724609375,-0.016072598400712013,-0.0006484539713710546,-0.006892051935521885
1783246485767439000,2.704439208984375,-0.023857260927557945,-0.004937310271710157,0.012986222358467057
1783246485777450000,2.714449951171875,-0.013831541475653648,-0.0034284400787204503,0.009716397774405777
1783246485787462000,2.7244619140625,-0.026705051574110985,0.005772665117308497,0.003832764829602092
1783246485797474000,2.73447412109375,-0.022066870379447937,0.00308974617626518,0.0013234488897956908
1783246485807485200,2.744485107421875,-0.006804419317841529,0.010143281416967511,-0.006577542626252398
1783246485817497000,2.7544970703125,-0.02446399464905262,0.00287668794747442,0.00443155270665884
1783246485827509200,2.76450927734375,-0.02715221081972122,0.011033215994015336,-0.001640999539522454
1783246485837520100,2.77452001953125,-0.027602877196669578,0.0013220058513805269,0.008946481980988755
1783246485847532000,2.784531982421875,-0.004709492865204811,0.001339322312362492,0.002644450094178319
1783246485857544200,2.794544189453125,-0.011742460241913794,-0.00509914976991713,-0.001574016984226182
1783246485867555000,2.80455517578125,-0.01144201599061489,-0.010207030835561454,0.009505047445511445
1783246485877567000,2.81456689453125,-0.012490063738822936,-0.000013590133935213088,0.00398264902853407
1783246485887579100,2.8245791015625,-0.02835164973735809,-0.00017506430596113203,-0.006666316888248548
1783246485897590300,2.83459033203125,-0.021622633743286133,0.0003480097200721502,0.00436536473580636
1783246485907602200,2.844602294921875,-0.028811668464541435,0.005388415040075778,-0.008106450960272923
1783246485917614000,2.854614013671875,-0.033898762470483776,0.0017685805751010775,-0.006990836134878918
1783246485927625200,2.864625244140625,-0.018331190982460974,0.006598411884345114,0.0009067669808398932
1783246485937637000,2.87463720703125,-0.01712882945537567,0.0027647885382175445,0.00616764665110968
1783246485947649000,2.88464892578125,-0.01892564974427223,0.0023642449133098125,0.0010269592944066972
1783246485957660200,2.89466015625,-0.014426000237464903,0.00923237711712718,0.006331184916058555
1783246485967672000,2.904672119140625,-0.0210053786277771,0.003026179420761764,-0.008565519839385523
1783246485977683000,2.914682861328125,-0.0073883566856384275,0.0028737288054078818,-0.007984331551101058
1783246485987695000,2.924695068359375,-0.00902910962998867,-0.00005538344904780387,-0.006449386201938614
1783246485997707000,2.93470703125,-0.014863807132840155,0.006069200378470123,-0.011042833205731585
1783246486007718100,2.94471826171875,-0.030873861691355704,-0.0005435688247904181,0.007936857413873077
1783246486017730000,2.95472998046875,-0.02757832727730274,0.004923537474684417,-0.0015020568597130476
1783246486027742200,2.9647421875,-0.01979483379423618,0.006974770916067063,0.003129785925708711
1783246486037753000,2.974753173828125,-0.020696166548132895,0.0016483882615342736,0.00249151542163454
1783246486047765000,2.984764892578125,-0.01725508618354797,-0.0026754662869498133,-0.007803540757251903
1783246486057777200,2.994777099609375,-0.02473755089342594,-0.005369966067932546,-0.010078244223585352
1783246486067788000,3.0047880859375,-0.02653612474799156,-0.001122720419615507,0.0009928926280234009
1783246486077800000,3.014800048828125,-0.019801263535022734,0.0002234334923326969,-0.012542533711576834
1783246486087812000,3.02481201171875,-0.025486323434114454,-0.012801723503880202,-0.013100103662256151
1783246486097823200,3.0348232421875,-0.039702480313181875,-0.005164871949888765,0.00021997202676720916
1783246486107835100,3.044835205078125,-0.021895605465769765,0.0036740123376250264,0.006230784148350358
1783246486117847300,3.054847412109375,-0.017406477352976797,0.0008319573121145367,0.0018976320485584437
1783246486127858200,3.064858154296875,-0.02518938631415367,-0.003618738486431539,0.001483452623942867
1783246486137870000,3.0748701171875,-0.014717092138528823,-0.010440437732636927,-0.004297441465593874
1783246486147882000,3.084882080078125,-0.019354688811302184,0.004664850005879998,-0.005582101848116144
1783246486157893000,3.09489306640625,-0.029531214910745618,-0.006549823502264917,-0.005620616360753774
1783246486167905000,3.104905029296875,-0.021158523362874982,0.0031697891425341365,-0.004372013672301545
1783246486177917000,3.1149169921875,-0.027748423147201537,0.007783091624267399,-0.0013323445823043584
1783246486187928300,3.12492822265625,-0.026252631631493568,-0.0007527545960620046,-0.004694331828691065
1783246486197940200,3.134940185546875,-0.03358312065005302,0.006983575277030468,0.00006743921302258968
1783246486207951000,3.144951171875,-0.01712707588970661,-0.004339380911178887,-0.00600377045944333
1783246486217963000,3.154962890625,-0.02461421677470207,-0.00021755174081772565,0.0036777386646717784
1783246486227975200,3.16497509765625,-0.02177402491271496,0.0005862023901194334,0.008153669369174167
1783246486237986000,3.174986083984375,-0.027760113584995267,0.00464683942515403,-0.005432272448111325
1783246486247998000,3.184998046875,-0.02237257532775402,-0.0007478592252358793,0.002661145500652492
1783246486258010000,3.195010009765625,-0.01953179894387722,0.005879084633849561,0.0020520097595173865
1783246486268021000,3.20502099609375,-0.03449789740741253,0.0026210692185908552,-0.0021616715459153056
1783246486278033000,3.215032958984375,-0.01714110441505909,-0.002012107007391751,-0.008332788795745
1783246486288045000,3.225045166015625,-0.024620646515488624,-0.013139394493028521,-0.014815730207413435
1783246486298056200,3.23505615234375,-0.018336451679468155,-0.002817285910435021,-0.004545625806692988
1783246486308068000,3.245068115234375,-0.021927754169702527,0.006908062355406582,-0.002306514243548736
1783246486318080300,3.255080322265625,-0.013693594309687614,0.00025740882717072963,-0.0003271404619794339
1783246486328091100,3.265091064453125,-0.017135259196162222,0.0030766674989834426,0.001218225816497579
1783246486338103000,3.27510302734375,-0.028507132560014723,0.0012515344310551882,0.00684931790549308
1783246486348115200,3.285115234375,-0.03254325620830059,0.0010454904649406672,-0.005371673967828974
1783246486358126000,3.2951259765625,-0.02551262691915035,-0.0038526933727785944,-0.0073004866059403865
1783246486368138000,3.305137939453125,-0.016084873360395432,-0.002936455310694873,0.0008538312172051519
1783246486378150000,3.31514990234375,-0.022370237240195275,0.0077021718751639125,-0.0003061068071052432
1783246486388161300,3.325161376953125,-0.03748012808859348,-0.0005829875197261572,0.004507668416481465
1783246486398173200,3.335173095703125,-0.03718143740296364,0.003619030747376382,-0.0072988609044346954
1783246486408184000,3.34518408203125,-0.028652678510546682,0.002726648484915495,-0.012256181917712092
1783246486418196200,3.3551962890625,-0.025510873353481293,-0.0022223887572064994,0.004571098174666986
1783246486428208000,3.3652080078125,-0.012195464706420897,0.007542926192842424,0.006941982891317457
1783246486438219000,3.375218994140625,-0.021173720932006836,-0.004561791490204632,-0.004361766272922977
1783246486448231000,3.38523095703125,-0.016679916644096373,0.009427497830428183,0.002265807773824781
1783246486458243000,3.3952431640625,-0.01967033063173294,-0.0018253157310187816,0.003207353807101026
1783246486468254200,3.405254150390625,-0.021612112349271774,-0.005918320665694773,-0.0026187676636502144
1783246486478266000,3.41526611328125,-0.018467969104647635,0.005283602958731353,-0.011410616205353288
1783246486488278300,3.4252783203125,-0.0225128605812788,0.0016102482082322239,0.0033580508567858484
1783246486498289200,3.4352890625,-0.03178513131737709,0.010197495822235942,-0.004398152760555968
1783246486508301000,3.445301025390625,-0.01921498807966709,0.0013357055831700563,0.005830395787069574
1783246486518313200,3.455313232421875,-0.01606967579126358,0.008299516713805495,0.0003905062880832702
1783246486528324000,3.465323974609375,-0.024147768306732178,0.004484525002911687,-0.0036053036161232737
1783246486538336000,3.4753359375,-0.0024509002834558484,-0.004039959573186934,0.0011337350039742886
1783246486548348200,3.48534814453125,-0.01637304265201092,0.009208448252268134,-0.0008765819051302969
1783246486558359000,3.495359130859375,-0.0027536826223134993,-0.0011481471218168734,-0.004728553758701309
1783246486568371000,3.505370849609375,-0.015475217029452324,0.007116773202642798,0.005241142923338339
1783246486578383000,3.515383056640625,-0.021457798570394513,-0.005368322100117802,-0.0022698537612799554
1783246486588394200,3.525394287109375,-0.019510171633958816,-0.0027211320595815778,-0.008252855427330359
1783246486598406100,3.53540625,-0.01637070456445217,-0.004452157103270292,-0.003588480345485732
1783246486608418000,3.54541796875,-0.027594693890213965,-0.0054916562188416715,-0.008744200874539091
1783246486618429200,3.55542919921875,-0.022207155632972715,0.0145258804153651,0.007043415705487131
1783246486628441000,3.565441162109375,-0.02400339139997959,0.002406293956749141,0.005818586618266999
1783246486638452000,3.575451904296875,-0.03372866660058498,-0.009595694004185498,0.009086858566058799
1783246486648464100,3.585464111328125,-0.021457214048504827,-0.002585340318083763,-0.00022095840745605527
1783246486658476500,3.5954765625,-0.028490765947103498,0.005821509227715432,0.007168275061016902
1783246486668487400,3.6054873046875,-0.017865327036380767,-0.011719919616542757,-0.009451454094750806
1783246486678499600,3.61549951171875,-0.018907529565691947,0.002231046987697482,-0.00012103256378322838
1783246486688511500,3.625511474609375,-0.026835399955511093,0.0032344884091988204,-0.009822753358865156
1783246486698522600,3.635522705078125,-0.016207038435339927,-0.008228972228243947,-0.006139352138387039
1783246486708534800,3.64553466796875,-0.0171013569265604,0.00979965561106801,-0.009182784088049083
1783246486718546700,3.655546630859375,-0.018293197059631346,-0.009298866482079029,-0.005570941133284941
1783246486728557600,3.6655576171875,-0.02921615761220455,-0.005551277451589703,-0.0007156465892214327
1783246486738569500,3.675569580078125,-0.012757190242409705,0.008234159860014915,0.011257937261136249
1783246486748581600,3.68558154296875,-0.01215571721792221,0.006095357733033597,-0.009356880279630423
1783246486758592500,3.695592529296875,-0.013497779476642607,0.0035895123919472095,-0.009319480011845007
1783246486768604400,3.7056044921875,-0.02052957780957222,-0.003768156894482672,-0.006658982965163886
1783246486778616600,3.715616455078125,-0.0319067118704319,-0.007420213128626346,-0.0067924457522574805
1783246486788627700,3.725627685546875,-0.029963761109113692,0.0058070423109456894,-0.0035819318736903367
1783246486798639600,3.7356396484375,-0.01888648677766323,0.010984700677171349,0.004411861625500023
1783246486808651800,3.74565185546875,-0.022027707412838934,-0.007143697742186486,-0.008606984360935165
1783246486818662700,3.75566259765625,-0.02097790609896183,0.01751085104290396,0.00830559026156552
1783246486828674600,3.765674560546875,-0.01559036784172058,0.008554222127236425,0.0006454491635318845
1783246486838685400,3.775685546875,-0.029206805261969563,-0.0014920286560431123,0.0012163443866651505
1783246486848697600,3.785697509765625,-0.012149287477135657,-0.0131473586037755,-0.005094090002309531
1783246486858709500,3.79570947265625,-0.01873451108634472,-0.007594765977934003,0.0032922647447325287
1783246486868720600,3.805720703125,-0.02172550959587097,-0.004468925574980676,0.003324787908000871
1783246486878732800,3.81573291015625,-0.010202245062589644,-0.007941022132337093,-0.0007353924693074077
1783246486888744700,3.82574462890625,-0.013639233773946761,0.004567161785066128,0.000697562943259254
1783246486898755600,3.835755615234375,-0.01722936722040176,-0.0018847543006762862,-0.009626143941376357
1783246486908767700,3.845767822265625,-0.020220365729928014,0.0036174598447978492,0.00011472155400551855
1783246486918779600,3.855779541015625,-0.01602817473709583,0.009275193345546722,0.0029979853727389125
1783246486928790500,3.86579052734375,-0.018870704686641693,0.0082367536759004,-0.010415960878506303
1783246486938802400,3.875802490234375,-0.013034838140010833,-0.005373290536180139,-0.005590422151889651
1783246486948814600,3.885814697265625,-0.03218903594315052,-0.005937390692345798,0.0036340821860358116
1783246486958825500,3.895825439453125,-0.04087093957066536,0.012839279035292564,-0.0015496314616408199
1783246486968837400,3.90583740234375,-0.022763035950064656,-0.015033976067975163,-0.004245683878893032
1783246486978849500,3.915849609375,-0.02096212400794029,-0.005813545116968453,-0.009206301960954443
1783246486988860700,3.925860595703125,-0.015870353826880453,0.0071215589756146065,0.004077204577345401
1783246486998872600,3.93587255859375,-0.027834347864985464,0.00805036425832659,-0.010401329564955085
1783246487008884700,3.945884765625,-0.02902735704183578,0.015618461425043641,-0.0022898279702290893
1783246487018895600,3.9558955078125,-0.025289339557290076,-0.008115355785936116,-0.0006135379216168075
1783246487028907500,3.965907470703125,-0.020800211444497108,0.0023628201412037014,0.0014840645452961325
1783246487038918400,3.97591845703125,-0.029178748211264607,0.0025100831247866153,0.004233116658264771
1783246487048930600,3.9859306640625,0.001342062258720398,-0.0029196868389844894,-0.0003533069496974349
1783246487058942500,3.9959423828125,-0.00793897630572319,-0.006307246918044984,0.007867061846982687
1783246487068953600,4.00595361328125,-0.02754208692014217,-0.0016834595749154685,0.0002911010342184454
1783246487078965800,4.0159658203125,-0.01721592321693897,-0.002461677405796945,-0.0027592173139564693
1783246487088977700,4.025977783203125,-0.026490532040596006,-0.0004212941519916057,-0.004719009612221271
1783246487098988500,4.035988525390625,-0.017961773148179053,0.0018335721027106045,-0.0015779442406725138
1783246487109000700,4.046000732421875,-0.023345804274082182,-0.00810140032581985,0.0024465985676739364
1783246487119012600,4.0560126953125,-0.019001053068041802,0.003470416056923568,0.002606666233902797
1783246487129023500,4.0660234375,-0.023942601123452187,0.0034013694087043403,-0.0039477055793162436
1783246487139035600,4.07603564453125,-0.029036124870181083,-0.0017610913883894682,0.006559458980290219
1783246487149047600,4.086047607421875,-0.01497252820432186,-0.0009670184012502431,-0.00477861257866025
1783246487159058700,4.09605859375,-0.019459902751445768,0.007844539487920701,-0.008158135481737553
1783246487169070600,4.106070556640625,-0.03307809373736381,-0.004695172078907489,0.0003814461987931281
1783246487179082800,4.116082763671875,0.0004401449829339981,-0.003478307102434337,0.012382703507365658
1783246487189093600,4.12609375,-0.027694062611460683,0.003308028569445014,-0.002813952309032902
1783246487199105500,4.13610546875,-0.012885200536251067,0.005659779327362775,-0.00651896257312037
1783246487209117700,4.14611767578125,-0.0187222361266613,0.007613945602439344,0.004206256050802767
1783246487219128600,4.156128662109375,-0.029940964755415914,-0.0033958529833704233,0.005499839525297283
1783246487229140500,4.166140380859375,-0.01916764180660248,0.003058949179202318,0.0047726577619090675
1783246487239151600,4.176151611328125,-0.01856324617266655,0.004160005756281316,0.000930522315762937
1783246487249163500,4.18616357421875,-0.01662029541134834,0.0010560849241912364,-0.006572455459181219
1783246487259175400,4.196175537109375,-0.022612813824415205,-0.0006406359910964965,-0.008453629563283174
1783246487269186600,4.2061865234375,-0.018572598522901534,0.0095234690181911,-0.004002851566346362
1783246487279198700,4.21619873046875,-0.014681436303257942,-0.00006484539713710546,-0.0022106617867946625
1783246487289210600,4.226210693359375,-0.022014263409376143,0.0002480564769357443,-0.010293174749054014
1783246487299221500,4.236221435546875,-0.029046061742305753,0.009636427873373031,-0.002433940015500411
1783246487309233700,4.246233642578125,-0.027846622824668883,-0.0052265390092507006,0.0027739582253620025
1783246487319245600,4.25624560546875,-0.028746202012896536,0.004398709882982075,-0.007155917902942746
1783246487329256400,4.26625634765625,-0.03487783663570881,0.007630567943677306,0.0009223755419254302
1783246487339268600,4.2762685546875,-0.014973112726211548,-0.0017106033101677894,0.00043627252541482447
1783246487349280500,4.286280517578125,-0.016765256839990614,-0.002516439800336957,0.00043749636812135577
1783246487359291600,4.296291748046875,-0.035168344014883036,-0.001511464008875191,-0.002536057816259563
1783246487369303800,4.3063037109375,-0.028883564656972883,-0.0009093333972617983,0.0006209357767831534
1783246487379315700,4.316315673828125,-0.023194413104653356,0.00890705415289849,0.00867951987418346
1783246487389326600,4.32632666015625,-0.014514263042807578,0.002581358262710273,0.005461617273604497
1783246487399338500,4.33633837890625,-0.016606266885995865,-0.0061409139078110455,0.003859780700691044
1783246487409350700,4.3463505859375,-0.02618365804851055,-0.005388232376985252,-0.004538173152599484
1783246487419361500,4.356361572265625,-0.022294833916425703,-0.0035594825798645614,0.006375334585038945
1783246487429373400,4.36637353515625,-0.027084406280517576,0.0039355128180235625,-0.006828247718000784
1783246487439384600,4.376384521484375,-0.01945113492310047,0.0024072072722017765,-0.0038323355713393535
1783246487449396700,4.386396728515625,-0.009424830949306488,0.018099793379381297,-0.00746354994685389
1783246487459408600,4.39640869140625,-0.03561550326049328,0.003469721937179565,-0.0005470576898194849
1783246487469419800,4.406419677734375,-0.013919804280996323,-0.007736914394982159,-0.005704193857824429
1783246487479431700,4.416431640625,-0.022301263657212255,-0.00007427081260830163,-0.012880926219932734
1783246487489443600,4.426443603515625,-0.03246960645020008,0.0008603431563824415,0.006618093832349404
1783246487499454500,4.436454345703125,-0.02573357619345188,-0.003382445512525737,0.004494763269135728
1783246487509466600,4.446466552734375,-0.04084872773885727,-0.0023063041809946298,-0.015422062070108948
1783246487519478500,4.456478515625,-0.024986557218432424,0.0030753523247316478,-0.007795540113886818
1783246487529489400,4.466489501953125,-0.03545709782838821,-0.0062797743892297146,-0.0028538824606221167
1783246487539501600,4.47650146484375,-0.026027006182074545,0.005495017219707369,-0.0067293173881713296
1783246487549513500,4.486513427734375,-0.016599252623319623,0.0029372590282931922,-0.00479255890562199
1783246487559524600,4.496524658203125,-0.021534370937943456,0.0064978375867009155,0.003968684435263276
1783246487569536800,4.506536865234375,-0.021981530183553696,0.011263627216406166,-0.013961624995572491
1783246487579548700,4.516548583984375,-0.020188217025995252,-0.00006298223361372948,-0.008405315175838767
1783246487589559600,4.5265595703125,-0.020485738667845727,-0.0003824965115636587,-0.0025301212658174334
1783246487599571700,4.53657177734375,-0.02063362270593643,0.003040646337531507,-0.006370073888031766
1783246487609583600,4.54658349609375,-0.02392623451054096,0.0000643339404836297,-0.009644154522102325
1783246487619594500,4.556594482421875,-0.03050678194463253,0.004761624911241233,-0.0011878946103155612
1783246487629606400,4.5666064453125,-0.0296060337126255,-0.010232530602999031,-0.006798126574372872
1783246487639617800,4.57661767578125,-0.019133739537000656,0.010006247566454112,-0.0011368037438951432
1783246487649629700,4.586629638671875,-0.014202128353714942,-0.0006361790116876364,0.0014708214712329207
1783246487659641600,4.5966416015625,-0.029464579415321348,0.008335099483840166,-0.011386915669357404
1783246487669652500,4.606652587890625,-0.018982932889461516,-0.001223038988932967,0.009230815347703173
1783246487679664400,4.616664306640625,-0.015990765336155892,-0.0009335910556837916,0.0016830759824253618
1783246487689676500,4.626676513671875,-0.019284546184539793,-0.007624613126926124,-0.007095547751523554
1783246487699687400,4.6366875,-0.016591069316864014,-0.007458864638581871,0.006122738930303603
1783246487709699300,4.64669921875,-0.026612697115540502,0.0032505627611652014,0.000005096300225704908
1783246487719711500,4.65671142578125,-0.026607436418533324,-0.004494425342418253,-0.013502364320214837
1783246487729722600,4.66672265625,-0.02391103694140911,-0.0009663973467424512,-0.004850892363581806
1783246487739734500,4.676734619140625,-0.01687748504281044,-0.004722279281541705,0.008148901862511411
1783246487749746400,4.686746337890625,-0.031092472878098486,-0.0010157529138028621,0.0028200715225655585
1783246487759757600,4.696757568359375,-0.0237590612500906,0.014062866013497113,0.001730732782743871
1783246487769769500,4.70676953125,-0.01403320152759552,0.01006214247215539,0.010813956353301181
1783246487779781400,4.716781494140625,-0.00954758054614067,0.005190444782562554,-0.008196914855856448
1783246487789792500,4.72679248046875,-0.00820084211230278,-0.002595277190208435,-0.006732687522191554
1783246487799804400,4.736804443359375,-0.0249614227771759,-0.003033449411764741,0.0032753684088587757
1783246487809816300,4.74681640625,-0.020025135418772697,0.005245755166374147,0.01184679739922285
1783246487819827200,4.7568271484375,-0.025563480323553083,0.0061763870799914,0.00811750207724981
1783246487829839400,4.76683935546875,-0.022421090644598005,-0.006537658140435815,-0.0017268420589156448
1783246487839850500,4.7768505859375,-0.014342413607239722,0.006956687270104885,-0.0016150979132857173
1783246487849862400,4.7868623046875,-0.020479308927059174,0.00023110534213483333,0.009398070806544274
1783246487859874600,4.79687451171875,-0.015395137530565262,0.009435133147612214,0.0067532188535667954
1783246487869885400,4.806885498046875,-0.022132336831092832,0.003224186210893094,-0.00700290103200823
1783246487879897300,4.8168974609375,-0.016893851655721662,0.002132883842848241,-0.004693473312165588
1783246487889909500,4.826909423828125,-0.013456862944364547,0.003249795576184988,-0.008931960265291854
1783246487899920400,4.83692041015625,-0.012261515679955481,0.0011930822420865297,0.005449104851903394
1783246487909932300,4.846932373046875,-0.03096738519370556,0.005102474238164722,-0.0008218743095174431
1783246487919944400,4.8569443359375,-0.020340777239203453,-0.004220211510919034,-0.007131176187330857
1783246487929955600,4.86695556640625,-0.012413491371273993,-0.007754376986436546,-0.002206150008458644
1783246487939967500,4.876967529296875,-0.008373276069760321,0.011697013664990662,-0.009538474791077896
1783246487949979600,4.886979736328125,-0.017199556604027746,-0.006408588400669396,-0.0177944994230289
1783246487959990500,4.896990478515625,-0.02872340565919876,0.0006571487344801426,-0.0002475450202822685
1783246487970002400,4.90700244140625,-0.013009119176864623,0.0009298281960189342,-0.009649725746363401
1783246487980014300,4.917014404296875,-0.023480244308710096,-0.0036252778250724076,-0.0033549181847833094
1783246487990025500,4.927025390625,-0.02946633298099041,-0.017689714741148055,0.007839287924068048
1783246488000037400,4.937037353515625,-0.003872457519173622,-0.004623129756003618,-0.008013722042366863
1783246488010049300,4.94704931640625,-0.040083588585257526,0.007636340097337961,-0.007517061099223792
1783246488020060400,4.957060302734375,-0.03574468259811401,-0.003596709317713976,0.009749898185208439
1783246488030072600,4.967072509765625,-0.025118074643611907,-0.006618577889539301,0.0017303217907901852
1783246488040083500,4.97708349609375,-0.015990180814266203,-0.008552578159421682,0.00012055763974785805
1783246488050095400,4.987095458984375,-0.029010405907034874,-0.0049017275016754866,-0.011463488036906345
1783246488060107500,4.997107421875,-0.02167933236658573,0.0054226461032405495,0.0004564019979909062
1783246488070118400,5.007118408203125,-0.020485154145956037,0.003352781026624143,-0.0026375636956654487
1783246488080130300,5.01713037109375,-0.01839022769331932,0.009652721421048045,-0.008152920450503006
1783246488090142500,5.027142578125,-0.011508066964149475,0.005927782613784074,0.0011283555759582667
1783246488100153300,5.0371533203125,-0.00926350290775299,0.004440831991657615,0.004462367970030755
1783246488110165200,5.047165283203125,-0.01105856963098049,0.001281345047429204,0.001150512608839199
1783246488120177400,5.057177490234375,-0.024525953969359398,-0.002455978317372501,-0.007837068567518144
1783246488130188500,5.0671884765625,-0.027966449812054633,0.0012653437606990336,0.010444291923847049
1783246488140200400,5.077200439453125,-0.021827216404676435,0.005813252856023609,0.003188557775085792
1783246488150212600,5.087212646484375,-0.017339841857552527,0.006253945828229189,-0.008327491566119715
1783246488160223500,5.097223388671875,-0.010753449204564093,0.0017165581269189714,-0.0032620522695593532
1783246488170235400,5.1072353515625,-0.0339455242216587,0.0077939418118447065,0.0066841539390385145
1783246488180247600,5.11724755859375,-0.00805704972743988,0.0029871625846251844,-0.004533971901517361
1783246488190258400,5.127258544921875,-0.024518939706683156,0.005702705153636634,-0.0009848554520402104
1783246488200270300,5.137270263671875,-0.013891747230291365,0.0004338248400017619,-0.011973026727931574
1783246488210281500,5.147281494140625,-0.024358196187019347,0.0034542321071028706,-0.006801030917512252
1783246488220293600,5.157293701171875,-0.012241057413816451,0.004282499624788761,0.0007564352573361247
1783246488230305500,5.167305419921875,-0.019123802664875983,-0.006647877049259841,-0.006853080765157938
1783246488240316400,5.17731640625,-0.008797638961672783,-0.00653195905201137,-0.005121151539171114
1783246488250328600,5.18732861328125,-0.017322890722751616,-0.007344334880821406,-0.0032972240476403384
1783246488260340500,5.197340576171875,-0.015225041660666464,-0.002458937459439039,-0.014674431173736228
1783246488270351400,5.207351318359375,-0.026447861942648886,-0.013100962178781627,0.0026189320604316888
1783246488280363300,5.21736328125,-0.018069325175881383,-0.0020033757116645575,-0.009034571256395429
1783246488290375400,5.22737548828125,-0.021208207723498344,-0.008209646473266184,-0.0063401719401124865
1783246488300386300,5.23738623046875,-0.024499065962433814,-0.005091368322260677,0.003075745050376281
1783246488310398500,5.2473984375,-0.017761282140016554,-0.009058372257091104,-0.007872322543989866
1783246488320410400,5.257410400390625,-0.015365911436080931,0.0022747399989515543,-0.0005925773319788277
1783246488330421500,5.26742138671875,-0.021653028881549834,-0.01158127833083272,-0.0027882333458866923
1783246488340433400,5.277433349609375,-0.024345336705446242,0.0002130216961726546,-0.001748177107889205
1783246488350445600,5.287445556640625,-0.018958967491984367,0.006653503072448074,-0.0010105561488773674
1783246488360456400,5.29745654296875,-0.019559855994582175,0.0020705957289785144,-0.008595978909730911
1783246488370468400,5.30746826171875,-0.020308044013381002,-0.0009189780084416269,-0.0012591880145482717
1783246488380480500,5.31748046875,-0.020457097095251082,-0.006163016141764819,-0.010225717269722372
1783246488390491400,5.327491455078125,-0.011931260812282561,-0.003397350820712745,0.0019287943718023597
1783246488400503300,5.33750341796875,-0.014626491245627402,-0.0051546793494373555,0.006878626198368146
1783246488410514400,5.347514404296875,-0.031386487388610836,-0.005421002135425805,-0.010243736983602866
1783246488420526600,5.357526611328125,-0.026299393382668495,0.006699278442934155,-0.006388732922729104
1783246488430538500,5.36753857421875,-0.021508651974797247,0.01081741781886667,-0.00633124884814024
1783246488440549400,5.37754931640625,-0.028842648124694822,-0.0026112784769386052,0.005508077630680054
1783246488450561500,5.3875615234375,-0.014772621718049049,-0.00221888162586838,-0.004022076856624335
1783246488460573400,5.397573486328125,-0.02030687496960163,-0.009574687748774886,0.005047501781070604
1783246488470584300,5.407584228515625,-0.02853694317638874,-0.007622275039367377,0.0014782193263992666
1783246488480596500,5.417596435546875,-0.01671148082613945,-0.004548858943395316,-0.0049365887525025754
1783246488490608400,5.4276083984375,-0.021499299624562263,0.011164295027777552,0.0009179642282892018
1783246488500619500,5.43761962890625,-0.025082418808341025,0.003083097239769995,0.009772795003606005
1783246488510631400,5.44763134765625,-0.016700374910235405,-0.004130377802997827,-0.007122691486775874
1783246488520643600,5.4576435546875,-0.022983985224366187,0.00900123524237424,-0.00924091661660932
1783246488530654500,5.467654541015625,-0.012963526469469069,-0.0003191854843869805,-0.002650140049448237
1783246488540666400,5.477666259765625,-0.02972586070001125,-0.017904197742044926,-0.0069148574223741885
1783246488550678500,5.487678466796875,-0.02987842091321945,0.010278452103957534,0.006718412401666865
1783246488560689400,5.497689453125,-0.024047230541706082,-0.0014366817396134137,0.006316507936734706
1783246488570701300,5.507701416015625,-0.016118775629997254,-0.015764920691028236,-0.007599935343395918
1783246488580712200,5.517712158203125,-0.021807927182316778,-0.004935264445096254,-0.0010166479629464447
1783246488590724400,5.527724365234375,-0.023909867897629736,0.015691818922199306,0.004516399712208658
1783246488600736300,5.537736328125,-0.017027122646570206,-0.009751176826842128,-0.00016470730872824788
1783246488610747400,5.547747314453125,-0.028547464570403098,-0.0014001491215080023,-0.0037558545353356745
1783246488620759600,5.557759521484375,-0.023906945288181304,0.0033694399004802105,-0.0011499098206404596
1783246488630771500,5.567771484375,-0.023160510835051534,-0.007377798759005964,-0.008365933013521135
1783246488640782300,5.5777822265625,-0.014333645778894424,-0.01228628479503095,0.00958409489793703
1783246488650794500,5.58779443359375,-0.0147878192871809,-0.0026279738834127783,-0.013048674869118258
1783246488660806000,5.597805908203125,-0.029001053556799886,0.003323299203813076,-0.008837404716480523
1783246488670817000,5.607817138671875,-0.026006547915935516,-0.015574476152844727,0.005195550215942785
1783246488680829000,5.617828857421875,-0.032739655563235284,0.012559256517514586,0.0028330680014565586
1783246488690840800,5.6278408203125,-0.02510755324959755,-0.010189823972433804,-0.005368258168036118
1783246488700852000,5.63785205078125,-0.0170230309933424,-0.013124379586987197,-0.014396801542444155
1783246488710864000,5.64786376953125,-0.02121229937672615,0.013671747804060578,-0.005521010177489369
1783246488720876000,5.6578759765625,-0.023762568381428716,0.016474018808454276,-0.006274440626986324
1783246488730887000,5.667886962890625,-0.026309330254793165,-0.022532807390764353,-0.009284673559945077
1783246488740898800,5.67789892578125,-0.017328151419758797,-0.00791588769108057,-0.001644725866569206
1783246488750910000,5.687909912109375,-0.022712767067551612,0.006278349617123604,-0.0005275401385966688
1783246488760921900,5.697921875,-0.018668460112810134,-0.011299867573566734,-0.010369345257803798
1783246488770933800,5.707933837890625,-0.02959258970916271,-0.013989873842522501,0.007704263367550447
1783246488780945000,5.71794482421875,-0.014485621470212935,0.007950228352099657,-0.008265650976821779
1783246488790957000,5.72795703125,-0.02451543257534504,-0.011585150788351893,-0.00231211286727339
1783246488800969000,5.737968994140625,-0.020328502279520034,-0.009147219584323464,0.007398540152935311
1783246488810979800,5.747979736328125,-0.02542202602624893,0.01655216207858175,0.008893007361236958
1783246488820992000,5.757991943359375,-0.026023499050736427,-0.0021003332801163197,-0.0009519760957453399
1783246488831004000,5.76800390625,-0.02706979323327541,0.0016067045442759989,-0.002356134672090411
1783246488841014800,5.778014892578125,-0.020188217025995252,0.0028405206555500626,0.0038000042043160646
1783246488851027000,5.78802685546875,-0.04173837005496025,0.00020162351932376623,-0.010844132295856252
1783246488861038800,5.798038818359375,-0.021680501410365104,-0.006674253599531948,0.001488265796378255
1783246488871050000,5.808050048828125,-0.014949731850624084,0.01398757228758186,-0.007475432180892676
1783246488881062100,5.818062255859375,-0.03350362567305565,0.008568689044006168,-0.006483827327657491
1783246488891074000,5.828073974609375,-0.018092706051468847,0.004692066806368529,-0.007285444300435483
1783246488901085000,5.8380849609375,-0.01764379324018955,-0.009955101901106536,-0.001992132798442617
1783246488911097000,5.84809716796875,-0.01450198808312416,0.0051825537370517845,-0.00283564355103299
1783246488921108000,5.85810791015625,-0.0145002345174551,-0.0044277898469939824,0.0010559296605642885
1783246488931119900,5.868119873046875,-0.016743045008182526,0.00916541282813996,-0.00356845133760944
1783246488941131800,5.8781318359375,-0.013001520392298698,-0.0048852147582918405,-0.010511018750816583
1783246488951143000,5.888142822265625,-0.01748831041753292,-0.011220884053222835,0.014758876320486888
1783246488961154800,5.89815478515625,-0.027808628901839254,0.0003738017484545707,0.0020868253445718438
1783246488971167000,5.9081669921875,-0.018379121777415273,0.0013767317133024334,-0.004817629414796829
1783246488981178000,5.91817822265625,-0.0038660277783870694,0.0042336555143818256,-0.002175946666439995
1783246488991190000,5.92818994140625,-0.012992168042063712,-0.0025181933660060165,-0.004546246861200779
1783246489001202000,5.938201904296875,-0.018524667727947235,0.006083521164767444,0.0005571224261075257
1783246489011212800,5.948212890625,-0.01238660336434841,0.0043831104550510645,0.006983465679176151
1783246489021225000,5.958224853515625,-0.02570435009896755,0.005578238523751497,-0.00904020641273819
1783246489031236900,5.96823681640625,-0.016126958936452863,0.011546426213160156,0.0011139160586521029
1783246489041247700,5.978247802734375,-0.025705519142746925,0.0020050196794793008,0.002929386249091476
1783246489051260000,5.988260009765625,-0.009548165068030356,0.001780965132638812,0.0037192305856849996
1783246489061271800,5.998271728515625,-0.02272328846156597,-0.0003143997114151716,-0.005949108529603109
1783246489071283000,6.008282958984375,-0.01644610788822174,0.004005253585986793,-0.003437436235928908
1783246489081295000,6.018295166015625,-0.01719604947268963,0.004464943519607186,0.012508403113111853
1783246489091306000,6.028305908203125,-0.014804185900092123,-0.008693265271745621,-0.000033390812948346136
1783246489101318000,6.03831787109375,-0.023929741641879082,-0.012474245115183294,0.003408484136080369
1783246489111330000,6.048330078125,-0.023627543824911116,-0.010710121519491076,-0.005797909156419336
1783246489121341000,6.0583408203125,-0.01958674400150776,-0.006398870724253356,0.005091642316896468
1783246489131352800,6.068352783203125,-0.027217677271366116,-0.005203231198899447,0.004959129377873614
1783246489141365000,6.078364990234375,-0.021832477101683616,-0.015336941069923341,-0.0030900567035190758
1783246489151376100,6.088376220703125,-0.01973696612715721,-0.007691139024496078,-0.010636553959781303
1783246489161388000,6.098387939453125,-0.025721885755658147,0.005041610896401107,0.0066884921874385325
1783246489171400000,6.10839990234375,-0.03185527394413948,-0.00605122633036226,0.002237357997475192
1783246489181411000,6.1184111328125,-0.021681670454144476,-0.006321969563141465,0.0031045692860614507
