time,seconds_elapsed,z,y,x
1783246425629935000,0.06093505859375,0.012311784562468528,-0.018555683920718727,0.045135474280500784
1783246425639946000,0.070946044921875,-0.029440029495954513,0.0027492621755227445,-0.019005224636371713
1783246425649958000,0.0809580078125,-0.02270984445810318,0.011060871185921133,-0.037797409310261716
1783246425659969000,0.090968994140625,-0.024954408514499662,-0.004941767251119018,0.03207338052409468
1783246425669981000,0.10098095703125,-0.013284428986907005,0.016047975416108966,0.03573329583770828
1783246425679992800,0.110992919921875,-0.030346622946858404,0.01718107109926641,-0.011581762388022616
1783246425690004200,0.121004150390625,-0.012839023306965828,0.0056465910522267215,-0.015386999889882281
1783246425700016000,0.13101611328125,-0.02914893759489059,-0.01157068387158215,0.030507151837390847
1783246425710027000,0.141027099609375,-0.004166472029685974,0.014948453208990395,0.017669809030857866
1783246425720039000,0.151038818359375,-0.022874679630994797,0.005744644599221646,-0.021189870632498057
1783246425730050000,0.161050048828125,-0.024072364982962606,-0.013094057513959706,-0.007800019926181994
1783246425740062000,0.17106201171875,-0.013894669839739799,0.024855880043469367,0.015428119634848553
1783246425750073900,0.181073974609375,-0.004167056551575661,0.005973557984270155,0.008786167719587684
1783246425760085000,0.1910849609375,-0.015536007305979729,-0.009822707693092524,-0.013585708921845071
1783246425770097000,0.201096923828125,-0.037682957184314726,0.0009576295183971523,-0.005156037906173151
1783246425780108000,0.21110791015625,-0.009248889860510826,0.011209303213283419,0.033411805504024956
1783246425790120200,0.2211201171875,-0.022564883029460907,-0.009168225839734078,0.016117375974066088
1783246425800132000,0.231132080078125,-0.01837444560229778,-0.003509104099497199,-0.013181210641027428
1783246425810143000,0.24114306640625,-0.0073036010116338725,0.024220614347234368,-0.003478439533174969
1783246425820155000,0.25115478515625,-0.016881576696038247,-0.001775996696576476,0.012791544603160582
1783246425830166000,0.261166015625,-0.021975100442767143,0.007356098383851349,-0.0009395961047848686
1783246425840178000,0.271177978515625,-0.029312603724002836,0.005528809891454875,-0.015467625094752292
1783246425850189000,0.28118896484375,-0.019138415712118148,-0.00013012918569147585,-0.0030697263015434144
1783246425860201200,0.291201171875,-0.026466566643118857,-0.004717456975951791,0.022380952713743317
1783246425870213000,0.301213134765625,-0.014796587115526198,0.011036905788443982,0.009222896902728825
1783246425880224000,0.31122412109375,-0.02871171522140503,0.01564220762681216,-0.0005720711167785338
1783246425890236000,0.32123583984375,-0.020478724405169485,-0.007021240406297147,0.0076699615224380974
1783246425900247000,0.3312470703125,-0.02002981159389019,0.006149024149030446,0.012462974802497773
1783246425910259000,0.341259033203125,-0.017933716097474097,0.015692220780998467,-0.0033940811513923108
1783246425920270000,0.35127001953125,-0.027808628901839254,-0.0004974646607413888,-0.016235992818477096
1783246425930282200,0.3612822265625,-0.03394260161221027,-0.0018723697431385516,-0.00125099100836087
1783246425940294100,0.371294189453125,-0.025265958681702613,0.006860021962597966,0.008303555851394777
1783246425950305000,0.381304931640625,-0.009851531928777694,-0.014277823938429355,0.005591456481639761
1783246425960317000,0.39131689453125,-0.012242810979485512,0.00329969913251698,-0.003293050196021795
1783246425970328000,0.401328125,-0.0284036721855402,0.024543124299868938,0.01581381960036233
1783246425980340000,0.411340087890625,-0.0074549921810626975,0.0031613501077517865,0.005795013946434483
1783246425990352000,0.421351806640625,-0.022867665368318555,0.000018156711198389528,-0.004448101982660591
1783246426000363000,0.431363037109375,-0.023466800305247306,0.005859174356982111,-0.013134884997981135
1783246426010375000,0.441375,-0.02152034241259098,0.0061306847747415304,0.008456015599903185
1783246426020386000,0.451385986328125,-0.005659340935945511,-0.0038777547487989067,0.0023584316604537887
1783246426030398000,0.46139794921875,-0.032896307429671284,0.0027875483592972156,-0.008314342106890398
1783246426040409000,0.4714091796875,-0.028557985964417457,0.007747289658524096,0.009804927724518346
1783246426050421000,0.4814208984375,-0.02242342873215675,-0.013625497509539126,0.021511469552968628
1783246426060433000,0.491432861328125,-0.031102994272112845,-0.0031312472304329273,-0.0005431007506209425
1783246426070444000,0.501444091796875,-0.02047989344894886,0.009164901371486485,-0.0024805761858006006
1783246426080456000,0.5114560546875,-0.022273791128396985,0.01989445824380964,-0.004164302905485965
1783246426090467000,0.521467041015625,-0.010152560701966285,-0.003617240649089217,0.008087453998858109
1783246426100479200,0.531479248046875,-0.014793079984188079,0.002103548150509596,-0.0021500016577192583
1783246426110491100,0.5414912109375,-0.022874095109105107,0.016500030032545326,0.00015203049024567006
1783246426120502000,0.551501953125,-0.018834464329481125,-0.00025912586022168395,0.012358212953503244
1783246426130514000,0.561513916015625,-0.017639701586961744,0.0129752169072628,0.011791916273673996
1783246426140525000,0.571525146484375,-0.00851239227950573,0.004449234493821859,-0.0001865675140870735
1783246426150537000,0.581536865234375,-0.017487725895643232,-0.007585669356025755,0.0028140550570213236
1783246426160548000,0.591548095703125,-0.023472645524144173,-0.0032592940568923947,-0.0005149637848138809
1783246426170560000,0.60156005859375,-0.010156067833304404,0.006483516800403595,0.003266041174798738
1783246426180572200,0.611572265625,-0.014792495462298392,0.012256364580802618,0.0025461727848974988
1783246426190583000,0.6215830078125,-0.02646247498989105,0.001290660865046084,0.0013556683756760321
1783246426200595000,0.631594970703125,-0.02661152807176113,0.0012847060482949018,0.014892304858251009
1783246426210606000,0.641606201171875,-0.018081600135564802,0.002316350650973618,0.0007178294131532312
1783246426220618000,0.651617919921875,-0.01568915204107761,0.0011744140742346643,0.0022515532028977757
1783246426230628900,0.66162890625,-0.0251227508187294,0.016445998290367424,-0.006237309787259436
1783246426240641000,0.67164111328125,-0.02197919209599495,0.0025020459488034248,-0.002138772444229107
1783246426250653000,0.68165283203125,-0.01314998895227909,0.0002493351185694337,0.001691492184321396
1783246426260664000,0.6916640625,-0.017042904737591742,0.004355126469582319,0.0058152941160602495
1783246426270676000,0.701676025390625,-0.021086042648553845,0.005768135072663426,5.251563852652907e-7
1783246426280687000,0.71168701171875,-0.014354104045033454,-0.004217435031943023,0.005492533001676202
1783246426290699000,0.721698974609375,-0.02632686591148376,0.009444923889264463,0.012344542904465924
1783246426300711000,0.7317109375,-0.019145429974794386,0.006935973275639116,0.011170037498685996
1783246426310722000,0.74172216796875,-0.01869476359784603,0.008232698555290699,0.003091401560523081
1783246426320734000,0.75173388671875,-0.0324643457531929,0.005756225439161062,0.005859448351617902
1783246426330745000,0.7617451171875,-0.022442133432626722,0.007625782170705497,-0.005626463862939272
1783246426340757000,0.771757080078125,-0.01436170282959938,-0.0020994199646636844,-0.010322314078570344
1783246426350768000,0.78176806640625,-0.011068506503105162,0.0002713277546688914,0.00299034777226625
1783246426360780000,0.791780029296875,-0.011820786175131798,0.005907287815026939,0.009252673269773368
1783246426370792000,0.8017919921875,-0.017210077998042105,0.01792739595454186,-0.006467880839854478
1783246426380803000,0.811802978515625,-0.016910802790522574,-0.000022357962280511855,0.006835472043231129
1783246426390815000,0.82181494140625,-0.022147534400224683,0.0020616087049245835,0.0005761353705427609
1783246426400825900,0.831825927734375,-0.014218494966626166,0.007190496025979518,0.0014568180620553903
1783246426410838000,0.841838134765625,-0.024396190109848975,0.00979432184882462,0.016156589173024986
1783246426420850000,0.851849853515625,-0.010330255356431006,-0.0075670742534101,0.011662515457055997
1783246426430861000,0.861861083984375,-0.0284340673238039,0.005840286993421614,0.0007675297567970119
1783246426440873000,0.871873046875,-0.013473814079165458,0.004291815442405641,0.010085500514856538
1783246426450884000,0.881884033203125,-0.016617957323789595,-0.004948416187614203,-0.004031668952165637
1783246426460896000,0.89189599609375,-0.016022329518198965,0.004251556497253477,-0.005440629284502938
1783246426470907000,0.901906982421875,-0.01318272217810154,0.004628792311809957,0.002461522142169997
1783246426480919000,0.9119189453125,-0.012729717713594435,0.0033319574343040584,-0.0011782682654447852
1783246426490931000,0.921930908203125,-0.02051028858721256,0.00017331074029207228,-0.006576679543149657
1783246426500942000,0.931942138671875,-0.004053074783086776,0.01520454686190933,0.010417250936583149
1783246426510954000,0.9419541015625,-0.02320727258622646,0.008032171014510094,0.00012055992303648963
1783246426520965000,0.951965087890625,-0.016624387064576147,0.003720043436437845,0.002207535964658018
1783246426530977000,0.96197705078125,-0.014230185404419898,0.01150331772379577,-0.003354160132957622
1783246426540989000,0.971989013671875,-0.011987374913692474,-0.0007233458384871482,0.006463492359104566
1783246426551000000,0.982,-0.0172235220015049,0.01704166262857616,-0.007510407596151344
1783246426561012000,0.992011962890625,-0.0070446578145027154,0.013209354456700384,-0.003042226373264566
1783246426571023000,1.002023193359375,-0.024399697241187093,0.003716938163898885,0.007400232069811318
1783246426581035000,1.012034912109375,-0.02724281171262264,0.007302395435236394,0.006660873528150841
1783246426591046100,1.022046142578125,-0.02290624381303787,-0.0004050371369346976,0.011140806837624403
1783246426601058000,1.03205810546875,-0.011239186894893645,0.008236644078046083,-0.004033105140714906
1783246426611070000,1.042070068359375,-0.026954057899117468,-0.00366188350841403,-0.005394486304547172
1783246426621081000,1.0520810546875,-0.018724574214220045,0.002335712938569486,-0.006119519493333064
1783246426631093000,1.062093017578125,-0.029494390031695364,0.007169891629368067,-0.00911523756046081
1783246426641104000,1.072103759765625,-0.021864041283726692,0.007209602585248649,0.007350333080056589
1783246426651115800,1.08211572265625,-0.015281740283966063,0.004257255585677922,0.00712554559756536
1783246426661127200,1.092127197265625,-0.008847323322296142,-0.014888101323880255,0.0016152851429535075
1783246426671139000,1.10213916015625,-0.019473931276798247,-0.004504435279779136,0.005090578304394148
1783246426681151000,1.11215087890625,-0.011245032113790512,0.003309672537259757,0.01653851942900801
1783246426691162000,1.122162109375,-0.03189385238885879,0.010018303330428897,0.014582186313020065
1783246426701174000,1.132174072265625,-0.021571195816993714,0.007373341779597103,0.007219847701338585
1783246426711185000,1.142184814453125,-0.01992342860996723,-0.01255293637458235,0.011139841006533242
1783246426721197000,1.152197021484375,-0.008400164076685906,-0.003738857734762132,0.015458816167211625
1783246426731209000,1.162208984375,-0.03144844670891762,0.00832377437222749,0.002731815567088779
1783246426741220000,1.17222021484375,-0.006612111616134643,-0.0004193944558501243,0.0027823036453104577
1783246426751232000,1.18223193359375,-0.010955109256505965,0.005797288101911545,0.0014267174680251628
1783246426761243100,1.1922431640625,-0.021878654330968854,0.011648973272182046,0.01780635882418137
1783246426771255000,1.202255126953125,-0.015889058527350425,0.007794380203261971,-0.00846482224415522
1783246426781266000,1.212265869140625,-0.016191256344318387,0.005911160272546112,-0.006056493877235334
1783246426791278000,1.222278076171875,-0.013501286607980728,0.014375110300444065,-0.0006221139537170529
1783246426801290000,1.2322900390625,-0.025624855121970175,0.009809738613665103,0.0007915956189739517
1783246426811301000,1.242301025390625,-0.021733108380436895,-0.004589410149492323,0.007040961170208174
1783246426821313000,1.25231298828125,-0.02038753899037838,0.010403466723114251,-0.00852511704704957
1783246426831324200,1.26232421875,-0.03161561996936798,0.01338438223004341,0.0004969098216039129
1783246426841336000,1.272336181640625,-0.009768529820442198,0.004106229742430151,0.0180541253234609
1783246426851348000,1.282347900390625,-0.016352584385871886,0.0032169527525082228,-0.005132472084206529
1783246426861359000,1.292359130859375,-0.02248714161813259,0.007384301565028726,0.003030892128497362
1783246426871371000,1.30237109375,-0.02173895359933376,0.0003615998540073633,0.005828582855896092
1783246426881382000,1.3123818359375,-0.02188449954986572,0.0038613150706514714,0.009702613560936879
1783246426891393800,1.322393798828125,-0.019936872613430023,-0.0038343539984896776,-0.006488583417877089
1783246426901405200,1.3324052734375,-0.0170925890982151,0.0049671939533203835,0.0019652493580942973
1783246426911417000,1.3424169921875,-0.004374561822414398,0.0003638283437117934,0.00490604520047782
1783246426921429000,1.352428955078125,-0.02053308494091034,0.009736856040544807,0.009570561846217606
1783246426931440000,1.362440185546875,-0.028913959795236584,0.00856445126030594,-0.008876186373888048
1783246426941452000,1.3724521484375,-0.019040800556540487,0.0008531827632337808,-0.004374628037784714
1783246426951463000,1.382462890625,-0.01544832902252674,0.005022139010950923,0.009847543023538309
1783246426961474800,1.392474853515625,-0.033709377378225325,0.01562905588429421,0.0043003640750423075
1783246426971486200,1.402486328125,-0.021888591203093527,-0.004407295048236846,0.0029791436749510465
1783246426981498000,1.412498046875,-0.024282792863249778,0.0044167935289442534,-0.0029597151719848625
1783246426991510000,1.422510009765625,-0.024428338813781737,0.005227671520411968,0.0013512136795558035
1783246427001521200,1.432521240234375,-0.011860533663630485,0.010806531098671256,-0.0029454971336759627
1783246427011533000,1.442532958984375,-0.023830957442522047,0.004070902700722218,-0.00545019169729203
1783246427021544000,1.4525439453125,-0.023832711008191107,0.007113594864867627,0.005074213974771555
1783246427031555800,1.462555908203125,-0.016352584385871886,-0.0018274346228688955,0.011077753822063096
1783246427041568000,1.472568115234375,-0.005578676915168762,-0.007814509675838053,0.013787590452784207
1783246427051579000,1.482578857421875,-0.009766191732883452,0.01531790757589042,0.007036680004023946
1783246427061590800,1.4925908203125,-0.009463993915915488,0.004923793203011155,0.006589020718203392
1783246427071602200,1.502602294921875,-0.012905658802390097,-0.001205284136533737,-0.00047587388344109055
1783246427081614000,1.512614013671875,-0.0269745161652565,-0.0014384353052824734,-0.00357180092203198
1783246427091625000,1.522625,-0.028020225825905798,0.0055607028670608995,0.004405600848072208
1783246427101637000,1.53263720703125,-0.007519289588928222,0.006899404124915599,0.013272697449917905
1783246427111649000,1.54264892578125,-0.022181436669826506,0.0002534633044153452,0.009734730298828799
1783246427121660000,1.552659912109375,-0.016194763475656508,0.016835399466753005,-0.0016811237706453538
1783246427131671800,1.562671875,-0.01723988861441612,0.0004696633383631706,0.0065617605352308594
1783246427141683200,1.57268310546875,-0.01364975516796112,0.002736694954894483,0.004619305247545708
1783246427151695000,1.582695068359375,-0.026073767933249472,0.009874620543420315,0.0035627316995873112
1783246427161707000,1.59270703125,-0.015298106896877288,-0.0013901391841471195,-0.00640656769023044
1783246427171718100,1.60271826171875,-0.0025783260554075238,-0.008572305773198605,-0.00633564874533331
1783246427181730000,1.61272998046875,-0.014998831689357757,0.024952801079303026,0.0018103738902136683
1783246427191741000,1.622740966796875,-0.01859188774526119,0.019014387473650276,0.007541971778194419
1783246427201752800,1.6327529296875,-0.010660510224103926,-0.012424231960996984,-0.008949427423323504
1783246427211764200,1.64276416015625,-0.019938041657209395,0.00643346711359918,0.006036446603049989
1783246427221776100,1.652776123046875,-0.029964930152893064,0.008705759427137673,0.007313300421740859
1783246427231788000,1.6627880859375,-0.014849778607487677,-0.0036028102649375794,0.002973866994923446
1783246427241799200,1.672799072265625,-0.009912322205305099,0.0038955826664343472,0.0011990279256831853
1783246427251811000,1.68281103515625,-0.013799392771720886,0.007703596647270023,0.008297913845186121
1783246427261822000,1.692822021484375,-0.01768821690380573,0.0013669044390320778,0.017489657557825555
1783246427271833900,1.702833740234375,-0.0031692776858806607,0.009800020937249064,-0.007746974564692937
1783246427281845000,1.712844970703125,-0.0057137014716863626,0.005171447821147739,0.0014643072487669996
1783246427291857000,1.72285693359375,-0.009156535401940346,-0.0003194777453318238,0.010069186417583842
1783246427301868800,1.732868896484375,-0.01738543456494808,-0.0036451150367036458,0.0000480129933450371
1783246427311880200,1.742880126953125,-0.015440145716071128,0.00982307301927358,-0.0059945299903512925
1783246427321892000,1.75289208984375,-0.01963116766512394,0.0014709858680143951,0.006125698072370142
1783246427331903000,1.762903076171875,-0.02007891143262386,0.003380399685911834,0.020759594023029786
1783246427341915000,1.772914794921875,-0.023220132067799566,-0.012967362394370139,-0.008318764836969784
1783246427351927000,1.782927001953125,-0.022474282136559484,-0.005573379685543477,-0.004571824260451831
1783246427361938000,1.79293798828125,-0.01724047313630581,0.0023022855930030345,0.010409937563096173
1783246427371949800,1.80294970703125,-0.0147007255256176,-0.0032854148788377642,0.0013772454532445407
1783246427381961200,1.812961181640625,-0.021885084071755406,0.0036467590045183894,-0.006843504652637057
1783246427391973000,1.82297314453125,-0.028917466926574705,-0.004897416652739048,-0.004738342217064928
1783246427401984000,1.83298388671875,-0.013058803537487984,-0.0034774303195998072,0.005413707028247882
1783246427411996200,1.84299609375,-0.017699907341599465,0.014238551373966037,0.010632704335148445
1783246427422008000,1.853008056640625,-0.021591069561243056,0.01440429986231029,0.013081789404142181
1783246427432019000,1.86301904296875,-0.016655366724729538,-0.0003603942776098847,0.009880865337827708
1783246427442030800,1.87303076171875,-0.012317629781365394,0.0026916502367705106,0.002612365322327241
1783246427452042000,1.8830419921875,-0.013966566032171248,0.0030651962568983434,0.015866746230842544
1783246427462054000,1.893053955078125,-0.02399287000596523,0.002632394330203533,0.0009154160781763494
1783246427472066000,1.903066162109375,-0.021298808616399763,0.0074137833878397934,0.0013963839785545132
1783246427482077200,1.9130771484375,-0.012469605472683906,0.007248217562586068,0.008586398230632767
1783246427492089000,1.923089111328125,-0.024139000478386876,-0.00014700725525617598,-0.00034554833492729813
1783246427502100000,1.933099853515625,-0.02189151381254196,-0.0048557694680988785,-0.008719294762145727
1783246427512111900,1.94311181640625,-0.0226391173094511,0.017875373506359756,0.0004260274093248881
1783246427522123000,1.953123046875,-0.021743629774451254,-0.001966587365232408,0.0012208675814443268
1783246427532135000,1.963135009765625,-0.02922492544054985,-0.00571523584164679,0.009504611337382812
1783246427542146800,1.973146728515625,-0.030422026270627973,0.01165142095759511,-0.004107958191924262
1783246427552158200,1.983158203125,-0.017703414472937582,0.0013250015260651707,0.003796645486738998
1783246427562170000,1.993170166015625,-0.02937573208808899,0.00374492214936763,0.01638213242405327
1783246427572181000,2.003180908203125,-0.011420973202586173,0.006329385684616863,0.011328780857508537
1783246427582193000,2.01319287109375,-0.016960487151145932,0.009697912269644438,-0.0034856638584053142
1783246427592205000,2.023205078125,-0.025640052691102026,-0.006296762056648731,-0.005254607476398814
1783246427602219800,2.0332197265625,-0.022197218760848045,0.008041779093071818,-0.00026538663764949885
1783246427612232000,2.04323193359375,-0.005735328781604767,0.008603212368115782,0.00038672287882072847
1783246427622242800,2.053242919921875,-0.014114450070261955,-0.0023390374068170783,0.009515461524960118
1783246427632254700,2.063254638671875,-0.009326046749949454,0.0031999285524711013,-0.0026780167203512974
1783246427642266000,2.07326611328125,-0.016511574339866636,0.005674794233404099,-0.005267430425353814
1783246427652278000,2.083278076171875,-0.01636193673610687,0.006424699285253882,-0.0012684284836403093
1783246427662290000,2.0932900390625,-0.013962474378943442,0.004193579232320189,0.005898935545212589
1783246427672300800,2.10330078125,-0.01710369501411915,0.01314100192822516,0.00020834552105516193
1783246427682313000,2.11331298828125,-0.02114391031563282,0.013149952419660984,0.003791405339329503
1783246427692323800,2.12332373046875,-0.019496143108606336,0.0071200246056541796,0.006077084574114997
1783246427702335700,2.133335693359375,-0.02129062530994415,0.007693477112054824,-0.004378326965367887
1783246427712348000,2.143347900390625,-0.0196457807123661,0.005180471377819776,0.0059863375507411545
1783246427722359000,2.153359130859375,-0.019496727630496025,0.0019029840771108864,-0.0075546371802338395
1783246427732371000,2.163370849609375,-0.01859890200793743,-0.002283873153477907,-0.008057033744419458
1783246427742381800,2.1733818359375,-0.006327449455857276,-0.0050107408341020345,0.011394509887346065
1783246427752394000,2.18339404296875,-0.020689736807346343,0.0061432519953697915,0.0037003888878971336
1783246427762404900,2.19340478515625,-0.014104513198137282,-0.0006226619429886341,-0.001227203707396984
1783246427772416800,2.203416748046875,-0.008864274457097053,-0.0029451500738039613,0.0031252033654251134
1783246427782429000,2.213428955078125,-0.004072364005446433,0.006995667573623359,0.004787405523180495
1783246427792440000,2.223440185546875,-0.01993570356965065,-0.00208440505862236,0.0028457653695368205
1783246427802452000,2.233451904296875,-0.019488544324040413,-0.0011309402586892248,0.004720082757878117
1783246427812462800,2.243462890625,-0.012609306204319,0.022606055290065704,-0.0013327989567420444
1783246427822475000,2.25347509765625,-0.024282792863249778,-0.011779175523109734,-0.005146923017955851
1783246427832486000,2.26348583984375,-0.036704467540979384,-0.0033491277648136017,0.0003743931202101521
1783246427842497800,2.273497802734375,-0.02428396190702915,0.016384513894096016,0.003030095260764938
1783246427852510000,2.283510009765625,-0.025181787529587746,0.0011212591148912906,-0.004120603044365998
1783246427862520800,2.293520751953125,-0.008869535154104232,0.0013807503012940286,0.00006207120144972578
1783246427872532700,2.30353271484375,-0.028621114328503606,0.0024130524910986424,-0.0008349849528400227
1783246427882544000,2.313544189453125,-0.026679332610964772,0.016710932836867868,0.0041508817349094895
1783246427892556000,2.32355615234375,-0.026078444108366964,-0.008035714678466319,0.0015934660367900504
1783246427902568000,2.33356787109375,-0.031017069554328917,0.003946947527490556,0.011135406860010699
1783246427912578800,2.343578857421875,-0.010814824002981185,0.010055895394459367,0.011790722113719674
1783246427922591000,2.353591064453125,-0.02802373295724392,0.01262665919791907,0.011407851142820436
1783246427932601900,2.363601806640625,-0.019794249272346496,0.006345204308256506,0.004381334056495689
1783246427942613800,2.37361376953125,-0.02338555176258087,-0.004564860230125487,-0.002916200257244054
1783246427952625200,2.383625244140625,-0.01455868670642376,0.01403637986537069,-0.004973708175786305
1783246427962637000,2.393636962890625,-0.015604980888962745,0.003384381741285324,0.00567482391615631
1783246427972649000,2.40364892578125,-0.014260580542683601,0.015559936170838772,0.005200947910267859
1783246427982659800,2.413659912109375,-0.018004443246126173,0.0036499373422935605,-0.0032050225694081743
1783246427992672000,2.423672119140625,-0.023540450063347814,0.004834726680070162,0.008344442700920626
1783246428002683000,2.433682861328125,-0.023689503145217894,0.01694770073480904,0.003744910732924472
1783246428012694800,2.44369482421875,-0.021743045252561568,0.013184439211152494,0.004951293131290003
1783246428022707000,2.45370703125,-0.02607902863025665,0.002170402841642499,-0.0016499226314947008
1783246428032717800,2.4637177734375,-0.024132570737600324,0.009920286316052079,0.00792603690904798
1783246428042729700,2.473729736328125,-0.023684242448210716,0.01382054515760392,0.008207246736914385
1783246428052740900,2.483740966796875,-0.019939795222878455,0.005052826410159469,0.001440638678811956
1783246428062753000,2.4937529296875,-0.014555179575085639,-0.0004245455550029874,0.0022807473313412627
1783246428072764000,2.503763916015625,-0.024880174234509465,0.006599982786923647,0.010650918128562625
1783246428082775800,2.51377587890625,-0.01620002417266369,0.004484561535529792,0.013039386450964956
1783246428092788000,2.5237880859375,-0.02278524778187275,-0.005960588904842734,0.0024294510700507087
1783246428102798800,2.533798828125,-0.036406361377239224,0.011942878184840083,0.0019531867442536166
1783246428112810800,2.543810791015625,-0.010819500178098677,0.015263583572767674,0.005343833829544019
1783246428122822000,2.55382177734375,-0.023538696497678754,-0.002398731704801321,-0.0029686451138230038
1783246428132834000,2.563833984375,-0.030125089150667188,0.0031855712335556743,0.0055383403382031245
1783246428142846000,2.573845947265625,-0.017853636598587037,0.009446056400425732,0.00467388041241793
1783246428152856800,2.58385693359375,-0.023988778352737425,-0.00012826602216809988,0.007920600398816167
1783246428162869000,2.593868896484375,-0.03117196785509586,0.006930895241722464,-0.005113219394464977
1783246428172880000,2.6038798828125,-0.026083704805374145,0.015734269824437794,0.0020582910865428856
1783246428182891800,2.613891845703125,-0.014859715479612349,0.006133972710371017,0.006735502817074302
1783246428192903200,2.623903076171875,-0.009022679889202117,0.007010645947046578,0.004678029147861525
1783246428202915000,2.6339150390625,-0.014711831441521644,-0.003103701636381447,0.006244504429737572
1783246428212927000,2.643927001953125,-0.028930910930037496,-0.006009140754304826,0.008136613203096202
1783246428222937900,2.653937744140625,-0.023845570489764212,0.007367971484735608,0.01092354507446289
1783246428232950000,2.663949951171875,-0.019358195942640304,0.003953779127076268,0.0014276741659617982
1783246428242961000,2.6739609375,-0.01591711557805538,0.007416559866815805,0.003697758539393544
1783246428252972800,2.683972900390625,-0.011429156509041785,0.0038454233817756174,0.013973762957938014
1783246428262985000,2.69398486328125,-0.03253098124861717,0.0031679259790107607,0.0006457528409198858
1783246428272995800,2.703995849609375,-0.013376783445477484,0.013778934505581856,-0.007492403865291271
1783246428283007700,2.7140078125,-0.022354455149173735,0.0016414835967123508,0.012972084235260263
1783246428293019000,2.724018798828125,-0.02325578790307045,0.008456058982387184,0.007569254794053268
1783246428303031000,2.734031005859375,0.004731120175123215,0.010135828762874007,0.011859812144422903
1783246428313042000,2.7440419921875,-0.029084640187025067,0.00887633022107184,0.004659173750341869
1783246428323053800,2.7540537109375,-0.044344753161072725,0.007309628893621266,0.009522631051263306
1783246428333066000,2.76406591796875,-0.022945406779646873,0.006984050201065838,-0.006479306416166946
1783246428343076900,2.774076904296875,-0.010074234768748283,0.0010880509650334714,0.002819130807649344
1783246428353088800,2.7840888671875,-0.025186463704705238,0.013328121998161076,0.0008611377408262341
1783246428363100000,2.794099853515625,-0.024738719937205313,0.007820099166408181,0.0044423343955771995
1783246428373112000,2.804112060546875,-0.018155834415555,0.010689005666226149,0.007270812986884266
1783246428383124000,2.8141240234375,-0.01650748268663883,-0.0009002002427354454,0.005724218299123458
1783246428393134800,2.824134765625,-0.015907178705930707,0.003253704566322267,0.006290106270287651
1783246428403147000,2.83414697265625,-0.01874970865547657,0.0020334785889834163,0.010633275157306343
1783246428413158000,2.844157958984375,-0.0064794251471757885,0.011624679081141948,0.009947592164797242
1783246428423169800,2.854169677734375,-0.02263619470000267,0.001788600449822843,0.007589459615154191
1783246428433181000,2.864180908203125,-0.016796236500144005,-0.0015960004871711133,0.004046734090556856
1783246428443192800,2.87419287109375,-0.009613046997785568,0.011556180422194301,-0.0026427924266317856
1783246428453205000,2.884205078125,-0.01888824034333229,0.0007304696990177035,0.0016925767464214003
1783246428463215900,2.8942158203125,-0.018587796092033385,0.0002447685413062572,-0.005972493971767835
1783246428473228000,2.90422802734375,-0.020379940205812453,-0.0014866583611816166,0.005518498559994623
1783246428483239000,2.914239013671875,-0.013346972829103469,0.007931304455921053,0.005354154294158797
1783246428493250800,2.924250732421875,-0.017684125250577925,0.007120243801362812,-0.0029744903327198697
1783246428503263000,2.934262939453125,-0.011100655207037924,-0.010386734784021972,0.00882604307224974
1783246428513273900,2.94427392578125,-0.009302081352472305,-0.0041732305640354754,-0.0038156036322470753
1783246428523285800,2.95428564453125,-0.03309095321893692,-0.008461940733902155,0.00035812697199871763
1783246428533297000,2.964296875,-0.02381166822016239,-0.006859473973326384,0.0013949866059119811
1783246428543309000,2.97430908203125,-0.016027590215206146,-0.002129047917947173,0.010873072979261633
1783246428553320000,2.98431982421875,-0.021416882038116453,0.01678838198725134,0.009169196237402501
1783246428563331800,2.994331787109375,-0.01722936722040176,0.007708199757151305,0.003898352295544464
1783246428573344000,3.004343994140625,-0.022470190483331678,0.01033007269334048,0.0014413076823810115
1783246428583355000,3.01435498046875,-0.016630232283473014,0.0034852848324924707,0.013997159816545899
1783246428593366800,3.02436669921875,-0.028748540100455282,0.013610373005643486,0.0027367018047603775
1783246428603374000,3.0343740234375,-0.03458557569086552,0.012729279322177172,-0.008171147943648975
1783246428613386000,3.044385986328125,-0.02889993126988411,0.003925174087099731,-0.0016300945530179887
1783246428623397000,3.054397216796875,0.001177227085828781,-0.0027955124700441954,-0.0008753466459806077
1783246428633409000,3.064408935546875,-0.013783026158809662,0.00010017243884503841,0.006468132001603953
1783246428643421000,3.0744208984375,-0.016170213556289673,0.011149681980535387,0.011843744642322417
1783246428653431800,3.084431884765625,-0.021554244682192802,0.009879954305663704,-0.007384867820609361
1783246428663444000,3.09444384765625,-0.017363807255029676,-0.003306567264720797,-0.0013951236032298765
1783246428673455000,3.104455078125,-0.011077858853340148,0.006245543326064944,0.012203017825214192
1783246428683467000,3.114467041015625,-0.01736497629880905,0.005695435162633657,0.0064166917920229025
1783246428693479200,3.124479248046875,-0.012720949885249137,0.00841875917930156,0.011330344910221174
1783246428703490000,3.134489990234375,-0.02199380514323711,0.010831081018038093,0.004573516177327838
1783246428713502000,3.144501953125,-0.023939093992114066,-0.001131159454397857,0.010231829633389134
1783246428723513000,3.15451318359375,-0.028578444230556485,0.0018638576431199907,0.006166922848613467
1783246428733525000,3.16452490234375,-0.017205401822924613,0.0020081249520182607,0.0002950579734169878
1783246428743535900,3.174535888671875,-0.024535890841484068,0.002256437157280743,0.007233919609175063
1783246428753548000,3.184548095703125,-0.017199556604027746,0.0015434300497174263,0.01454514452154981
1783246428763560000,3.194559814453125,-0.02108896525800228,0.0007716784922406077,-0.0010432916579884476
1783246428773571000,3.204571044921875,-0.01315524964928627,-0.0020084537455812095,0.00920414425319759
1783246428783583000,3.2145830078125,-0.023028993409872054,0.0025679873244836924,0.007220334041817113
1783246428793594000,3.224593994140625,-0.016593991926312446,0.010636910152807832,0.004325854709325358
1783246428803606000,3.23460595703125,-0.013004443001747131,0.008584471135027706,-0.00034061186490580436
1783246428813618000,3.244617919921875,-0.012857728007435797,0.003710179629549384,-0.011895812756277154
1783246428823628800,3.25462890625,-0.018690087422728537,-0.0032601343071088193,0.011042282933171372
1783246428833641000,3.264640869140625,-0.020184709894657135,0.001488375394232571,0.008799082000087947
1783246428843652000,3.274652099609375,-0.03155775230228901,0.0031494770068675277,0.0027767712369561196
1783246428853664000,3.2846640625,-0.03021101386845112,-0.0008924553276970982,0.003873268086637836
1783246428863675100,3.294675048828125,-0.0020750527083873748,-0.0017316826308146117,0.013467382055090274
1783246428873687000,3.30468701171875,-0.013145897299051284,0.013181151275523006,0.013837110416626091
1783246428883699000,3.314698974609375,-0.02676058115363121,-0.0011001797942444681,0.0010153647547354921
1783246428893709800,3.324709716796875,-0.02840834836065769,-0.0026977146513760086,0.005184396350977476
1783246428903722000,3.334721923828125,-0.024969021561741828,-0.0035396819008514284,0.009750498690118547
1783246428913733000,3.344733154296875,-0.020029227072000503,0.004652684644050896,0.02698972743412014
1783246428923745000,3.3547451171875,-0.00431610963344574,0.0010219999914988875,0.013743726194882764
1783246428933757200,3.364757080078125,-0.008354571369290352,-0.006043517947942018,-0.0045254986174055375
1783246428943768000,3.37476806640625,-0.018824527457356452,0.00744900083169341,0.009528062994917853
1783246428953780000,3.384780029296875,-0.019866145464777947,0.004154124004766345,0.00285922078944277
1783246428963790800,3.394790771484375,-0.01672317126393318,0.0033864641005173324,-0.0040291870174231
1783246428973803000,3.404802978515625,-0.017470190238952635,-0.0015758710145950317,0.012832522784231696
1783246428983814000,3.41481396484375,-0.015822423031926155,0.0007688289480283855,0.008582544039422645
1783246428993825800,3.42482568359375,-0.02180617361664772,0.003567812016792595,0.0005031820154748857
1783246429003838000,3.434837890625,-0.035871523848176,0.005346110268309712,0.003921331312332767
1783246429013849000,3.44484912109375,-0.018363924208283422,0.0055014469604939215,0.008298836293793284
1783246429023861000,3.454861083984375,-0.0303337634652853,0.003527918397821486,0.007300778866885229
1783246429033872100,3.4648720703125,-0.02180383552908897,0.005760645885951817,-0.000669905468064826
1783246429043884000,3.474884033203125,-0.008189151674509048,0.00505607781317085,0.007155824288108852
1783246429053896000,3.48489599609375,-0.013428221371769904,-0.0014963029723614454,0.006624108014605007
1783246429063906800,3.49490673828125,-0.02988543517589569,0.0054657911252230405,0.01185290747960098
1783246429073919000,3.5049189453125,-0.021358429849147795,-0.005854461649246513,-0.007117734467156697
1783246429083930000,3.51493017578125,-0.018068740653991697,-0.008196348600275814,0.010624998236016835
1783246429093942000,3.52494189453125,-0.021062661772966385,-0.002018354085087776,0.013559085776400751
1783246429103953200,3.534953125,-0.04186111965179443,0.0004880392452701926,0.006256073853233829
1783246429113965000,3.544965087890625,-0.01552022521495819,-0.0008231164185330272,-0.007816304340702481
1783246429123977000,3.55497705078125,-0.02374970889985561,-0.0035349691931158304,0.009630621470382902
1783246429133987800,3.56498779296875,-0.013425883284211158,0.008150865490734576,0.004438996227597818
1783246429144000000,3.575,-0.025545944666862486,0.004849960781820118,-0.0016913506204262374
1783246429154011100,3.58501123046875,-0.03168225546479225,0.0018818682238459586,-0.004707049746369011
1783246429164023000,3.59502294921875,-0.01028524717092514,0.0035517741974443193,0.012439456929592415
1783246429174035200,3.60503515625,-0.008494272100925446,0.00470901794116944,-0.007842849854333325
1783246429184046000,3.615046142578125,-0.027501754909753796,0.0058395198084414,0.015769213273655623
1783246429194058000,3.62505810546875,-0.01672843196094036,-0.0002866349216550588,0.010604501153971067
1783246429204068900,3.63506884765625,-0.017477789023518563,0.0013883490858599542,0.0027846896819304673
1783246429214081000,3.6450810546875,-0.016130466067790984,0.010348667795956135,0.007087508292251732
1783246429224092000,3.655091796875,-0.009994155269861221,0.0032980551647022365,0.007592918797431047
1783246429234103800,3.665103759765625,-0.014935703325271606,0.0069682681100443,0.014018800826196092
1783246429244116000,3.675115966796875,0.001073182189464569,0.004636281498521566,-0.005921327756822575
1783246429254127000,3.685127197265625,-0.027509353694319724,-0.004908486036024988,0.0009396189376711844
1783246429264139000,3.695138916015625,-0.011195932275056839,0.017024090439267454,0.004367933435516897
1783246429274150000,3.70514990234375,-0.016282441759109496,0.006214307937584817,0.007633328439632896
1783246429284162000,3.715162109375,-0.021070845079421995,-0.0078492521956563,0.005392584325117059
1783246429294174000,3.725174072265625,-0.01208908172249794,0.013156820551864802,-0.00027135743742110206
1783246429304184800,3.735184814453125,-0.019570377388596533,0.009411825337260961,-0.003871382090228144
1783246429314197000,3.745197021484375,-0.031688685205578805,0.011895385781303048,0.014241058424883522
1783246429324208000,3.7552080078125,-0.03482756775319576,0.008216185811907053,0.007223395931872073
1783246429334220000,3.765219970703125,-0.031236265262961384,0.0014795710332691668,0.0038980212186928835
1783246429344232200,3.775232177734375,-0.025849311527609824,0.005972571603581309,-0.0019075529376626945
1783246429354243000,3.7852431640625,-0.01222936697602272,0.007984970871917903,-0.004484888045804109
1783246429364255000,3.7952548828125,-0.003102057668566704,0.006953326269239187,0.011610725904314313
1783246429374265900,3.805265869140625,-0.029286884760856627,0.010959639301151037,0.007670272049691993
1783246429384278000,3.815278076171875,-0.030181787773966788,0.0007138108251616358,0.0026455323729896916
1783246429394289000,3.825288818359375,-0.042452655804157254,0.00702281130887568,0.00018657208066433668
1783246429404301000,3.835301025390625,-0.01970774003267288,0.0032737244410440325,0.0000061877121916040776
1783246429414313000,3.84531298828125,-0.023600071296095846,-0.007308386784605682,0.006484777175728231
1783246429424324000,3.855323974609375,-0.031681086421012875,0.0033305326621979473,0.00404909729429055
1783246429434336000,3.8653359375,-0.027045243313908576,0.0065390098473057144,0.0059341438559116794
1783246429444347000,3.875346923828125,-0.008189736196398735,0.008315554533153772,0.007413169183197897
1783246429454359000,3.885359130859375,-0.027642624685168263,-0.0051629357211291785,-0.00019888128967722877
1783246429464371000,3.895370849609375,-0.019564532169699667,0.0037324279939755793,0.00021408342538634315
1783246429474381800,3.9053818359375,-0.021063830816745756,0.005896802953630685,0.0029318453509476964
1783246429484394000,3.91539404296875,-0.02824585127532482,0.024291560691595077,0.012185774429468438
1783246429494405000,3.925405029296875,-0.028398411488533018,0.00864336171541363,0.0014062683350406586
1783246429504417000,3.9354169921875,-0.02210895595550537,0.003151522833481431,-0.004683746502595022
1783246429514428000,3.945427978515625,-0.021361936980485916,0.00018134791627526283,0.01250041845276719
1783246429524440000,3.955440185546875,-0.026298808860778806,0.00957107101958245,-0.0010445177839836105
1783246429534452000,3.965451904296875,-0.025103461596369742,0.015601400692388414,0.011780187019973527
1783246429544462800,3.975462890625,-0.004153612548112869,0.008557108204066752,-0.0013870613110717384
1783246429554475000,3.98547509765625,-0.01791734948456287,0.008473485041223467,-0.000028184914868324994
1783246429564486100,3.995486083984375,-0.02644377028942108,-0.0007211538814008235,0.007311597088421695
1783246429574498000,4.005498046875,-0.016416297271847725,0.012250884688086806,0.01240940428462345
1783246429584510200,4.01551025390625,-0.028085107755661008,0.0063420990357175465,-0.0016545577074168248
1783246429594521000,4.02552099609375,-0.019257073655724523,0.011604403478093444,0.005844106935302261
1783246429604533200,4.035533203125,-0.021653028881549834,0.014038827550783752,-0.006513386782282032
1783246429614544100,4.045544189453125,-0.03766542152762413,0.006429740786552429,-0.0005686758665833622
1783246429624556300,4.055556396484375,-0.02868599625825882,-0.0006152092888951302,0.004280453798174858
1783246429634567200,4.065567138671875,-0.026141572472453117,0.001154503797367215,0.010868300906021613
1783246429644579000,4.0755791015625,-0.025991350346803662,-0.01022131508924067,0.00027436224526027216
1783246429654591200,4.08559130859375,-0.02299509114027023,0.0006106061790138483,-0.005453792443464044
1783246429664602400,4.095602294921875,-0.020299276185035704,-0.008281834926642476,-0.00610213225040352
1783246429674614300,4.1056142578125,-0.015512041908502578,0.0038691330509260293,0.006710902665357571
1783246429684625200,4.115625244140625,-0.01790565904676914,0.00011116875689476728,0.005524028685060329
1783246429694637300,4.12563720703125,-0.025386370190978048,-0.012938647756539284,0.004245115340023767
1783246429704649200,4.135649169921875,-0.010724807631969452,-0.004477912599034607,0.012660511235170997
1783246429714660000,4.14566015625,-0.014165887996554374,-0.0024044673258438705,0.0002473897566553205
1783246429724672300,4.15567236328125,-0.019851532417535782,-0.006761676154658198,0.004401210084033664
1783246429734683400,4.165683349609375,-0.014758008670806884,0.009103343909978866,0.009027095769415608
1783246429744695300,4.1756953125,-0.02343406707942486,-0.001895567955635488,0.002135568990278989
1783246429754706200,4.1857060546875,-0.01834580402970314,0.00003189297560602426,-0.0085597933514975
1783246429764718300,4.19571826171875,-0.023581366595625874,0.002835406089015305,-0.007472516421310137
1783246429774730200,4.205730224609375,-0.025525486400723454,0.008639927649311721,0.003920144002244342
1783246429784741000,4.2157412109375,-0.026574118670821188,0.004037036963738501,-0.003858191531803459
1783246429794753300,4.225753173828125,-0.019541735816001892,-0.005826148870214819,0.005599352093727793
1783246429804764200,4.23576416015625,-0.032409985217452045,0.008386647007986903,0.005945665330346674
1783246429814776000,4.245776123046875,-0.021338556104898453,0.00947743791937828,0.004443236294586677
1783246429824788200,4.255788330078125,-0.009070026162266731,-0.00019384207166731355,-0.006694702732516452
1783246429834799400,4.26579931640625,-0.027476620468497276,0.008504391636140644,-0.002173391666461248
1783246429844811300,4.275811279296875,-0.007874094375967979,-0.0018193243816494941,0.0018658121381886301
1783246429854822100,4.285822265625,-0.01999181767106056,0.011585150788351893,0.016838833532854914
1783246429864834300,4.295834228515625,-0.02567512400448322,0.006276559518836438,0.009512689612561371
1783246429874845200,4.30584521484375,0.004253565791249275,0.002947378563508391,0.0017787320763571186
1783246429884857000,4.315857177734375,-0.023279168778657912,0.009377959600277245,0.01358851051699603
1783246429894869200,4.325869140625,-0.01489887844622135,-0.011737382207997143,0.01208758845173288
1783246429904880400,4.33588037109375,-0.017741992917656896,-0.012784808901697397,-0.004390291397797409
1783246429914892300,4.345892333984375,-0.016542554000020027,0.002257788864150643,0.01670952861435944
1783246429924903200,4.355903076171875,-0.018784195446968077,0.008175305812247097,-0.003414895610557869
1783246429934915300,4.365915283203125,-0.012646715605258941,0.001527355697751045,0.0025132089469232597
1783246429944927200,4.37592724609375,-0.024767361509799957,0.010816504503414034,0.010974923635250888
1783246429954938000,4.385938232421875,-0.01040332059264183,0.0003774550102651119,0.008121198721544352
1783246429964950300,4.3959501953125,-0.017284896799921987,0.0069171955099329345,0.013529081080493052
1783246429974961400,4.40596142578125,-0.018033669340610504,0.010074563562311232,0.0002996473835664801
1783246429984973300,4.415973388671875,-0.006061491996049881,0.004359364253282547,-0.002669118744553998
1783246429994984200,4.425984130859375,-0.019677929416298864,-0.0023806480588391423,0.006893965331395156
1783246430004996400,4.435996337890625,-0.018328268373012543,0.0017361030776053667,-0.008481241372704972
1783246430015008300,4.44600830078125,-0.007999766582250595,0.0044917584612965585,0.005418940325791481
1783246430025019100,4.45601904296875,-0.03014554741680622,0.004626198495924472,0.006883537552214693
1783246430035031300,4.46603125,-0.022216507983207703,-0.0020727146208286283,-0.002015737436315976
1783246430045042200,4.476042236328125,-0.017577742266654966,-0.00477550730612129,0.0060502673491369926
1783246430055054000,4.48605419921875,-0.014735212317109107,0.002588810916803777,0.004318061845225748
1783246430065066200,4.496066162109375,-0.006951134312152862,0.0014712781289592384,0.00008544751045992598
1783246430075077400,4.506077392578125,-0.014582652103900908,0.007446224352717399,0.010216933458356652
1783246430085089300,4.51608935546875,-0.009493804532289504,-0.0018537746405228972,0.007694570807309355
1783246430095100200,4.52610009765625,-0.021464812833070755,0.005485737934708595,0.0165741615645471
1783246430105112300,4.5361123046875,-0.01144026242494583,-0.0051052507171407335,0.0034027987473877145
1783246430115124200,4.546124267578125,-0.019071780216693878,-0.004069003004580736,0.00337178255461622
1783246430125135000,4.556135009765625,-0.02550444361269474,-0.0002192322412505746,0.007264038469514344
1783246430135147300,4.566147216796875,-0.021012392890453337,0.00031045418865978717,0.010163143744773697
1783246430145158400,4.576158447265625,-0.019365210205316542,0.010154825724288821,0.006084347715252078
1783246430155170300,4.58617041015625,-0.015322656816244125,0.00874853912293911,0.021132260977034457
1783246430165181200,4.59618115234375,-0.015625439155101777,-0.008078348243795335,-0.005248013338830787
1783246430175193300,4.606193359375,-0.012636778733134268,0.0024873233037069438,0.00011375572291435674
1783246430185205200,4.616205322265625,-0.015334347254037857,-0.0060871378939598795,0.008353603254910557
1783246430195216100,4.626216064453125,-0.019675006806850432,-0.008597805540636182,-0.0013159985189908183
1783246430205228300,4.636228271484375,-0.030150808113813397,-0.003039002369716763,0.005252269388840068
1783246430215239200,4.6462392578125,-0.015935235756635666,0.009372297044470906,-0.002166089709417429
1783246430225251000,4.6562509765625,-0.024314357045292855,0.0008237009404227137,0.007345035850431304
1783246430235263200,4.66626318359375,-0.03164601510763168,0.0007960822811350226,0.005892062846431508
1783246430245274400,4.6762744140625,-0.021471242573857307,0.006196881878748535,0.0194418921707198
1783246430255286300,4.686286376953125,-0.01578384458720684,-0.004750372864864767,0.008101589838776272
1783246430265297200,4.696297119140625,-0.015184709650278091,0.004511047683656216,0.005663165444403421
1783246430275309300,4.706309326171875,-0.022219430592656134,0.0004977203890681267,0.007235241633292753
1783246430285320200,4.7163203125,-0.02701017200052738,0.01492499926816672,-0.001546243061311543
1783246430295332000,4.72633203125,-0.008005027279257775,0.012656652477383613,0.008900909823190886
1783246430305344300,4.73634423828125,-0.02565992643535137,0.00571786619015038,0.005022981544455979
1783246430315355400,4.74635546875,-0.02221884607076645,-0.0019083178393542765,-0.0052252900503692214
1783246430325367300,4.7563671875,-0.03374152608215809,-0.0011508870681747794,0.01090117341245059
1783246430335378200,4.766378173828125,-0.02266834340393543,0.001853409314341843,0.00032304424217436463
1783246430345390300,4.776390380859375,-0.011146247914433478,0.004387092510424554,0.013953635768650564
1783246430355402200,4.78640234375,-0.024912907460331916,0.0034849195063114164,0.00746436964747263
1783246430365413000,4.7964130859375,-0.023116087171435356,-0.005816613856889307,-0.0008207943139947019
1783246430375425300,4.80642529296875,-0.025209260058403012,0.005520772715471685,0.018257728454028257
1783246430385436400,4.8164365234375,-0.024757424637675284,0.012182714822702109,-0.0070074310766533015
1783246430395448300,4.8264482421875,-0.02999649433493614,0.012662899555079639,0.001759146026475355
1783246430405459200,4.836459228515625,-0.011592822638154029,-0.008250563005544245,0.010251415683270896
1783246430415471400,4.846471435546875,-0.022066285857558248,-0.0018307956237345934,0.007582322054891847
1783246430425483300,4.856483154296875,-0.014434768065810203,0.0026553733469918367,0.0031438304340816103
1783246430435494100,4.866494140625,-0.020872107636928556,-0.007889511140808462,0.007780048000521492
1783246430445506300,4.87650634765625,-0.018779519271850585,0.0144637749645859,-0.007040436013822909
1783246430455517200,4.88651708984375,-0.027606968849897384,0.005292078526131809,-0.0033504223894677125
1783246430465529000,4.896529052734375,-0.016833645901083945,-0.003812872819043696,0.0043050767827779056
1783246430475541200,4.906541259765625,-0.026259645894169806,-0.0012937296049669385,0.004469754408753942
1783246430485552400,4.916552490234375,-0.0089057755112648,0.0019465674905106425,0.003853398908965755
1783246430495564300,4.926564208984375,-0.022971710264682768,0.013019604038260876,0.007720940507715567
1783246430505575200,4.9365751953125,-0.015341361516714095,0.0078068743586540215,0.005234770264767576
1783246430515587300,4.94658740234375,-0.030158406898379325,-0.001396568924933672,-0.001660151764564216
1783246430525598200,4.95659814453125,-0.031207623690366743,-0.005250358276255428,-0.0014283637191285377
1783246430535610000,4.966610107421875,-0.021782208219170568,-0.008790588166378437,-0.0009334517750772647
1783246430545622300,4.976622314453125,-0.009218494722247124,-0.0034101737696677443,0.010134461072983686
1783246430555633400,4.98663330078125,-0.014607202023267745,0.012793905523605644,-0.0005583622518344781
1783246430565645300,4.996645263671875,-0.0039823476344347,-0.0000877513486891985,-0.0068034489201731045
1783246430575656200,5.00665625,-0.0289700738966465,-0.0031227351304143666,0.018344548220955766
1783246430585668400,5.01666845703125,-0.013407763105630873,0.0024167057529091832,0.01715493886087788
1783246430595680300,5.02668017578125,-0.018498948764801026,0.005943674302659929,-0.014553590406198054
1783246430605691000,5.03669091796875,-0.0283773687005043,0.004812478315643966,0.006399752073665149
1783246430615703000,5.046703125,-0.0032370822250843046,-0.003147175451926887,0.016090428601636085
1783246430625714200,5.056714111328125,-0.02328793660700321,-0.002723835473321378,0.005187613504659384
1783246430635726000,5.06672607421875,-0.026426234632730482,0.006765987003594636,0.013246142803132533
1783246430645737000,5.076737060546875,-0.01131225213110447,0.0036126740718260405,0.012426846326480154
1783246430655749000,5.0867490234375,-0.008622282394766806,0.006548727523721754,-0.0031832171629765068
1783246430665761000,5.096760986328125,-0.019395605343580244,0.011907003153860568,0.000049928672506939616
1783246430675772000,5.10677197265625,-0.01580605641901493,-0.005708258111588657,0.0009120322444243356
1783246430685784000,5.1167841796875,-0.022391864550113678,-0.0008784268023446202,0.011115154089848511
1783246430695795000,5.126794921875,-0.011471242085099219,-0.0021480814119800924,0.0003488065878045745
1783246430705806800,5.136806884765625,-0.013265724286437033,0.0035153511771932244,0.001087183315353468
1783246430715819000,5.146819091796875,-0.01640519135594368,0.0010374167563393711,0.002568185970594641
1783246430725830100,5.156830078125,-0.013410685715079307,0.00024264964945614335,0.0013273989791283383
1783246430735842000,5.166842041015625,-0.02178922248184681,0.012046192428842186,0.01096366930558579
1783246430745853000,5.17685302734375,-0.01610533162653446,0.004322100982815027,0.009196296590170823
1783246430755865000,5.186864990234375,-0.02643324889540672,-0.006530461214669049,-0.003054268437507562
1783246430765877000,5.196876953125,-0.027481296643614768,0.004720708378963172,0.005492749914096202
1783246430775888000,5.206887939453125,-0.025237901630997657,-0.0007995163472369313,0.011610086583497468
1783246430785900000,5.216900146484375,-0.008031915286183357,-0.009111454151198267,0.005639519707334693
1783246430795911200,5.2269111328125,-0.024339491486549375,0.0039802652752026916,0.015844187339162454
1783246430805923000,5.236923095703125,-0.009373977544903754,-0.007883994715474546,0.015858695355127565
1783246430815934000,5.246933837890625,-0.018351064726710317,0.0003254325620830059,0.006783773822034708
1783246430825946000,5.256946044921875,-0.003985854765772819,0.009300546982511877,0.016316782420128583
1783246430835958000,5.2669580078125,-0.02643149532973766,0.003617423312179744,0.00554744837655453
1783246430845969000,5.276968994140625,-0.025684476354718207,0.00004687134902924299,-0.005519178980006836
1783246430855981000,5.28698095703125,-0.008925064733624458,0.006339139893651008,0.007486860040493775
1783246430865992200,5.2969921875,-0.00877425808608532,0.011992854806408285,-0.000923585684900172
1783246430876004000,5.307004150390625,-0.017751345267891884,-0.006745674867928027,0.00791502689126646
1783246430886016300,5.317016357421875,-0.02239128002822399,0.0012181070854887365,0.01448900758725358
1783246430896027100,5.327027099609375,-0.017605214795470236,0.006657485127821564,-0.005899362520186696
1783246430906039000,5.3370390625,-0.009824059399962424,-0.0015753960905596613,-0.002144218087615445
1783246430916050000,5.3470498046875,-0.027032968354225157,-0.0018609715662896633,-0.004082981297583319
1783246430926062000,5.35706201171875,-0.01326630880832672,0.010858845807798206,0.00925318015984958
1783246430936073000,5.367072998046875,-0.022093758386373518,0.004105170296505093,0.00299664508231217
1783246430946084900,5.3770849609375,-0.024186931273341178,-0.000280789702758193,-0.0033140427517006172
1783246430956097000,5.387096923828125,-0.0054833998471498484,0.003646028352156281,-0.0019245931207202375
1783246430966108200,5.397108154296875,-0.033915129083395,0.011434344140812755,0.016490568084456026
1783246430976120000,5.4071201171875,-0.01775485239923,0.005462283993884921,0.013037890896911266
1783246430986131000,5.417130859375,-0.02807809349298477,-0.002958192218467593,0.00592718667545123
1783246430996143000,5.42714306640625,-0.02867547486424446,0.010915617496334016,0.010818185003846884
1783246431006155000,5.437155029296875,-0.017004326292872428,0.0022402166748419403,0.0036654774047201496
1783246431016166000,5.447165771484375,-0.03271627468764782,0.00598641746584326,0.006342747489688918
1783246431026178000,5.457177978515625,-0.012217676538228988,-0.001006510161422193,-0.0015633951255120337
1783246431036189200,5.467189208984375,-0.0054822308033704754,-0.005376359276100993,-0.0009513344916398637
1783246431046201000,5.477201171875,-0.0050339025139808655,-0.0011700666926801205,0.01403853528983891
1783246431056212000,5.4872119140625,-0.031221067693829534,0.006015789690800011,0.0029862241529976016
1783246431066224000,5.49722412109375,-0.014911737927794455,-0.0032341596156358716,0.007376558933279011
1783246431076236000,5.507236083984375,-0.014613631764054297,-0.007549903922900557,0.0039115771032986225
1783246431086247000,5.517246826171875,-0.03197100927829742,0.0015627923373132944,0.010190002068947069
1783246431096259000,5.527259033203125,-0.02478840429782867,0.008893902410380542,0.007932322802650741
1783246431106270000,5.53727001953125,-0.02882394342422485,-0.0073796984551474445,0.010523019715864211
1783246431116282000,5.5472822265625,-0.0213408941924572,-0.004414163180440664,0.01630978870705003
1783246431126294000,5.5572939453125,-0.015509119299054144,-0.0007341960260644555,0.0035058275803108697
1783246431136305200,5.56730517578125,-0.028973581027984616,0.002195025826245546,-0.000192752942990046
1783246431146317000,5.577317138671875,-0.021639584878087044,0.004092968402057886,0.004907508788490667
1783246431156328000,5.587327880859375,-0.020744097343087194,0.0022092370146885513,0.008896973433590027
1783246431166340000,5.597340087890625,-0.015658172380924224,-0.007029460245370865,0.006662238934752531
1783246431176351000,5.60735107421875,-0.02044716022312641,-0.006414433619566262,0.0045589990282082
1783246431186363000,5.61736279296875,-0.024638766694068906,0.01292228114362806,-0.00627244959929958
1783246431196375000,5.627375,-0.021198855373263357,0.002196779391914606,-0.0010656930027529597
1783246431206386200,5.63738623046875,-0.016861118429899215,0.00986716788932681,0.004673088111262768
1783246431216398000,5.647398193359375,-0.034820553490519525,0.0012789338946342468,0.012365172417252324
1783246431226409000,5.657408935546875,-0.030630700585246085,0.00666555883642286,0.0023283949985052456
1783246431236421000,5.667421142578125,-0.01791442687511444,0.005226392878778278,-0.004284018011728767
1783246431246433000,5.67743310546875,-0.0182125330388546,0.011192936600372195,0.012904562823846935
1783246431256444000,5.68744384765625,-0.02539630706310272,0.011968231821805238,-0.007644050763046834
1783246431266456000,5.6974560546875,-0.02300210540294647,0.0004385010151192546,0.004543299135577399
1783246431276467200,5.70746728515625,-0.028089783930778503,-0.0037365196472033857,0.014506967935629654
1783246431286479000,5.71747900390625,-0.019711247164011,-0.0011604951467365026,0.005313347359735053
1783246431296490000,5.727489990234375,-0.007144026535749435,-0.005445661652646958,0.00139934083733242
1783246431306502100,5.737502197265625,-0.020461773270368574,0.0030808322174474597,0.0037542813494685105
1783246431316514000,5.74751416015625,-0.015370587611198425,-0.0016329714966937898,-0.002356746593443677
1783246431326525000,5.75752490234375,-0.019710662642121315,-0.0016205138739198446,0.005583889663114678
1783246431336537000,5.767537109375,-0.02404956862926483,0.0051001726832240815,0.00533216165805934
1783246431346548000,5.7775478515625,-0.017165654334425927,0.005982106616906822,0.00038671374566620213
1783246431356560000,5.787559814453125,-0.011923077505826949,0.0010568155765533446,0.002300260315986816
1783246431366572000,5.797572021484375,-0.018209610429406164,-0.00010594459250569344,0.0008926539738080463
1783246431376583200,5.807583251953125,-0.01267243456840515,-0.003558277003467083,-0.007282560506893787
1783246431386595000,5.817594970703125,-0.014767945542931557,0.0015404709076508878,0.0035520139427506364
1783246431396606000,5.82760595703125,-0.03437047163546085,-0.002202040088921785,-0.011301764986419584
1783246431406618000,5.8376181640625,-0.015363573348522185,0.00715871264822781,0.008659484016441274
1783246431416630000,5.847630126953125,-0.009076455903053284,0.008005100344493985,0.0025177892239182254
1783246431426641000,5.857640869140625,-0.02568564539849758,0.0009522592235356569,-0.002734943672514055
1783246431436653000,5.867653076171875,-0.02808335418999195,0.006725801123678684,0.0009669978516525588
1783246431446664200,5.877664306640625,-0.028682489126920698,0.009579400456510484,-0.005899577149318065
1783246431456676000,5.887676025390625,-0.019704817423224448,0.005110913272947073,-0.004951617358275689
1783246431466687000,5.89768701171875,-0.012822656694054602,-0.005338365353271365,0.010750040254637133
1783246431476699100,5.90769921875,-0.016118191108107565,-0.0001562500076368451,0.004093027767562307
1783246431486711000,5.9177109375,-0.01626841323375702,-0.009566577507555483,-0.004146308307780418
1783246431496722000,5.927721923828125,-0.015222119051218033,-0.0014564824186265467,-0.0029382157262298277
1783246431506734000,5.937734130859375,-0.025696166792511937,0.01558496101424098,0.008157030370039864
1783246431516745200,5.9477451171875,-0.01552373234629631,-0.0022904124921187758,0.002934621829923708
1783246431526757000,5.957757080078125,-0.014178747478127479,-0.011226437011174857,0.005794052681920584
1783246431536769000,5.96776904296875,-0.030786767929792402,-0.002742649771645665,-0.005662211029755417
1783246431546780200,5.9777802734375,-0.017468436673283575,0.007567877971008419,0.003199152234336361
1783246431556792000,5.9877919921875,-0.02495090138316154,-0.0015488003445789217,0.0020807609299663453
1783246431566803000,5.997802978515625,-0.02450315761566162,-0.012581322218850255,0.012240461475483607
1783246431576815000,6.007815185546875,-0.020310966622829437,0.005608743259869516,0.004840866443200502
1783246431586826000,6.017825927734375,-0.02105798559784889,0.014112623439356684,-0.004085600229643751
1783246431596838000,6.027837890625,-0.012227613410353659,-0.0005963949905708432,0.0140234998341999
1783246431606850000,6.03785009765625,-0.01731704550385475,0.003926562326587737,0.004375057296047453
1783246431616861400,6.047861328125,-0.011781038686633109,0.009021839638985693,0.0009247775615658611
1783246431626873300,6.057873291015625,-0.016119944673776625,-0.0022072642533108593,0.009382690574321895
1783246431636884200,6.06788427734375,-0.015222119051218033,0.002440196226350963,0.009212558171804993
1783246431646896400,6.077896484375,-0.018065818044543266,-0.007569302743114531,0.005366831112641375
1783246431656908300,6.087908203125,-0.009537059152126312,-0.0011184095706790686,0.008793643206567503
1783246431666919200,6.097919189453125,-0.022557868766784665,-0.0015129983788356185,-0.0006796939264284447
1783246431676931000,6.10793115234375,-0.023757892206311224,0.013367942551895976,0.01083727101351833
1783246431686942500,6.1179423828125,-0.005806055930256843,-0.005228877096809447,-0.002522339818160981
1783246431696954400,6.127954345703125,-0.010146130961179733,0.0031666838699951766,-0.0036793346834252585
1783246431706966300,6.13796630859375,-0.017779986840486525,0.0018766440594568847,0.0034424001054139805
1783246431716977400,6.147977294921875,-0.02436637949347496,0.0005992810674011707,0.012584505123202689
1783246431726989300,6.1579892578125,-0.020627777487039565,0.008730601607449352,0.012110983027052134
1783246431737000200,6.168000244140625,-0.02182312475144863,-0.0016456483151763676,-0.0008291283174999989
1783246431747012400,6.178012451171875,-0.02107376768887043,-0.004672814116626978,0.004820412743638735
1783246431757023200,6.188023193359375,-0.03798164786994457,0.004591127182543278,0.009675125049101188
1783246431767035100,6.19803515625,-0.013740940582752227,0.0063939022881910204,0.017931316361122298
1783246431777047000,6.208047119140625,-0.0213712893307209,0.002778415204770863,0.014828900216240434
1783246431787058400,6.218058349609375,-0.02496200729906559,0.007398951144888997,0.010248767068458255
1783246431797070300,6.2280703125,-0.025109891337156295,-0.002068951761163771,0.012192672244424465
1783246431807081200,6.238081298828125,-0.025857494834065436,0.00029931174013763664,0.011089962566376198
1783246431817093400,6.24809326171875,-0.023469138392806052,0.005385711626335978,0.00426162351683015
1783246431827105300,6.258105224609375,-0.02960486466884613,0.0022630495611578225,0.0006698826351785101
1783246431837116200,6.2681162109375,-0.014938041412830352,0.0016035627391189336,0.004081615890981629
1783246431847128000,6.278128173828125,-0.01763327184617519,-0.0022523089714348316,-0.005961011313239578
1783246431857139500,6.288139404296875,-0.010600304469466209,0.002543254742026329,0.005589828496845439
1783246431867151400,6.2981513671875,-0.025565233889222144,-0.0026662235345691443,-0.0028839282557251863
1783246431877162200,6.308162353515625,-0.008356909456849098,0.006758936208300292,0.010992792652081697
1783246431887174400,6.31817431640625,-0.021523849543929097,-0.001665302863717079,0.005088961736042984
1783246431897186300,6.328186279296875,-0.014488544079661369,0.005611044814810157,0.006943377980671357
1783246431907197200,6.338197265625,-0.025562895801663398,-0.004982062728889286,0.0023500451413099653
1783246431917209000,6.348208984375,-0.012993921607732772,0.003991371191106737,0.004342246438411529
1783246431927220200,6.35822021484375,-0.02691080327928066,0.0029654256768524645,0.014157741222716867
1783246431937232100,6.368232177734375,-0.01688566834926605,0.0034287688722833987,0.008716328770213295
1783246431947244300,6.378244384765625,-0.014340660041570663,0.0013090733045712114,0.002023884210153483
1783246431957255400,6.38825537109375,-0.011793898168206213,-0.0003995937768369913,0.0050703232509433285
1783246431967267300,6.398267333984375,-0.01523439401090145,-0.008368819090351462,0.01117278886148706
1783246431977278200,6.4082783203125,-0.02630874573290348,-0.005051876562088727,-0.0016150408310699276
1783246431987290000,6.4182900390625,-0.021968086180090902,0.00030789690539240834,0.003940912795637268
1783246431997301200,6.42830126953125,-0.018973580539226532,0.0005621639274060726,-0.004695626453345175
1783246432007313200,6.438313232421875,-0.023314824613928795,0.001803615355864167,-0.0043481761389877645
1783246432017325000,6.448324951171875,-0.02855097170174122,0.010025902114994824,-0.005715110260772053
1783246432027336400,6.45833642578125,-0.017029460734128952,-0.0035825711945071813,-0.0034194165220484134
1783246432037348400,6.468348388671875,-0.0176285956710577,0.003917356106825172,0.005508237460884266
1783246432047359200,6.478359130859375,-0.012842530438303947,0.009054207538627087,-0.013151920614461413
1783246432057371400,6.488371337890625,-0.016734861701726913,-0.0055657809009775515,0.006458393775590229
1783246432067383300,6.49838330078125,-0.02301788749396801,-0.00875584564656019,0.003022756771103013
1783246432077394200,6.508394287109375,-0.02451543257534504,0.011333039190806448,0.007668281022005248
1783246432087406000,6.518406005859375,-0.022270868518948553,0.0019041165882721543,0.004252415013778954
1783246432097417500,6.52841748046875,-0.01688449930548668,-0.006015533962473273,0.009074649821745696
1783246432107429400,6.538429443359375,-0.028106735065579414,0.0017565248111262915,-0.0044815544444019905
1783246432117441300,6.548441162109375,-0.013289689683914184,0.00856127292253077,-0.004933006272639613
1783246432127452400,6.558452392578125,-0.024364041405916213,-0.003977707991935312,0.010769030366186053
1783246432137464300,6.56846435546875,-0.01957739165127277,0.006239625041931867,0.006248664581624325
1783246432147475200,6.57847509765625,-0.030804303586483,0.004389394065365195,-0.009519062271132134
1783246432157487000,6.588487060546875,-0.027511107259988784,-0.008656476925313471,0.02234175778109347
1783246432167498200,6.598498291015625,-0.013445757028460502,0.0022744112053886055,0.011304495799622963
1783246432177510100,6.60851025390625,-0.018984686455130576,0.010112995876558124,0.004838035165297333
1783246432187522000,6.61852197265625,-0.041132805377244945,0.0058242857066914434,0.0000619501871522516
1783246432197533400,6.628533447265625,-0.01793839227259159,0.017483122785761952,-0.004115504460851661
1783246432207545300,6.63854541015625,-0.00043079263269901275,0.007604775915294885,0.012658355810702777
1783246432217556200,6.64855615234375,-0.024672084441781043,0.004018916785158217,0.0033491277648136017
1783246432227568000,6.658568115234375,-0.023175708404183388,0.010460749868303537,0.00763669857365312
1783246432237580300,6.668580322265625,-0.02048106249272823,-0.0007958265528082847,0.006342676707741338
1783246432247591200,6.678591064453125,-0.03125438544154167,0.006812237298116088,0.00882591292479774
1783246432257603000,6.68860302734375,-0.01000292309820652,-0.004320968471653759,0.004526384533394594
1783246432267614500,6.698614501953125,-0.023618775996565818,0.005374715308286249,-0.0004748578200000338
1783246432277626400,6.70862646484375,-0.009701894325017928,0.00325399682726711,0.0020607136557810007
1783246432287638300,6.71863818359375,-0.014485621470212935,0.0014981661358848214,0.0032395139274769462
1783246432297649200,6.728649169921875,-0.01987199068367481,-0.0042136356396600605,-0.002353417558618821
1783246432307661300,6.738661376953125,-0.020917700344324112,0.008907017620280384,0.008821321231359616
1783246432317672200,6.748672119140625,-0.021519173368811605,0.007486227569542825,0.010853155852528289
1783246432327684000,6.75868408203125,-0.029900048223137854,0.0012160612588748335,0.00037417620779015123
1783246432337695500,6.768695556640625,-0.02990063274502754,0.005577471338771283,0.008631401849561371
1783246432347707400,6.778707275390625,-0.0146352590739727,0.010321889386884867,0.0025574088482535444
1783246432357719300,6.78871923828125,-0.004607786056399345,-0.0030392580980435012,-0.0027990013350732623
1783246432367730200,6.798730224609375,-0.02840016505420208,0.003098806265555322,0.008634347291896119
1783246432377742300,6.808742431640625,-0.01613163511157036,0.005087276669032872,0.0027769927159533836
1783246432387753200,6.818753173828125,-0.02181435692310333,0.0033505890695378184,-0.001250376803718973
1783246432397765000,6.82876513671875,-0.026001287218928335,0.008374262450449168,0.006400848052208311
1783246432407777300,6.83877734375,-0.03184066089689731,0.004571070775203407,0.007761854756704997
1783246432417788200,6.8487880859375,-0.016580547922849655,0.008382738017849624,-0.001835327951668296
1783246432427800000,6.858800048828125,-0.02391279050707817,0.007772131838835775,0.012066874457267113
1783246432437811500,6.8688115234375,-0.016130466067790984,0.0055085708210244775,0.012936321085423697
1783246432447823400,6.8788232421875,-0.011790975558757782,-0.0040598333174362775,0.02183116421072045
1783246432457834200,6.888834228515625,-0.024508418312668798,0.00951645475551486,-0.006695999640459195
1783246432467846100,6.89884619140625,-0.025552958929538724,-0.005216675202362239,0.008910746230615768
1783246432477858300,6.9088583984375,-0.017172668597102165,0.004489128112792969,0.005141217079665511
1783246432487869200,6.918869140625,-0.01627659654021263,0.005739785761013627,0.0021277989590656942
1783246432497881000,6.928881103515625,-0.014631751942634582,0.01250500557962805,-0.006813203129207249
1783246432507892500,6.938892578125,-0.021967501658201216,0.004345262662693858,0.004019882616249379
1783246432517904400,6.948904296875,-0.01119067157804966,0.0059282575378194445,0.0022595652627060187
1783246432527916300,6.958916259765625,-0.022414076381921767,0.002206570133566856,0.00122829055278562
1783246432537927200,6.96892724609375,-0.01537818639576435,-0.007601524512283504,0.002294241567153949
1783246432547939300,6.978939208984375,-0.024102175599336622,0.0036802959479391574,-0.005088269899587612
1783246432557950200,6.9889501953125,-0.1300882691591978,0.00999576270505786,-0.02590862679968122
1783246432567962000,6.998962158203125,0.023451602736115455,-0.02276007680799812,0.017883118421398104
1783246432577974300,7.008974365234375,0.10587152726948261,-0.0070595631226897234,0.05782695147609338
1783246432587985200,7.018985107421875,-0.20124445687830447,0.011816657989285885,-0.07000427317104768
1783246432597997300,7.028997314453125,-0.019753332740068436,-0.0011160349505022168,0.009336622942890971
1783246432608008200,7.03900830078125,0.09516483981609344,-0.011378522300347685,0.04735584461055696
1783246432618020000,7.04902001953125,-0.04355272600054741,0.0064519891509786246,-0.0006645465896464883
1783246432628031000,7.059031005859375,0.0013438158243894577,0.008610738087445497,0.01102004141861107
1783246432638043100,7.069043212890625,0.005848141506314277,0.004707812364771962,0.011313654070324263
1783246432648055000,7.079054931640625,-0.02361176173388958,-0.0015123042590916157,0.005116310967272148
1783246432658066000,7.08906591796875,-0.0027718028008937834,0.0077197805970907205,0.01301055308212526
1783246432668078000,7.099078125,0.02884849334359169,0.000807480457983911,0.01854796640514396
1783246432678089200,7.109089111328125,-0.024389760369062423,-0.0047451487004756925,0.00024891727674985304
1783246432688101000,7.11910107421875,-0.02525952894091606,0.01195237666554749,0.011322138770879245
