time,seconds_elapsed,z,y,x
1783246417575915300,0.061915283203125,-0.0009627075523138045,-0.005479381259158253,0.04087274336868431
1783246417585927200,0.07192724609375,-0.010688567274808883,-0.012510668135434388,0.014829580636252648
1783246417595940000,0.081940185546875,-0.030292262411117554,-0.0006660261606797576,-0.018593830823886673
1783246417605951000,0.091950927734375,-0.012186112356185913,0.003538841650635004,0.007669783425924833
1783246417615963000,0.101962890625,-0.027598201021552086,-0.010987038764730095,0.026473087715450674
1783246417625974000,0.11197412109375,-0.009635843351483344,-0.001997128633968532,0.004299526108114514
1783246417635986200,0.121986083984375,-0.021605098086595532,0.010225443275086581,-0.01328285580103984
1783246417645997000,0.1319970703125,-0.03971066361963749,-0.006550042697973549,0.008875649801059626
1783246417656009000,0.142009033203125,-0.00558919830918312,0.0008310439966619014,0.023969601011520715
1783246417666021000,0.152021240234375,-0.017405308309197426,0.006991868181340396,0.0108259710180806
1783246417676032000,0.162031982421875,-0.0238373871833086,-0.013278912561573087,-0.010429459680896251
1783246417686044000,0.1720439453125,-0.01710311049222946,-0.009852006852813065,0.0072879262351780195
1783246417696055000,0.182054931640625,-0.018597148442268372,0.0011608970055356621,0.021558550964551976
1783246417706067200,0.192067138671875,-0.014552841487526893,-0.0037173034900799392,-0.005765623455168679
1783246417716078000,0.202078125,-0.01799333733022213,-0.012874533011764288,-0.0003836906715179793
1783246417726090000,0.212090087890625,-0.026671149304509163,-0.009461948089301585,0.005631178853963501
1783246417736102100,0.22210205078125,-0.010810732349753379,0.016153225888870654,0.005499163671862334
1783246417746113000,0.232113037109375,-0.004371639212965965,-0.014490334177948533,0.0010846374485292472
1783246417756125000,0.242125,-0.0185872115701437,-0.0050687546316534274,0.0004510933519224636
1783246417766135800,0.2521357421875,-0.02427344051301479,-0.002530833651870489,0.011109822610893752
1783246417776148000,0.26214794921875,-0.01918225485384464,-0.006066168171167373,0.011489001504075712
1783246417786159000,0.2721591796875,-0.011250877332687377,-0.0015868308000266552,0.004355850272078532
1783246417796171000,0.2821708984375,-0.023370938715338706,-0.008328267884254455,0.0009253346839919686
1783246417806183200,0.29218310546875,-0.010652911439538,-0.007261698098666966,0.01283723092539003
1783246417816194000,0.302194091796875,-0.016786884149909018,-0.00354914384894073,0.014766541320423128
1783246417826206000,0.3122060546875,-0.02472059975862503,-0.010059146797470747,-0.0006447778766741976
1783246417836216800,0.322216796875,-0.024271686947345734,0.005653897575847804,-0.0005644472160376608
1783246417846229000,0.33222900390625,-0.02172726316154003,-0.009632445817999541,0.012779137212736531
1783246417856240000,0.342240234375,-0.008706453546881675,-0.0005524097183719277,0.006808558920130599
1783246417866252000,0.352251953125,-0.02322130111157894,0.006768288558535278,0.004950117237644735
1783246417876264200,0.36226416015625,-0.01693359914422035,-0.011409757688827812,0.005670987991255242
1783246417886275000,0.372275146484375,-0.018575521132349965,-0.002989719867892563,-0.00016919397088931872
1783246417896287000,0.382286865234375,-0.018124270233511923,0.003681684187427163,0.0064912320326897316
1783246417906297900,0.3922978515625,-0.015433715975284576,-0.007772789425961673,-0.0038564082833821883
1783246417916310000,0.40231005859375,-0.027103110980987548,-0.0124783367684111,0.0044464328986709
1783246417926321200,0.412321044921875,-0.028748540100455282,0.0042795404827222225,0.0041763700859039085
1783246417936333000,0.4223330078125,-0.02246200717687607,0.004074921288713813,-0.00013424138851696624
1783246417946345200,0.43234521484375,-0.02321077971756458,-0.005034194774925708,-0.016006399013416377
1783246417956356000,0.442356201171875,-0.022162731969356534,-0.015527495205961167,0.01685323651754297
1783246417966368000,0.452367919921875,-0.008246434819698334,0.0030400252830237147,0.012166307110595517
1783246417976379000,0.46237890625,-0.006449030008912086,-0.008833221731707454,0.0036469097015680743
1783246417986391000,0.47239111328125,-0.03024316257238388,-0.001012282315082848,-0.006882959880190901
1783246417996402000,0.48240185546875,-0.03413607835769653,-0.0030531404929235576,0.007899881837773137
1783246418006413800,0.492413818359375,-0.01198971300125122,-0.01935669810529798,0.009982668044755701
1783246418016426000,0.502426025390625,-0.011838321831822395,0.006637574850954115,0.009231840544298757
1783246418026437000,0.51243701171875,-0.02096913827061653,0.003263129981793463,0.004246110853867139
1783246418036449000,0.522448974609375,-0.012288403686881064,-0.0018662687959149478,0.013246275233873166
1783246418046460000,0.5324599609375,-0.015578677403926848,-0.01149224834050983,0.009502154518815222
1783246418056472000,0.54247216796875,-0.03099427320063114,0.0016007131949067116,0.016659661590645556
1783246418066483000,0.55248291015625,-0.013037176227569579,0.0030882118063047526,0.00891557995264884
1783246418076494800,0.562494873046875,-0.02919920647740364,-0.016038769196346402,0.01527358437697403
1783246418086507000,0.572507080078125,-0.013041267880797385,-0.008040062060020864,0.019837403427483514
1783246418096518100,0.58251806640625,-0.027855975174903867,0.00020849165152758359,0.01056210733394837
1783246418106530000,0.592530029296875,-0.017983400458097456,-0.0076378014020621774,0.004135709281952586
1783246418116541000,0.602541015625,-0.014687281522154807,0.02054444658514112,0.006274732887931168
1783246418126553000,0.612552978515625,-0.023515315622091294,-0.009552147123403847,0.010085943472851067
1783246418136564000,0.62256396484375,-0.017081483182311057,0.006627857174538076,0.010242303078342228
1783246418146576000,0.632575927734375,-0.01618424208164215,-0.0036870910149067637,0.004079814376251306
1783246418156588000,0.642588134765625,-0.03578559913039207,-0.008646357390098273,-0.0006056719922809861
1783246418166599000,0.652598876953125,-0.018579028263688086,0.00007240764908492565,0.006416034204897005
1783246418176611000,0.662611083984375,-0.016785715106129646,-0.0015171630972996353,-0.0018306540598394348
1783246418186622000,0.6726220703125,-0.02142623438835144,-0.008218085508048534,0.003941995074448641
1783246418196634000,0.682634033203125,-0.016637831068038938,-0.001025689785927534,0.009013754513941239
1783246418206645000,0.69264501953125,-0.015587445232272148,-0.005446867229044437,0.0122622760150698
1783246418216657000,0.702656982421875,-0.034741643035411836,0.010124722846969962,-0.009362145543214864
1783246418226669000,0.7126689453125,-0.01962941409945488,0.0005677899505943059,-0.0007346412673476151
1783246418236680000,0.722679931640625,-0.01933130793571472,0.010629530563950537,0.0011428384757484309
1783246418246691800,0.73269189453125,-0.019783727878332137,0.0026265125786885616,-0.0017480264108395204
1783246418256703000,0.742702880859375,-0.017389526218175886,-0.008585640178807079,0.01474699180315947
1783246418266715100,0.752715087890625,-0.0090104049295187,-0.003642813481763005,0.00890879173554713
1783246418276727000,0.76272705078125,-0.03175532070100307,-0.009326302478276193,0.004128480390144977
1783246418286738000,0.772738037109375,-0.029511341166496275,0.0030978929501026867,0.00477908750269562
1783246418296750000,0.78275,-0.021281857481598852,-0.0022801102938130495,0.013973116787255276
1783246418306761000,0.792760986328125,-0.026521511700749397,-0.008644165433011948,-0.0008039664767798967
1783246418316772900,0.80277294921875,-0.02083352919220924,-0.007491634397022426,-0.006657765972323249
1783246418326784000,0.812783935546875,-0.015442483803629874,-0.0029563655875623224,0.004731115608545952
1783246418336796200,0.822796142578125,-0.012447978162765503,-0.00001366319917142391,0.01126612056759186
1783246418346807000,0.83280712890625,-0.014691373175382614,0.0002531710434705019,-0.001910998420207761
1783246418356819000,0.84281884765625,-0.020528993287682533,-0.001346592303365469,-0.00232671906464966
1783246418366831000,0.8528310546875,-0.009154197314381598,-0.00005436053574085235,-0.008126683180837426
1783246418376842000,0.862842041015625,-0.02307224802970886,0.0026754297543317078,0.0013245471516274846
1783246418386854000,0.87285400390625,-0.019032617250084875,0.0006093640699982643,0.0012010897353175096
1783246418396864800,0.88286474609375,-0.012002572482824325,-0.011137297422997653,0.007671884051465894
1783246418406877000,0.892876953125,-0.014248305583000182,-0.007073372452333569,-0.0008387774952570907
1783246418416888000,0.90288818359375,-0.030258944663405417,-0.00393752211201936,0.00544625302440254
1783246418426900000,0.91289990234375,-0.0299590849339962,0.0011329495526850224,0.022562353145657105
1783246418436912000,0.922912109375,0.002360299390554428,-0.0050895782239735125,0.005637665676965844
1783246418446923000,0.932923095703125,-0.009010989451408385,0.001455788298882544,-0.0029366082910331896
1783246418456935000,0.942934814453125,-0.018287936362624168,0.005179521529749036,0.005847926877182908
1783246418466945800,0.95294580078125,-0.009309095615148543,0.005307239562645554,0.008024101872486061
1783246418476958000,0.9629580078125,-0.019338322198390958,-0.004028378733247518,0.008156957304803654
1783246418486969000,0.972968994140625,-0.03714695061147213,-0.002346197799965739,0.0034531132956733923
1783246418496981000,0.98298095703125,-0.023232407027482985,0.005632343331165611,0.0015032441698014736
1783246418506993200,0.9929931640625,-0.022633856612443923,0.010271145580336451,0.005062651401141193
1783246418517004000,1.003004150390625,-0.014401450318098067,-0.001908792763389647,-0.006637679882231168
1783246418527016000,1.013015869140625,-0.014401450318098067,-0.01254544718787074,0.012766129317402373
1783246418537026800,1.02302685546875,-0.014254735323786735,-0.010221205491386354,0.004096002892649267
1783246418547039000,1.0330390625,-0.011710311537981032,-0.007243468322232365,0.005250983897340484
1783246418557051000,1.04305078125,-0.01665127507150173,0.0014968144290149212,0.0005546701741172001
1783246418567062000,1.05306201171875,-0.024281039297580718,-0.0031758900897577405,0.022440112722187766
1783246418577074200,1.06307421875,-0.03431085040271282,-0.014596680629253386,0.007825076735625044
1783246418587085000,1.0730849609375,-0.020547113466262815,-0.00584127337411046,0.013401945286197587
1783246418597096700,1.0830966796875,-0.020247838258743284,-0.007037351290881634,0.00010828496335307136
1783246418607107600,1.093107666015625,-0.012765373548865318,-0.014373941256664692,0.008833169216068927
1783246418617119500,1.103119384765625,-0.020848142239451407,-0.00817742470409721,-0.0032594059380353425
1783246418627131400,1.11313134765625,-0.020252514433860776,-0.005854863508045673,0.001012387346359901
1783246418637142800,1.123142822265625,-0.021601590955257415,-0.01132339457962662,0.016739044686499983
1783246418647154700,1.13315478515625,-0.008432312780618668,-0.012249386850744485,0.012278306984552182
1783246418657165600,1.14316552734375,-0.029230186137557027,-0.011103395153395831,-0.00012232490514870733
1783246418667177700,1.153177734375,-0.010077741900086402,0.0024008871292695404,0.008701948618411552
1783246418677188600,1.163188720703125,-0.012922025415301323,-0.004460961464233696,0.004022302902198862
1783246418687200500,1.173200439453125,-0.021299977660179138,-0.005107954130880534,0.004854561608412768
1783246418697211400,1.18321142578125,-0.00993102690577507,-0.00802289172951132,0.004174541171710007
1783246418707223600,1.1932236328125,-0.0254974293500185,-0.008212094158679246,0.025559911543421913
1783246418717235500,1.2032353515625,-0.02011339822411537,-0.008886997745558619,0.015849893277452794
1783246418727246600,1.21324658203125,-0.027444471764564514,-0.0027822145970538255,-0.0007608945200336166
1783246418737258800,1.2232587890625,-0.027144612035155294,0.002443812955543399,0.008248174685635604
1783246418747269600,1.23326953125,-0.022207155632972715,0.007994104026444257,0.006594799721729942
1783246418757281500,1.243281494140625,-0.01398001003563404,-0.00659811962340027,0.002799213680916
1783246418767292400,1.25329248046875,-0.006498714369535446,-0.011076835940033197,0.000414494518446736
1783246418777304600,1.2633046875,-0.016823124507069586,-0.0043482218047603965,0.006340845510258804
1783246418787316500,1.27331640625,-0.014874328526854514,0.00019508418068289756,0.001867099912976846
1783246418797327600,1.28332763671875,-0.015322656816244125,-0.0016256649730727075,-0.0010436090351082384
1783246418807339800,1.29333984375,-0.021154431709647176,-0.008012991390004753,-0.002905082924896851
1783246418817350700,1.3033505859375,-0.02115267814397812,-0.006866890094801783,0.009137175397633108
1783246418827362600,1.313362548828125,-0.01845861675441265,-0.007484875862672925,-0.00526929358887719
1783246418837374700,1.323374755859375,-0.03237666746973991,0.011401135990954934,0.0030031775710871443
1783246418847385600,1.333385498046875,-0.019511925199627876,-0.004658201069384813,0.011520969828206579
1783246418857397500,1.3433974609375,-0.01606733770370483,-0.0014457783615216611,0.003100180805311538
1783246418867408600,1.35340869140625,-0.006938859352469444,-0.0035513723386451598,-0.005306890219484921
1783246418877420500,1.363420654296875,-0.01516775851547718,-0.006426891242340207,0.00255379440234974
1783246418887431700,1.373431640625,-0.014268763849139212,-0.004361337014660239,0.011644817686872555
1783246418897443600,1.383443603515625,-0.024144845697283743,-0.006316380072571337,0.00784028343791142
1783246418907455700,1.393455810546875,-0.024294483301043508,0.0011696283012628554,0.003017379626375623
1783246418917466600,1.403466552734375,-0.02339782672226429,-0.003897591960430145,0.010748921443207654
1783246418927478500,1.413478515625,-0.02205050376653671,-0.006756780783832073,0.012235342342371586
1783246418937489400,1.423489501953125,-0.0063397244155406944,-0.016439787745289505,-0.000856447865976952
1783246418947501600,1.43350146484375,-0.02340074933171272,0.012787585380673408,-0.0025595368732581844
1783246418957512700,1.4435126953125,-0.02265314583480358,0.010408106365613639,0.00144537421943387
1783246418967524600,1.453524658203125,-0.025196400576829907,-0.013391981014609335,0.009246633971342816
1783246418977536800,1.463536865234375,-0.01906593499779701,-0.004153466417640447,0.007179109265573788
1783246418987547600,1.473547607421875,-0.03582534661889076,-0.012224325474724173,0.006001313640875742
1783246418997559600,1.4835595703125,-0.019364041161537168,-0.015554602408595382,0.007933590027841273
1783246419007570400,1.4935703125,-0.01981236945092678,-0.008532740947790444,0.007220466472557746
1783246419017582600,1.50358251953125,-0.03477671434879303,-0.0038654797891154885,-0.0005456648837542161
1783246419027593700,1.51359375,-0.02220481754541397,-0.006779723268002271,0.0033547241052496245
1783246419037605600,1.523605712890625,-0.026395254972577095,-0.01378518158327788,0.00472915883018868
1783246419047617800,1.53361767578125,-0.02490004797875881,-0.004774776653759181,0.01625210141977295
1783246419057628700,1.543628662109375,-0.024300328519940375,0.0004258972618728876,-0.004929266245861072
1783246419067640600,1.553640625,-0.01397825646996498,-0.002342982929572463,-0.003122872127732262
1783246419077651500,1.5636513671875,-0.031788638448715205,-0.006590703501924872,0.01076387926703319
1783246419087663600,1.57366357421875,-0.017875848430395126,-0.006947590648196637,0.005640764099638909
1783246419097674500,1.583674560546875,-0.02520809101462364,-0.004703830309398472,-0.0011266042935778387
1783246419107686400,1.593686279296875,-0.011287117689847945,0.001300524671934545,-0.003809217273944523
1783246419117698600,1.603698486328125,-0.024454642298817632,-0.005740954804793,0.009028490858769509
1783246419127709700,1.613709716796875,-0.01816986294090748,-0.006200535140559077,0.007326538929226808
1783246419137721600,1.6237216796875,-0.016818448331952094,0.008943696368858218,0.000006046148296445607
1783246419147732500,1.633732421875,-0.013527590093016623,0.008225501629523933,0.013054899113927968
1783246419157744600,1.64374462890625,-0.016071429356932638,-0.008376454407535493,0.007418667342222761
1783246419167755500,1.653755615234375,-0.025050270104408263,-0.0017676307270303368,0.0002872240101220086
1783246419177767400,1.663767333984375,-0.0216109433054924,0.01370396957322955,0.003925329350726679
1783246419187779600,1.673779541015625,-0.021911387556791305,-0.0012383461559191346,0.009113634691841434
1783246419197790700,1.683790771484375,-0.02415419804751873,-0.01939228087533265,0.0033187417597044257
1783246419207802600,1.693802734375,-0.011434417206048965,-0.0053512613674625755,0.00011973793912911786
1783246419217813500,1.7038134765625,-0.019513094243407247,0.00328241920415312,-0.00904263811513083
1783246419227825700,1.71382568359375,-0.043753801530599594,0.008821239032968877,0.004350922935211565
1783246419237836500,1.72383642578125,-0.02759235580265522,-0.006909962051548063,0.008349952276388649
1783246419247848400,1.733848388671875,-0.022507015362381935,0.0009171879101544619,0.0005471878372714854
1783246419257860600,1.743860595703125,-0.023850831186771393,0.011167217637225986,-0.0001949585998081602
1783246419267871700,1.753871826171875,-0.02669043852686882,-0.007778561579622328,0.002103239906544331
1783246419277883600,1.763883544921875,-0.019206220251321793,0.005334091036953032,0.016272950128267984
1783246419287894500,1.77389453125,-0.011276596295833587,0.004616005895473062,0.004476211549004074
1783246419297906700,1.78390673828125,-0.022644962528347967,-0.002074906577914953,0.004114440448349342
1783246419307917600,1.79391748046875,-0.026682839742302893,-0.006622742608003318,0.002718812238331884
1783246419317929500,1.803929443359375,-0.007679448586702347,0.003416786173544824,0.0010568566757487132
1783246419327941600,1.813941650390625,-0.019202128598093986,-0.0056941199883818626,0.008505272985552438
1783246419337952500,1.823952392578125,-0.015008768561482429,-0.0143172791659832,0.005196465814684052
1783246419347964400,1.83396435546875,-0.016354922473430632,-0.01043747859057039,-0.0014700816857162863
1783246419357975600,1.8439755859375,-0.020543606334924698,-0.007322232646867632,0.012468315414607058
1783246419367987700,1.85398779296875,-0.010068389549851417,-0.01780924946758896,0.0075456615726230665
1783246419377998600,1.86399853515625,-0.019195114335417745,-0.003466762795113027,0.010420506906171795
1783246419388010500,1.874010498046875,-0.024282792863249778,0.0014635697465389967,0.014460941403394099
1783246419398022700,1.884022705078125,-0.020544190856814384,0.007211319618299603,-0.0000036418453673832116
1783246419408033500,1.894033447265625,-0.019496727630496025,-0.007158968376554548,0.006552533765870612
1783246419418045400,1.90404541015625,-0.012612228813767433,-0.0015083952689543365,0.0133379469891428
1783246419428056600,1.914056640625,-0.022334581404924392,0.0009373173827305436,-0.000010722323413938283
1783246419438068700,1.92406884765625,-0.01485270121693611,-0.012977554994821547,0.009580542100826277
1783246419448079600,1.93407958984375,-0.026678748089075086,-0.0019380188578739762,0.008142595419310963
1783246419458091500,1.944091552734375,-0.017549100694060325,-0.0061577189121395344,-0.006458733985596336
1783246419468103700,1.954103759765625,-0.02203705976307392,-0.010080335715971887,0.003120801184943411
1783246419478114600,1.964114501953125,-0.019942717832326887,0.008476663378998637,0.0047313896031817414
1783246419488126500,1.97412646484375,-0.014407295536994933,-0.002261843984760344,0.007376029210316482
1783246419498137600,1.9841376953125,-0.021738369077444076,-0.0042355917431414125,0.00950530089054955
1783246419508149500,1.9941494140625,-0.029518355429172513,0.014743286025710404,0.009482278491277247
1783246419518160600,2.00416064453125,-0.008420037820935249,0.00038198505491018295,0.009440313929517287
1783246419528172500,2.014172607421875,-0.010365326669812202,-0.01025021239016205,0.0002778990593506023
1783246419538184700,2.024184814453125,-0.026670564782619473,-0.0003564487548545003,0.011380337514809798
1783246419548195600,2.034195556640625,-0.02173077029287815,-0.007278283907286822,0.020652532902383246
1783246419558207500,2.04420751953125,-0.017387772652506826,-0.019197269759885966,0.0020540099203586576
1783246419568218400,2.05421826171875,-0.01858019730746746,-0.002552497494406998,0.002187212412548251
1783246419578230500,2.06423046875,-0.013338789522647857,0.0015410554295405745,0.004021181807480752
1783246419588241700,2.07424169921875,-0.00959726490676403,-0.015692622639797628,0.007117010664660483
1783246419598253600,2.084253662109375,-0.022464345264434814,-0.007955014125071465,-0.0008463146310299634
1783246419608265500,2.094265380859375,-0.023360417321324347,0.005308737399987876,0.0011875977827934547
1783246419618276400,2.1042763671875,-0.014831658428907393,-0.0017122838106006383,0.011729354165168479
1783246419628288500,2.11428857421875,-0.006152677410840988,-0.0039515871699899435,0.011582808134215883
1783246419638299400,2.12429931640625,-0.013780103549361229,-0.00780713008698076,0.009163113556487952
1783246419648311300,2.134311279296875,-0.016321604725718496,-0.012664506990276277,0.009218095146736596
1783246419658322700,2.14432275390625,-0.011830138525366782,-0.012720730689540504,-0.0008650695638498291
1783246419668334600,2.15433447265625,-0.021257307562232017,-0.003747187171690166,-0.004456109475891572
1783246419678346500,2.164346435546875,-0.01033317796587944,0.004176299303956329,0.005434820598224178
1783246419688357400,2.174357421875,-0.02723988910317421,-0.0030635522890835997,-0.00454798672713805
1783246419698369500,2.18436962890625,-0.027393033838272095,-0.00612224573995918,0.003859193895512726
1783246419708380400,2.19438037109375,-0.01976151604652405,0.005403977935388684,-0.004455746432999149
1783246419718392300,2.204392333984375,-0.020807225707173346,0.007147351003997027,-0.0020877021274063735
1783246419728404500,2.214404541015625,-0.01153086331784725,-0.0015010887453332543,0.0034253827552427536
1783246419738415400,2.224415283203125,-0.027545009529590606,0.005150953022390604,0.0016741939896484836
1783246419748427300,2.23442724609375,-0.016922493228316307,-0.016505765653587877,0.017217437037301716
1783246419758438400,2.2444384765625,-0.021858196064829825,-0.013139357960410415,0.01184944373074686
1783246419768450600,2.254450439453125,-0.013925649499893188,-0.002562324768677354,0.008825355802371631
1783246419778461400,2.26446142578125,-0.02455108841061592,-0.0004484744198620319,0.014452408753777853
1783246419788473300,2.274473388671875,-0.012878186273574828,-0.0024138927413150666,0.006319334648060612
1783246419798485500,2.284485595703125,-0.014675591084361075,-0.005514306442067027,0.0008983073964598589
1783246419808496400,2.294496337890625,-0.02514846978187561,-0.007074760691821575,-0.0037037316224537787
1783246419818508300,2.30450830078125,-0.022153964141011236,-0.00817019124571234,0.0008780888756271451
1783246419828519400,2.31451953125,-0.024399112719297407,-0.007856777914986015,0.003380714779742993
1783246419838531600,2.324531494140625,-0.015870938348770142,0.01013086032681167,-0.020282233718689528
1783246419848542500,2.33454248046875,-0.023953122517466542,-0.007643463957868516,0.0005970845437375828
1783246419858554400,2.344554443359375,-0.020512626674771307,-0.004170307954587042,0.007478331957454793
1783246419868566500,2.35456640625,-0.023208441630005835,0.010555515479668974,-0.006932612274773419
1783246419878577400,2.364577392578125,-0.018421207353472708,-0.014121500865556299,-0.003704578722536098
1783246419888589300,2.37458935546875,-0.015131518158316612,-0.001785129851102829,-0.006420073342486284
1783246419898600400,2.384600341796875,-0.02381225274205208,-0.004884630236402154,-0.0012322041095001622
1783246419908612600,2.394612548828125,-0.02321604041457176,-0.011861337381228803,0.004061182741017546
1783246419918623500,2.40462353515625,-0.033688919112086296,0.0006698986181989312,0.01395580032627331
1783246419928635400,2.414635498046875,-0.023065233767032622,-0.0036617739105597137,0.0121140380672412
1783246419938647600,2.4246474609375,-0.012291910818219185,-0.010093779719434677,-0.0029404784652637315
1783246419948658400,2.434658447265625,-0.025158991175889968,-0.0007143953470513224,-0.005056952312716748
1783246419958670300,2.44467041015625,-0.02021978120803833,0.0038985783411189913,0.005395296872011386
1783246419968681500,2.454681396484375,-0.014236030623316765,0.0003595905600115657,-0.01090520113359671
1783246419978693400,2.464693359375,-0.02546001994907856,0.002183189257979393,0.009432938907237258
1783246419988704500,2.47470458984375,-0.02307107898592949,-0.007264876436442137,0.009265393470739946
1783246419998716400,2.48471630859375,-0.02082885301709175,-0.007064860352315008,0.007427026461903005
1783246420008728600,2.494728515625,-0.01977788265943527,-0.0031026421904563903,0.007941216211870777
1783246420018739500,2.504739501953125,-0.01424187584221363,-0.012820830063149333,0.0040135967226466165
1783246420028751400,2.51475146484375,-0.029057167658209797,-0.0011264102140441537,0.0021289543031132777
1783246420038762500,2.524762451171875,-0.01798632306754589,0.0065550841992720954,0.0074107146479189395
1783246420048774400,2.5347744140625,-0.01679039128124714,-0.02020012665949762,0.0018403283537714742
1783246420058785500,2.54478564453125,-0.015595044016838073,-0.010582184290885924,0.011871931840479374
1783246420068797400,2.55479736328125,-0.01814063684642315,-0.0063397609481588004,0.0017355231222929432
1783246420078809600,2.5648095703125,-0.02741933732330799,-0.005110036490112543,0.00159726086249575
1783246420088820500,2.574820556640625,-0.016195932519435883,-0.00767089995406568,0.010987641552928834
1783246420098832400,2.584832275390625,-0.01829261253774166,-0.009128989807888866,0.003426307487138547
1783246420108843500,2.594843505859375,-0.029516017341613767,0.01214114070329815,-0.0050621171116014005
1783246420118855400,2.60485546875,-0.020837620845437048,-0.0023645371742546557,0.007603392242384143
1783246420128866600,2.614866455078125,-0.02503156540393829,0.0029694807974621653,0.0020089035534416326
1783246420138878500,2.62487841796875,-0.018297288712859152,0.00011832915004342794,0.002221820218337234
1783246420148890400,2.634890380859375,-0.019792495706677436,0.004716616725735366,0.0012807331260759384
1783246420158901500,2.644901611328125,-0.015902502530813215,-0.0009529898758977651,-0.004158960010088049
1783246420168913400,2.654913330078125,-0.02203705976307392,-0.004712744268216193,0.013139168447453994
1783246420178924500,2.664924560546875,-0.014255904367566108,-0.01969126382190734,-0.007095250924001447
1783246420188936400,2.6749365234375,-0.019792495706677436,-0.010860014851577579,-0.0013682401628815567
1783246420198947300,2.684947265625,-0.02114391031563282,-0.0010139993481338024,0.0016504843204980715
1783246420208959200,2.694959228515625,-0.012167992177605629,0.000845291717723012,-0.0040241477994131854
1783246420218971400,2.704971435546875,-0.015758710145950316,-0.004997735222056507,0.011682615246879868
1783246420228982500,2.714982421875,-0.027582418930530546,-0.0064425637355074285,0.006460131358238868
1783246420238994400,2.724994384765625,-0.02189677450954914,0.008393953531607984,0.007385150948399677
1783246420249005600,2.735005615234375,-0.016212299132347105,-0.006683496351912618,0.008574938404990825
1783246420259017500,2.745017578125,-0.01232347500026226,0.0029508126296103,-0.0020270260153105483
1783246420269028400,2.7550283203125,-0.026687515917420385,-0.007706300061009824,-0.000949985068058595
1783246420279040500,2.76504052734375,-0.013670797955989836,-0.0033295097488909957,0.01414613070002524
1783246420289052400,2.775052490234375,-0.0034989480316638946,-0.012821852976456284,0.007060058596322779
1783246420299063600,2.7850634765625,-0.020405659168958663,-0.005539185154996812,-0.01284105315055931
1783246420309075500,2.795075439453125,-0.024746903243660925,-0.0020597455414012073,-0.005582853050075937
1783246420319086600,2.805086669921875,-0.023999299746751784,-0.005795753731951117,-0.005624511651159264
1783246420329098500,2.815098388671875,-0.016669979771971703,-0.0016815233461558818,0.0019501933528576045
1783246420339110400,2.8251103515625,-0.033733342775702474,-0.013386683784984052,-0.00083962459533941
1783246420349121500,2.83512158203125,-0.02535539053082466,-0.004949694829247892,0.0044167980955215165
1783246420359133400,2.845133544921875,-0.02311316456198692,-0.004750445930100977,-0.0003728427672293037
1783246420369144300,2.855144287109375,-0.031046295648813244,-0.013212277066148817,0.008874014966399408
1783246420379156200,2.86515625,-0.018327099329233168,-0.009174545982666314,0.0068203064401401205
1783246420389167600,2.875167724609375,-0.012039981883764267,-0.0007075637474656105,0.0008562309535569511
1783246420399179500,2.885179443359375,-0.02745850028991699,0.007372209268435835,0.001859192884445656
1783246420409191400,2.89519140625,-0.02312251691222191,0.00386610084362328,0.006483594432217068
1783246420419202600,2.90520263671875,-0.012501754176616668,-0.002171060428768396,-0.0018583846002700737
1783246420429214500,2.91521435546875,-0.013700024050474166,-0.0007941095197573304,-0.0021570478864363393
1783246420439225300,2.925225341796875,-0.012504092264175414,0.0011839490875601769,0.007765498885361012
1783246420449237200,2.9352373046875,-0.01250643035173416,-0.008488280751556158,0.004979557961260434
1783246420459248600,2.94524853515625,-0.01819324381649494,-0.007407353647053241,-0.009918187973799649
1783246420469260500,2.955260498046875,-0.018192659294605253,-0.0032395664431154724,0.003787484932749066
1783246420479272400,2.9652724609375,-0.008617021697759629,-0.011906783958151935,-0.004510364980355371
1783246420489283600,2.97528369140625,-0.008470306703448295,-0.005837583579681813,0.005463480437127873
1783246420499295500,2.98529541015625,-0.01505319222509861,-0.0024301132237538694,0.003795805236522574
1783246420509306400,2.995306396484375,-0.02148994727432728,-0.002072605022974312,0.009627518481132575
1783246420519318300,3.005318359375,-0.012962941947579383,0.0062072206096723676,0.011712982985679991
1783246420529329700,3.01532958984375,-0.019548165556788445,0.009080839817225933,0.006496540678758174
1783246420539341600,3.025341552734375,-0.04139700927138328,0.008539682145230472,-0.003374472268624231
1783246420549353500,3.035353515625,-0.020596797826886174,0.0007402604406699538,0.010799110410618595
1783246420559364600,3.045364501953125,-0.024339491486549375,-0.0016164952859282493,0.00208722263679374
1783246420569376500,3.05537646484375,-0.01940495769381523,-0.007219028000719845,0.009975621816038619
1783246420579387400,3.065387451171875,-0.00982815105319023,-0.021883367038704454,0.014817369608650915
1783246420589399300,3.0753994140625,-0.02539163088798523,0.005688749693520367,0.0013686922540306113
1783246420599411000,3.085410888671875,-0.02239829429090023,0.0014790961092337965,0.010453349729848559
1783246420609422800,3.0954228515625,-0.024941549032926558,-0.0048271644281223415,0.0012215183187043294
1783246420619435000,3.10543505859375,-0.022998013749718663,0.003298128229938447,-0.002247121339663863
1783246420629446100,3.115446044921875,-0.028086861321330068,0.004078866811469197,0.00713911746519152
1783246420639458000,3.1254580078125,-0.03242868991792202,-0.011129296779632567,0.0006609663930721581
1783246420649469000,3.135468994140625,-0.024351766446232794,-0.0013212021337822078,0.004655100363423116
1783246420659481000,3.145481201171875,-0.023605916514992713,-0.0005169000135734677,0.0018708787556621245
1783246420669492000,3.155491943359375,-0.019416063609719276,-0.0006811506645753979,0.0009013624366489239
1783246420679504000,3.16550390625,-0.01806640256643295,-0.0019459829686209558,0.01076863764054142
1783246420689516000,3.17551611328125,-0.023750877943634986,0.002498465752229094,0.003723564267507754
1783246420699527000,3.18552685546875,-0.014922843843698502,0.0035487419901415705,0.011169822869554627
1783246420709538800,3.195538818359375,-0.024649872609972954,0.004304309597797692,-0.010458571610949001
1783246420719550000,3.205550048828125,-0.02495090138316154,0.0015151538033038377,-0.006570989587879739
1783246420729562000,3.21556201171875,-0.023306056785583496,-0.011770882618799805,-0.006672915592393838
1783246420739574000,3.225573974609375,-0.010886135673522949,-0.00638140813279897,-0.010062306868936865
1783246420749585000,3.2355849609375,-0.021060908207297325,-0.0034000542344525455,0.010716777305852156
1783246420759597000,3.24559716796875,-0.015077742144465446,0.0030866043711081145,-0.002105671608936973
1783246420769608000,3.25560791015625,-0.01492459740936756,-0.008825622947141528,-0.00001334353876300156
1783246420779619800,3.265619873046875,-0.01926467244029045,-0.0032785467466339467,0.00031134010464884337
1783246420789631000,3.275630859375,-0.02480067925751209,-0.009282317206077277,0.0020726369890151546
1783246420799643100,3.28564306640625,-0.017767711880803106,-0.0019451792510226367,0.015118503413116558
1783246420809655000,3.295655029296875,-0.027343349477648732,-0.01692629262059927,-0.003225049293995835
1783246420819666000,3.305666015625,-0.0014566285490989685,-0.019162856033630667,-0.00006716978496406226
1783246420829678000,3.315677978515625,-0.011336217528581619,-0.0009774301974102854,0.0031823700628941876
1783246420839689000,3.32568896484375,-0.030638883891701697,0.007534998614713549,-0.009889151392271742
1783246420849700900,3.335700927734375,-0.025702012011408804,0.009369520565494895,0.0019938361317617817
1783246420859712000,3.3457119140625,-0.030194062733650207,-0.00027165654823184014,-0.0015182636424200609
1783246420869724200,3.35572412109375,-0.021065584382414817,-0.012715871851332486,0.010974051418993621
1783246420879736000,3.365736083984375,-0.024206220495700835,-0.004683445108495652,0.010498899054760112
1783246420889747000,3.375746826171875,-0.011337386572360992,0.008775975119136274,0.004639194974815472
1783246420899759000,3.385759033203125,-0.02076514013111591,-0.005717683527059853,-0.00613567376040155
1783246420909770000,3.39577001953125,-0.013582535150647163,-0.0054249841907992955,0.0064150752236717375
1783246420919782000,3.405781982421875,-0.015977321332693098,-0.0006262786721810698,0.006381602212332654
1783246420929792800,3.415792724609375,-0.020313304710388183,-0.0002487871292978525,0.0007557411375921219
1783246420939805000,3.425804931640625,-0.02106149272918701,-0.004898074239864945,-0.0007637098149163648
1783246420949816800,3.43581689453125,-0.01253039574921131,0.00403871746417135,0.006986459070572163
1783246420959828000,3.445827880859375,-0.024350012880563734,0.0005562821758911013,0.0027905554504250173
1783246420969840000,3.455840087890625,-0.0011532616883516312,-0.00821508983336389,0.005580117670295294
1783246420979851000,3.46585107421875,-0.01791267330944538,-0.001325476450100541,0.003357171790662687
1783246420989863000,3.47586279296875,-0.01626782871186733,0.003629917467571795,-0.0036193161584553305
1783246420999873800,3.485873779296875,-0.02689092953503132,-0.0028254692168906328,-0.004221768713765777
1783246421009886000,3.495885986328125,-0.0008516483932733535,-0.004837905017845332,-0.004957289047236554
1783246421019897900,3.50589794921875,-0.016417466315627096,0.005586641025915742,0.0007211721477098763
1783246421029909000,3.515908935546875,-0.022404724031686783,-0.0048557694680988785,0.010259153748443349
1783246421039921200,3.525921142578125,-0.021805004572868346,0.0008032061416655778,-0.007386726417555473
1783246421049932000,3.53593212890625,-0.028092706540226935,0.003717193892225623,0.006286647088010795
1783246421059944000,3.54594384765625,-0.02046469587981701,-0.0066747650561854235,0.007274007307679858
1783246421069956000,3.5559560546875,-0.025253099200129508,-0.009523030626773834,-0.005464665463927668
1783246421079967000,3.565967041015625,-0.017172668597102165,-0.0012924874959513544,0.006854179026989732
1783246421089979000,3.575978759765625,-0.020764555609226226,-0.008015767868980764,0.0029168738273903727
1783246421099990000,3.585989990234375,-0.026152093866467475,0.00023059388548135756,0.007468915675138123
1783246421110002000,3.596001953125,-0.02765022346973419,-0.0019688889201730487,0.010721905572118703
1783246421120013000,3.606012939453125,-0.015528993043303489,-0.006028429976664483,-0.0015466791694401763
1783246421130025000,3.61602490234375,-0.019122049099206923,-0.00344308965858072,-0.010396518675808328
1783246421140037000,3.626037109375,-0.022264438778162,-0.0025412089154124256,-0.012794414696970489
1783246421150048000,3.636048095703125,-0.026454291683435438,0.00971804174222052,-0.0006764379568397999
1783246421160060000,3.646059814453125,-0.01657762531340122,-0.006162943076528609,-0.007686519931594375
1783246421170070800,3.65607080078125,-0.022564883029460907,0.0007602437827736139,0.007803013317578006
1783246421180083000,3.6660830078125,-0.00715162532031536,-0.005243161350488662,-0.0004232326640398241
1783246421190094000,3.676093994140625,-0.02600362530648708,0.007412066354788839,0.004063342732063028
1783246421200106000,3.68610595703125,-0.021213468420505522,-0.01057155329901725,-0.00466286811134778
1783246421210118100,3.6961181640625,-0.016578794357180595,0.005088189984485507,-0.005971174230938777
1783246421220129000,3.70612890625,-0.024658055916428563,0.002213986255042255,0.009988029206462669
1783246421230141000,3.716140869140625,-0.017325228810310362,-0.0039188904767856,0.011866892622469458
1783246421240151800,3.72615185546875,-0.01747252832651138,-0.0005488660544157028,0.011438915284653194
1783246421250164000,3.7361640625,-0.02420563597381115,0.006327047597058117,0.002997051507688593
1783246421260175000,3.746175048828125,-0.033034254595637316,-0.0005604103617370129,-0.012441970830375794
1783246421270187000,3.75618701171875,-0.02240706211924553,0.0011577552003785966,-0.00041097597066545855
1783246421280199200,3.76619921875,-0.021956980264186857,0.004879369539394975,0.012068703371461015
1783246421290210000,3.7762099609375,-0.021955226698517797,-0.0027978870902210474,-0.0007646984788938425
1783246421300222000,3.786221923828125,-0.027940730848908423,-0.0059306321579962965,0.0028756353514152577
1783246421310232800,3.79623291015625,-0.026440847679972648,0.0019139803951606154,-0.004016576414310839
1783246421320245000,3.806244873046875,-0.0306301160633564,-0.0010873568452894687,-0.002012782860826701
1783246421330257000,3.8162568359375,-0.032574820390343665,-0.006195749367587268,-0.0030301843090215696
1783246421340267800,3.826267822265625,-0.010127426260709761,-0.00009136807788163423,0.0049660020766546945
1783246421350280000,3.836280029296875,-0.027934885630011556,-0.0071074208524078124,0.006386280670738779
1783246421360291000,3.846291015625,-0.024344752183556556,0.006093129243329167,0.003100708244985435
1783246421370303000,3.856302978515625,-0.018355156379938124,-0.010033610497415066,0.007523842466459609
1783246421380313900,3.86631396484375,-0.015960370197892187,-0.01080108773857355,0.0007194391316385008
1783246421390326000,3.876325927734375,-0.009673837274312973,-0.005466448712348937,-0.001711331679241266
1783246421400338000,3.886337890625,-0.011169044268131256,-0.0018924261504784225,-0.012358306568337137
1783246421410348800,3.896348876953125,-0.012512275570631027,-0.01230564708262682,0.006273180251661688
1783246421420361000,3.90636083984375,-0.0213408941924572,-0.00213679283298552,0.00015373610685346647
1783246421430372000,3.9163720703125,-0.011165537136793136,-0.013501213542744516,-0.007459880702022928
1783246421440384000,3.926384033203125,-0.014309680381417274,-0.016005670644342898,-0.002875201526575256
1783246421450395000,3.936394775390625,-0.022687632626295088,-0.005118110198713839,0.006147211217856966
1783246421460407000,3.946406982421875,-0.01820025807917118,-0.0029863953996449705,0.00026544371986528855
1783246421470419000,3.9564189453125,-0.02882218985855579,0.004436119283922017,-0.0013688520842348225
1783246421480429800,3.966429931640625,-0.025831191349029538,-0.0012140154322609305,0.0030425848495797252
1783246421490442000,3.97644189453125,-0.02762275094091892,0.000035034780763089655,0.0009094087457866408
1783246421500453000,3.986453125,-0.009660977792739868,0.008434066346287726,0.010821671585587318
1783246421510465000,3.996465087890625,-0.023276830691099166,-0.013751461976766586,0.002413630163122434
1783246421520476000,4.006475830078125,-0.02028290957212448,0.0053727790795266624,0.00030649724946124477
1783246421530488000,4.016488037109375,-0.015047347006201743,0.00017572189308702945,0.009590979013161267
1783246421540500000,4.0265,-0.024476269608736036,-0.005903817216306924,-0.003972700739966239
1783246421550510800,4.0365107421875,-0.023579613029956818,-0.006618760552629828,0.0003113012887421064
1783246421560523000,4.04652294921875,-0.012055179452896117,-0.0023386720806360243,0.0033103027249220757
1783246421570534000,4.056533935546875,-0.02058569191098213,-0.0030448841212317346,0.0004972203488578088
1783246421580545800,4.0665458984375,-0.02791851901710033,-0.0004950535079464316,0.0014745295319706201
1783246421590557000,4.076556884765625,-0.013252864804863929,-0.009949585475772618,0.013516616607853211
1783246421600569000,4.086569091796875,-0.01534896030128002,0.00040043402705341574,-0.009819504239142407
1783246421610581000,4.0965810546875,-0.010262450817227363,-0.0061522755520418285,-0.003221128887415398
1783246421620591900,4.106591796875,-0.004722352346777915,-0.01641227868385613,-0.0033540939175873063
1783246421630604000,4.11660400390625,-0.024474516043066975,-0.0008359393674880266,-0.009281346808408851
1783246421640615000,4.126614990234375,-0.02477379125058651,0.006049801558256149,-0.005811606604920234
1783246421650626800,4.136626708984375,-0.012351532050967215,0.0035927272623404857,-0.005310543481295463
1783246421660639000,4.146638916015625,-0.0270136791318655,0.0018829642023891209,0.00008842720212414861
1783246421670650000,4.156650146484375,-0.03539338494241238,-0.0003584945814684033,0.0008346150600817054
1783246421680662000,4.166662109375,-0.024618308427929878,-0.005923216036520898,0.005324186130869202
1783246421690673000,4.1766728515625,-0.01175005902647972,-0.019063596910238265,-0.014082114136661402
1783246421700685000,4.18668505859375,-0.00905658215880394,-0.0015549743570387362,-0.0026999477076577023
1783246421710696000,4.196696044921875,-0.036592823860049244,-0.009712963708303868,-0.0028419499942334368
1783246421720707800,4.206707763671875,-0.025068390282988545,0.002353029399551451,-0.0007005860174074768
1783246421730720000,4.216719970703125,-0.014141922599077223,-0.006243534032069146,0.002044289960653987
1783246421740731000,4.22673095703125,-0.02251987484395504,-0.006293364523164927,0.004402552657749038
1783246421750743000,4.236742919921875,-0.03029752310812473,-0.004588533366657793,0.00714282552592922
1783246421760754000,4.24675390625,-0.016979191851615904,0.010511785935796797,-0.0003405867487308569
1783246421770766000,4.25676611328125,-0.02206979298889637,-0.008562770759873092,0.00031691132890991863
1783246421780777000,4.26677685546875,-0.021622049221396444,-0.004784238601848483,0.007985936703009065
1783246421790788900,4.276788818359375,-0.014442951372265814,-0.005451360741071403,0.007390340863459278
1783246421800801000,4.286801025390625,-0.016091303101181984,-0.0041849940670654175,-0.004058641440770588
1783246421810812000,4.29681201171875,0.005907762739062309,-0.011882526299729943,0.0010475294416886754
1783246421820823800,4.30682373046875,-0.0033668460845947264,0.012885931188613175,-0.00537192741286708
1783246421830835000,4.3168349609375,-0.019075287348031995,0.0144563588431105,-0.0070694132298463955
1783246421840847000,4.32684716796875,-0.020869185027480124,-0.0030849604032933712,0.0001465391810867004
1783246421850858000,4.33685791015625,-0.017275544449687003,-0.01839585371650755,0.017934688778431154
1783246421860870000,4.346869873046875,-0.015926467928290368,0.0021865502588450905,-0.008378614398580975
1783246421870882000,4.356882080078125,-0.028645664247870444,-0.006340710796229541,-0.008240212858177255
1783246421880893000,4.366892822265625,-0.0198158765822649,-0.004872866733372211,-0.004750512145471293
1783246421890904800,4.37690478515625,-0.021312252619862554,-0.006215257785655558,-0.005030794958153274
1783246421900916000,4.386916015625,-0.010687982752919196,-0.0026128128468990326,0.01437718809309881
1783246421910928100,4.39692822265625,-0.01936228759586811,-0.006468136568181217,0.006309034733043517
1783246421920940000,4.40693994140625,-0.01517301921248436,-0.002708564838953316,0.004541337790642865
1783246421930951000,4.416950927734375,-0.021460721179842948,-0.0036815745895728467,0.0015503780970233492
1783246421940963000,4.426963134765625,-0.01876665979027748,-0.003997654801420867,0.0036153181200614198
1783246421950974000,4.436973876953125,-0.02759878554344177,-0.0049558323090896006,0.00041991047908086326
1783246421960985900,4.44698583984375,-0.012035305708646773,0.0020562018774449822,-0.003441959430708084
1783246421970996700,4.456996826171875,-0.034328970581293104,-0.006093677232600748,0.0019671376377926207
1783246421981009000,4.4670087890625,-0.02041150438785553,-0.0013198138942942023,-0.007732048706908244
1783246421991020800,4.477020751953125,-0.01891512835025787,-0.005368395165354013,-0.003729436885868199
1783246422001032000,4.487031982421875,-0.011432079118490219,-0.009888539470918476,0.005215430810058023
1783246422011044000,4.497044189453125,-0.02430149756371975,0.012271489084698259,0.007326943071314599
1783246422021055000,4.507054931640625,-0.02085807911157608,-0.006029672085680067,-0.0009354565024957992
1783246422031067000,4.51706689453125,-0.018161679634451866,0.000039089901372790336,0.01002718988978304
1783246422041077800,4.527077880859375,-0.014421324062347411,-0.0014414309799671173,0.001235676991508808
1783246422051090000,4.53708984375,-0.02055705033838749,0.0009676029231399298,0.011123444710869807
1783246422061101800,4.547101806640625,-0.013073416584730147,-0.012234445009939372,-0.009898483192909042
1783246422071113000,4.557113037109375,-0.007989245188236236,-0.012301920755580066,0.007131146504578646
1783246422081125000,4.567125,-0.01262801090478897,-0.004675079138949513,0.007596462461387272
1783246422091136000,4.577135986328125,-0.026091888111829758,-0.00820584708098322,0.004173463459475897
1783246422101148000,4.58714794921875,-0.020256606087088583,-0.0065492755129933355,-0.004692046256770845
1783246422111160000,4.59716015625,-0.01262450377345085,-0.011501673755981028,-0.005202094121160916
1783246422121171000,4.6071708984375,-0.02040098299384117,0.0011153773633763193,0.006456836572743486
1783246422131182800,4.617182861328125,-0.01830313393175602,0.005971621755510568,0.0028981097614159805
1783246422141194000,4.627194091796875,-0.026682839742302893,-0.0040473026294261215,0.008732590351847466
1783246422151206100,4.6372060546875,-0.016657120290398595,-0.00927632585670799,-0.0059004196828231215
1783246422161217000,4.647217041015625,-0.015161913296580313,-0.0014809592727571725,0.00664640889466973
1783246422171229000,4.65722900390625,-0.007229951253533363,0.0007365706462413072,0.015183360226696823
1783246422181241000,4.667240966796875,-0.02518587918281555,-0.0074918901253491635,0.010605293455126228
1783246422191252000,4.677251953125,-0.019051906472444532,-0.0023691037515178323,0.005910146492393687
1783246422201263900,4.687263916015625,-0.0036398178070783612,0.0016784911388531326,-0.0047498910909635015
1783246422211274800,4.697274658203125,-0.027579496321082114,-0.008560030813515185,0.005605341159808449
1783246422221287000,4.707286865234375,-0.024431845945119858,-0.0022566563529893753,0.010391337893903254
1783246422231298000,4.717298095703125,-0.01754676260650158,0.0008444880001246929,0.0009323283970705233
1783246422241310000,4.72731005859375,-0.022785832303762434,-0.005259235702455044,0.00806025546467863
1783246422251322000,4.737322021484375,-0.0266781635671854,-0.007448672038130461,0.005249855952756479
1783246422261333000,4.7473330078125,-0.0016886837393045423,-0.007747837647795677,-0.0012117047441657632
1783246422271345000,4.757344970703125,-0.01755143878161907,-0.0029341902883723374,0.0032533894724911076
1783246422281355800,4.767355712890625,-0.020244915649294853,-0.007723433858901262,-0.011419701410818378
1783246422291368000,4.777367919921875,-0.011419219636917114,-0.0022633783547207713,-0.013215181409288197
1783246422301379800,4.7873798828125,-0.028777766194939613,-0.0037457623995840548,0.001057717475562822
1783246422311391000,4.797390869140625,-0.017703998994827268,0.005229096292518079,0.010433473702310583
1783246422321403100,4.807403076171875,-0.029374563044309614,0.0032522432615980502,0.00545410297071794
1783246422331414000,4.8174140625,-0.012911504021286964,0.0015315934814512729,-0.001566847457922995
1783246422341426000,4.827426025390625,-0.005430792877078056,-0.006511537318490445,0.008359649403207003
1783246422351436800,4.837436767578125,-0.02802840913236141,0.000578713203407824,0.023858146843547
1783246422361449000,4.847448974609375,-0.017850129467248916,0.00409826563168317,0.007751899618271272
1783246422371460900,4.8574609375,-0.030717209824919697,-0.0067179100781679145,-0.005204279228381347
1783246422381472000,4.867471923828125,-0.027877017962932585,0.010264715839549899,-0.00018898780003655702
1783246422391484000,4.87748388671875,-0.02054477537870407,0.0069697659473866224,-0.004249535786814522
1783246422401495000,4.8874951171875,-0.03955108914375305,-0.005390424334071576,0.006750764318287838
1783246422411507000,4.8975068359375,-0.007827332624793052,-0.00403966731224209,0.010352823381265626
1783246422421517800,4.907517822265625,-0.01276654259264469,0.006318973888456821,0.011252482484595384
1783246422431530000,4.917530029296875,-0.024887773019075392,-0.0019059432191774247,-0.011234734482062048
1783246422441542000,4.9275419921875,-0.019797171881794928,-0.009163622729852794,0.012243811059906146
1783246422451552800,4.937552734375,-0.022941899648308752,-0.0040214375358074905,0.01160675298209535
1783246422461565000,4.94756494140625,0.00025368250012397763,-0.0024236469503492114,0.011621916301897727
1783246422471576000,4.957576171875,-0.02503331896960735,-0.0012647957714274525,0.007742866928444709
1783246422481588000,4.967587890625,-0.023687749579548834,-0.003929375338181853,0.0021756795216700993
1783246422491598800,4.977598876953125,-0.014259411498904227,-0.0030540172757580874,0.004012240449199453
1783246422501611000,4.987611083984375,-0.026827801170945166,0.0006479059820994734,-0.0006546667997376061
1783246422511623000,4.997622802734375,-0.026528525963425635,0.005140139367431402,-0.003078352565993555
1783246422521633800,5.0076337890625,-0.022189035454392433,-0.012672324970550835,0.003724278936849441
1783246422531646000,5.01764599609375,-0.0163519998639822,-0.008068155643343925,0.006173190475907177
1783246422541657000,5.027656982421875,-0.02518061848580837,0.0018118351949378848,0.000953761627455242
1783246422551669000,5.0376689453125,-0.02308452298939228,-0.00898684139084071,0.004548669430438895
1783246422561681200,5.04768115234375,-0.020987842971086502,-0.0031951793121173977,0.0029947020036866887
1783246422571692000,5.057692138671875,-0.021434417694807053,0.0018353256683796644,-0.007349737141723744
1783246422581704000,5.067703857421875,-0.005724222865700721,0.0026354630701243874,0.012101089537411461
1783246422591714800,5.07771484375,-0.02891805144846439,-0.0029037951501086354,0.004058920001983642
1783246422601726700,5.087726806640625,-0.01859188774526119,0.007239815060421824,-0.005791454299457837
1783246422611737900,5.09773779296875,-0.013807576078176497,0.004665178799442947,0.0011902623806265182
1783246422621749800,5.107749755859375,-0.010662848311662674,0.0005711509514600039,0.0020168265649932434
1783246422631761700,5.11776171875,-0.030264205360412594,0.005183174791559577,0.01533018253557384
1783246422641772800,5.127772705078125,-0.016645429852604865,0.011421813452802599,0.012162799979257396
1783246422651784700,5.13778466796875,-0.019193360769748688,-0.010775113047100602,0.01496621719454415
1783246422661795600,5.147795654296875,-0.019042554122209548,-0.002877966589108109,0.005485938864108175
1783246422671807700,5.157807861328125,-0.02397884148061275,0.0008157002970576285,0.004164743580191862
1783246422681818600,5.167818603515625,-0.022781740650534628,-0.0035373072806745764,-0.00669881036876468
1783246422691830500,5.17783056640625,-0.029366964259743687,-0.008154336089454591,0.0005352782037691213
1783246422701842700,5.1878427734375,-0.03310790435373783,-0.00844813140425831,0.0017220494360779411
1783246422711853800,5.197853759765625,-0.03011632132232189,-0.0060339464019984,0.016340259193838573
1783246422721865700,5.20786572265625,-0.02412672551870346,-0.014219152553752064,-0.0012044210534309968
1783246422731876600,5.217876708984375,-0.015894319224357602,-0.006351743646897375,-0.0007691600248799659
1783246422741888800,5.227888671875,-0.019931027394533157,0.0028380364375188943,-0.000609925759001635
1783246422751899600,5.237899658203125,-0.02172375603020191,-0.006501088989712298,-0.00044577100612223144
1783246422761911600,5.24791162109375,-0.02232464453279972,-0.005847301256097853,-0.0052947431239648715
1783246422771923700,5.257923828125,-0.018731588476896283,-0.027569961307756602,-0.003533201927714981
1783246422781934800,5.267934814453125,-0.03129880910515785,-0.00609247165620327,0.006785344724613241
1783246422791946800,5.27794677734375,-0.01827858401238918,0.002548150112852454,0.005222997628583107
1783246422801957600,5.28795751953125,-0.01154839897453785,-0.01037281585652381,-0.0015087674450012854
1783246422811969800,5.2979697265625,-0.01813303806185722,-0.005878353981487452,-0.002588897681771777
1783246422821981700,5.307981689453125,-0.01903203272819519,-0.00030986966677010056,0.011784822095895651
1783246422831992600,5.31799267578125,-0.02516892804801464,0.0033261122154071925,0.006175546829774976
1783246422842004700,5.328004638671875,-0.0185872115701437,-0.008450432959198952,-0.001972530765540432
1783246422852015600,5.338015625,-0.013950783941149712,-0.007927468531019985,-0.005596655529853887
1783246422862027500,5.348027587890625,-0.01843991205394268,0.0071976929517462845,0.013448791519051883
1783246422872038700,5.35803857421875,-0.02323006893992424,-0.010416289672069251,0.0032954453657963313
1783246422882050800,5.36805078125,-0.01739595595896244,0.0000963365139439702,-0.004209692400193307
1783246422892062700,5.378062744140625,-0.025479893693327902,0.005733757879026234,0.01139158271132037
1783246422902073600,5.388073486328125,-0.019648703321814537,-0.004034516213089228,0.000007986943633295595
1783246422912085800,5.398085693359375,-0.014413725277781486,0.00276752848457545,-0.000600000303320121
1783246422922096600,5.4080966796875,-0.022794600132107733,-0.0019946809485554694,-0.004606477732013445
1783246422932108500,5.418108642578125,-0.02339081245958805,-0.007438004513643681,0.016651740862382573
1783246422942119700,5.42811962890625,-0.019202128598093986,-0.003824270995892584,0.007923109733022283
1783246422952131800,5.4381318359375,-0.0201034613519907,0.0025531550815328955,0.0013204828978632577
1783246422962143700,5.448143798828125,-0.02264437800645828,-0.0041132074724882835,0.005831427833531052
1783246422972154600,5.458154541015625,-0.025636545559763906,-0.007856741382367909,0.0006986406554933637
1783246422982166800,5.468166748046875,-0.00722878220975399,0.0034566432598978278,0.006376049254380632
1783246422992177700,5.478177734375,-0.023389058893918988,0.0026943901831284166,0.01834939792600926
1783246423002189600,5.488189453125,-0.0087228201597929,-0.004536437853239476,0.0131060995782027
1783246423012201700,5.49820166015625,-0.020094693523645398,-0.0008045213159173727,0.012634958952094892
1783246423022212900,5.508212890625,-0.025333178699016568,-0.003173369339108467,-0.0020609442679327913
1783246423032224800,5.518224853515625,-0.038050621452927584,0.0026133608361706136,-0.0029144877907703627
1783246423042235600,5.528235595703125,-0.019046645775437354,-0.012351166724786162,0.00501867069551954
1783246423052247800,5.538247802734375,-0.00348433498442173,-0.00321403014305979,0.014155910025234333
1783246423062258700,5.5482587890625,-0.017547347128391264,-0.005092281637713312,0.006287779599172063
1783246423072270600,5.5582705078125,-0.009618307694792747,-0.008950527968443929,-0.0070760872825165275
1783246423082282800,5.56828271484375,-0.027579496321082114,-0.009429616722278296,0.005621591324999463
1783246423092293600,5.578293701171875,-0.025637130081653595,-0.008912132186815143,-0.002205535803816747
1783246423102305500,5.588305419921875,-0.029077041402459144,-0.004456504484824836,-0.002829012880846858
1783246423112316700,5.598316650390625,-0.01980184805691242,0.0033808746099472046,0.005861608342663385
1783246423122328800,5.608328857421875,-0.02204875020086765,-0.0004610416404902935,0.00403341338468017
1783246423132340700,5.6183408203125,-0.023098551514744756,-0.0054960036003962156,-0.0008504108508350328
1783246423142351600,5.6283515625,-0.026839491608738896,0.010218940469063818,0.005430767760903108
1783246423152363800,5.63836376953125,-0.0055909518748521805,-0.0014523542327806354,0.006982196170696988
1783246423162374700,5.648374755859375,-0.011725509107112883,-0.002805230146460235,0.002099449647415895
1783246423172386600,5.658386474609375,-0.030278233885765074,-0.0035959056001156568,0.002356413233303465
1783246423182397700,5.668397705078125,-0.02518938631415367,0.00280168648250401,0.0037390358312753957
1783246423192409900,5.678409912109375,-0.023693010276556015,0.00399875077996403,0.005360533802595455
1783246423202421800,5.688421875,-0.03760638481676578,-0.011333806375786662,-0.004059392642730381
1783246423212432600,5.6984326171875,-0.01710661762356758,-0.005039492004550993,0.0042042193573433905
1783246423222444800,5.70844482421875,-0.01291910280585289,-0.011862542957626282,-0.007454444191791117
1783246423232455700,5.71845556640625,-0.017556699478626252,-0.003504245261289179,-0.0009901481150882319
1783246423242467600,5.728467529296875,-0.010969137781858443,-0.012577742022275924,0.008898265774955507
1783246423252478700,5.738478759765625,-0.009321955096721648,0.0031037381689995526,0.012328274472965858
1783246423262490600,5.74849072265625,-0.009324293184280396,0.00541786033026874,0.011161612163635436
1783246423272502800,5.758502685546875,-0.02084580415189266,-0.007174421674013137,0.0012583409144659526
1783246423282513700,5.768513671875,-0.009176409146189689,-0.002028327489830553,0.0006672111874795519
1783246423292525800,5.77852587890625,-0.012169161221385002,-0.012494411120377481,0.0003810557564371265
1783246423302536700,5.78853662109375,-0.017557284000515937,-0.0015376944286748767,0.00440924041015096
1783246423312548600,5.798548583984375,-0.013966566032171248,-0.0036229762701317668,-0.011973670615325682
1783246423322559500,5.8085595703125,-0.009924597164988518,0.0070999681983143085,0.0046067151940311305
1783246423332571600,5.818571533203125,-0.025633038428425788,0.004764218727126717,-0.001088242761278525
1783246423342583600,5.82858349609375,-0.0241337397813797,-0.012069829032756387,0.012066534247261005
1783246423352594700,5.8385947265625,-0.01320844114124775,-0.0007398220492526888,0.0008575347113655879
1783246423362606800,5.84860693359375,-0.010963877084851264,0.00689144001416862,0.0030953790493193083
1783246423372617700,5.85861767578125,-0.015906009662151336,0.009977021471969784,0.0006738509908202104
1783246423382629600,5.868629638671875,-0.023538111975789068,0.009847696003876626,0.0008305348232970572
1783246423392641800,5.878641845703125,-0.02219429615139961,0.0025953137228265405,0.005841017645783722
1783246423402652700,5.888652587890625,-0.019053075516223907,-0.007997939951345324,0.0009193364847567863
1783246423412664600,5.89866455078125,-0.016810849547386167,-0.009436448321864008,0.0076452768890419975
1783246423422675700,5.90867578125,-0.013820435559749603,-0.0032472748255357145,0.015118558212043717
1783246423432687900,5.91868798828125,-0.009329553881287575,-0.004934679923206568,0.0176039978026296
1783246423442698800,5.92869873046875,-0.019054244560003278,0.0023518968883901835,0.0023707363028894176
1783246423452710700,5.938710693359375,-0.02144844622015953,-0.013502309521287678,0.006037213788030203
1783246423462722800,5.948722900390625,-0.014418985974788665,-0.0050405149178579444,0.005428710517846048
1783246423472733700,5.958733642578125,-0.006489946541190147,0.002951725945062935,-0.01008648004567949
1783246423482745600,5.96874560546875,-0.008135375660657883,0.002480235975794494,0.0074518572257715274
1783246423492756500,5.978756591796875,-0.022647885137796402,0.005726487888023257,0.0009103700103005394
1783246423502768600,5.9887685546875,-0.015019289955496787,-0.013964337542466818,0.0074228731598821466
1783246423512779800,5.99877978515625,-0.020108137527108192,-0.0037692894056439398,0.004524082978453953
1783246423522791700,6.008791748046875,-0.01412204885482788,-0.008117292014695703,-0.005386675174138509
1783246423532803800,6.018803955078125,-0.01906125882267952,-0.0009011866234242916,0.006158225802215747
1783246423542814700,6.028814697265625,-0.02430091304183006,-0.0011469780780375004,0.015761961548961697
1783246423552826600,6.03882666015625,-0.013529343658685683,-0.011259608628414571,0.009670323293108959
1783246423562837500,6.04883740234375,-0.022956512695550917,0.006549750437028706,0.008879026784945744
1783246423572849700,6.058849609375,-0.014427169281244278,0.01253883478399366,0.002918401347484905
1783246423582861600,6.068861572265625,-0.019369886380434034,-0.0073941653719171874,-0.009590209544892422
1783246423592872700,6.078872802734375,-0.01069265892803669,-0.009144991094619035,0.00324104373086011
1783246423602884900,6.088884765625,-0.012488310173153877,-0.001210873627103865,-0.0085934627256589
1783246423612896000,6.09889599609375,-0.022815058398246765,-0.008499496265314519,0.012975774029688908
1783246423622908000,6.108907958984375,-0.020125088661909103,0.0036991467788815495,-0.0030347486029961143
1783246423632918800,6.118918701171875,-0.024315526089072226,-0.016331139739044008,-0.0061322282778564835
1783246423642931000,6.128930908203125,-0.011140987217426299,-0.0052661403672769665,0.0046639549567364155
1783246423652942800,6.13894287109375,-0.008593640822172165,0.002133139571174979,0.0018047547168913297
1783246423662953700,6.14895361328125,-0.021014730978012083,0.002900141888298094,-0.0016167532975436187
1783246423672966000,6.1589658203125,-0.016229250267148016,0.002387370060570538,-0.012964343886799179
1783246423682977000,6.16897705078125,-0.01907353378236294,0.006742898388952016,-0.005359759767749346
1783246423692989000,6.178989013671875,-0.02701075652241707,0.005559205029718578,-0.004183895805233624
1783246423702999800,6.188999755859375,-0.022822072660923003,-0.003092778383567929,0.0018804708512034265
1783246423713012000,6.199011962890625,-0.024470424389839172,0.005044277777522802,0.006526634422922507
1783246423723024000,6.20902392578125,-0.01744037962257862,0.0004935556706041097,0.0037231441423995417
1783246423733034800,6.21903466796875,-0.02821311804950237,-0.004924633453227579,0.008147719119000248
1783246423743046700,6.229046630859375,-0.02657002701759338,0.0011400734132155776,-0.0030830789734609424
1783246423753058000,6.23905810546875,-0.03420388289690018,0.007332571377791464,0.004260061747406144
1783246423763070000,6.249070068359375,-0.008466215050220488,-0.0018008388768881558,0.0022707602268666957
1783246423773081900,6.259081787109375,-0.07637070749700069,0.018947203988954425,-0.012617695006751455
1783246423783093000,6.269093017578125,-0.27757190975546836,0.000052387774363160134,-0.12422506708106956
1783246423793105000,6.27910498046875,0.42937458259463307,-0.035749103044904765,0.1919412430146709
1783246423803115800,6.28911572265625,0.005762216788530349,0.02185187592189759,0.03546196579975076
1783246423813127700,6.299127685546875,-0.3882832782715559,0.013906542940624057,-0.16537083240458741
1783246423823139000,6.30913916015625,0.26102292601466176,-0.026784765746816992,0.09291059461589903
1783246423833151000,6.31915087890625,0.02687339387834072,0.004930076813325286,0.0508598706761375
1783246423843163000,6.329162841796875,-0.1375607969969511,0.023205957411974665,-0.04317300596795976
1783246423853174000,6.339174072265625,0.08036883722245693,-0.0054787602046504616,0.02849847204623511
1783246423863186000,6.34918603515625,-0.0021919570863246918,-0.0247953454952687,0.00013951121867867186
1783246423873196800,6.35919677734375,-0.10020283398330211,0.027422880987264215,-0.006501194020989351
1783246423883209000,6.369208984375,-0.03975274919569492,0.00025057722758501765,0.0024237519816262647
1783246423893219800,6.3792197265625,0.023100305080413816,-0.02781600849069655,-0.002581447310966905
1783246423903231700,6.389231689453125,-0.036007717448472976,0.01798855155725032,-0.019087034868041516
1783246423913243600,6.39924365234375,-0.01685702677667141,0.01566504051312804,0.01835750816722866
1783246423923255000,6.409255126953125,-0.005480477237701416,-0.014628646670095622,0.02393599328615237
1783246423933267000,6.419266845703125,-0.040350715088844295,0.008807356638088822,-0.02100621202812763
1783246423943277800,6.42927783203125,-0.03990297132134437,0.009296601459756493,0.00867484826564323
1783246423953290000,6.4392900390625,-0.014618892461061477,-0.014511157770268618,0.022105610937660093
1783246423963302000,6.449302001953125,-0.02748947995007038,-0.0013037395423278213,0.003108804786473047
1783246423973312800,6.459312744140625,-0.012079729372262954,0.010290727063640951,-0.009016994500509462
1783246423983324700,6.46932470703125,-0.024497312396764753,-0.006380787078291177,0.0012642820314853452
1783246423993336000,6.479336181640625,-0.011627893951535224,-0.008624839678034187,0.019685391203546895
1783246424003348000,6.489347900390625,-0.026142156994342802,0.010217588762193917,-0.0042222847369965165
1783246424013358800,6.49935888671875,-0.009237199422717094,-0.002709880013205111,-0.02298337330301292
1783246424023371000,6.50937109375,-0.01896831984221935,-0.007226809448376298,0.0138976335483836
1783246424033383000,6.5193828125,-0.009096329647302627,0.017733517350256443,0.012007415338011923
1783246424043393800,6.529393798828125,-0.007453238615393638,-0.0009018076779320835,0.004669131172064226
1783246424053405700,6.53940576171875,-0.022568390160799024,-0.002655263749137521,-0.0015130326281650923
1783246424063416800,6.549416748046875,-0.026307576689124104,0.005379062689840793,0.003937576910946518
1783246424073429000,6.559428955078125,-0.018974165061116217,0.010594020859152078,0.01418799251379678
1783246424083441000,6.56944091796875,-0.01987199068367481,-0.009003536797314882,-0.001573585442674812
1783246424093452000,6.5794521484375,-0.022568974682688713,0.011569368697330355,-0.0060961683004978106
1783246424103464000,6.5894638671875,-0.025858663877844808,0.004928980834782123,0.013725555783952586
1783246424113474800,6.599474853515625,-0.01852232964038849,-0.002943907964788377,0.012030953760514966
1783246424123486700,6.60948681640625,-0.011788637471199036,0.006474968167766928,-0.0063758346252492624
1783246424133497900,6.619497802734375,-0.021818448576331136,0.008217026062123477,-0.0014657754033571108
1783246424143509800,6.629509765625,-0.018978256714344024,0.004107069992646575,0.001998599071847275
1783246424153521700,6.639521728515625,-0.011050386324524878,-0.0028503844624385237,0.013933661559701431
1783246424163533000,6.649532958984375,-0.010453589475154876,0.001993292709067464,0.004443412107811309
1783246424173545000,6.659544921875,-0.024520693272352217,-0.003661627780087292,0.0032264649329474195
1783246424183555800,6.669555908203125,-0.014347089782357216,-0.0058702072076499455,0.019280260451778303
1783246424193568000,6.679568115234375,-0.006570026040077209,0.0011189575599506497,0.011943864565528928
1783246424203579000,6.689578857421875,-0.024976620346307755,-0.0007904197253286838,-0.0004708780479151755
1783246424213590800,6.6995908203125,-0.02692132467329502,-0.01860982526075095,0.004951774905191268
1783246424223602700,6.709602783203125,-0.02153203285038471,-0.0002551438048481941,0.0023647540866746568
1783246424233614000,6.719614013671875,-0.012557283756136893,0.0005750964742153883,0.013393551917187869
1783246424243626000,6.7296259765625,-0.031713819646835326,-0.009979578755237162,0.0002781342380796559
1783246424253636900,6.739636962890625,-0.018248773396015164,0.00699270843155682,0.0025793946344871074
1783246424263649000,6.74964892578125,-0.0059808279752731315,0.010943784144893288,0.008622592922020703
1783246424273661000,6.759660888671875,-0.02214285822510719,0.0049852410666644574,0.004555236168543342
1783246424283671800,6.769671875,-0.02019873842000961,-0.00217668645195663,-0.0012807879250030963
1783246424293683700,6.77968359375,-0.02483867318034172,-0.004985094936192035,0.008926108196529094
1783246424303694800,6.78969482421875,-0.01391337454020977,-0.0027862331850454208,0.008639516657358034
1783246424313706800,6.799706787109375,-0.02109597952067852,-0.008776413510553539,-0.004046042254101485
1783246424323718000,6.8097177734375,-0.021543138766288755,0.01153510110154748,-0.010973083304613829
1783246424333730000,6.81972998046875,-0.018850830942392347,0.0004772255903109908,0.0030207474771072156
1783246424343742000,6.829741943359375,-0.0086748893648386,-0.009249072523601352,-0.005023511267418507
1783246424353752800,6.8397529296875,-0.02812777785360813,-0.007156045767106115,0.00005630133107770234
1783246424363764700,6.8497646484375,-0.030223288828134534,0.014840280126780271,0.004207294947130139
1783246424373776000,6.85977587890625,-0.01870119333863258,0.007666077648475766,0.0061518462937790895
1783246424383787800,6.869787841796875,-0.020646482187509536,-0.006544453207403421,-0.0011194210675428621
1783246424393799000,6.879798828125,-0.024986557218432424,0.008885061516799032,0.005315374920039903
1783246424403811000,6.88981103515625,-0.004186345773935318,0.00034271249044686553,-0.0024631272940780036
1783246424413823000,6.899822998046875,-0.02423603111207485,0.004781754383817315,-0.0005976416661636904
1783246424423833900,6.909833740234375,-0.022140520137548445,0.007468545782379806,0.005500467429670971
1783246424433845800,6.919845703125,-0.019296821144223212,0.006713380033522844,-0.00454557100776583
1783246424443857000,6.92985693359375,-0.015405074402689933,-0.0063424643618986,0.007855026632605585
1783246424453868800,6.939868896484375,-0.014659224471449852,0.008380874854326247,0.006201135645469185
1783246424463880700,6.949880615234375,-0.07148761163055896,0.008820581445842982,-0.013141259939840529
1783246424473892000,6.95989208984375,-0.2788093425959349,-0.009863003170862793,-0.12321673942189663
1783246424483904000,6.969904052734375,0.44670624114573,-0.034547581768035886,0.20345811433978378
1783246424493915000,6.979914794921875,-0.01880582275688648,0.012429638788476586,0.029969814107276033
1783246424503926800,6.9899267578125,-0.4144973314583301,0.019954371737502512,-0.16499211701899766
1783246424513938000,6.99993798828125,0.3021516397386789,-0.021312581413425503,0.12255697860522195
1783246424523949800,7.00994970703125,-0.014008067086338996,0.0038006709245964883,0.027361353208508805
1783246424533961700,7.019961669921875,-0.1429804839581251,0.008047222453169524,-0.046339201214187775
1783246424543972900,7.029972900390625,0.09647416884899139,-0.01718512621987611,0.03056727767692646
1783246424553984800,7.03998486328125,-0.04177227232456207,-0.0028952830500900742,-0.0022410911743878385
1783246424563996000,7.049995849609375,-0.07843640785515307,0.02288596820998937,-0.005271802923083305
1783246424574008000,7.060008056640625,0.0008732757031917572,-0.01812715631034225,0.006470191527949646
