time,seconds_elapsed,z,y,x
1783246491408699600,0.06469970703125,-0.026168460479378697,0.012021898237802088,0.01817258462095633
1783246491418711600,0.074711669921875,-0.025120412731170653,0.0012264730550348758,-0.004918788234330713
1783246491428723500,0.084723388671875,-0.01045475851893425,0.002114946327358484,-0.0054830527872778475
1783246491438734800,0.09473486328125,-0.026918986585736274,-0.009029073097370565,-0.00008686543270014225
1783246491448746800,0.104746826171875,-0.03649696227014065,0.0019097060788422823,0.013507488019904122
1783246491458757600,0.114757568359375,-0.026620880421996115,-0.0003511149926111102,-0.0024171167448628693
1783246491468769500,0.12476953125,-0.008811082965135573,-0.007587021062895655,0.007463330751145258
1783246491478781700,0.13478173828125,-0.015694412738084793,-0.001764635052345693,0.012208872177265583
1783246491488792600,0.14479248046875,-0.02168459306359291,-0.004702734330855309,0.0062683670792262995
1783246491498804500,0.154804443359375,-0.03006137626469135,0.002270465682633221,-0.004396152599714696
1783246491508816600,0.164816650390625,-0.024072949504852295,0.007466426890529692,-0.0014789134461432693
1783246491518827800,0.174827880859375,-0.013745032235980033,0.005174553093686699,0.013781811449257657
1783246491528839700,0.184839599609375,-0.030048516783118245,0.0007057005839422345,0.011828622421715408
1783246491538851800,0.194851806640625,-0.010745850419998168,0.012390768082812427,-0.0005557798523921519
1783246491548862700,0.20486279296875,-0.029451135411858557,-0.0017965645605698226,0.00159280388308689
1783246491558874600,0.21487451171875,-0.022861820149421692,-0.00576451834347099,-0.0001576839128974825
1783246491568886800,0.22488671875,-0.015079495710134505,-0.006081438805535435,0.0042266047190874815
1783246491578897700,0.234897705078125,-0.026300562426447866,0.0010572539679706097,0.004600917924195528
1783246491588909600,0.24490966796875,-0.013281506377458572,0.0025321122935041784,0.008331610618811101
1783246491598920700,0.254920654296875,-0.021956980264186857,-0.004414455441385507,0.01492129120742902
1783246491608932600,0.2649326171875,-0.006098316875100135,0.005494944154471159,0.004814304946549237
1783246491618944800,0.27494482421875,-0.025248423025012016,-0.0034094796499237415,0.0010300828332547097
1783246491628955600,0.28495556640625,-0.01462532220184803,0.008585895907133817,0.011050642052851617
1783246491638967800,0.2949677734375,-0.025253099200129508,0.005958506545610726,-0.003147741707507521
1783246491648979700,0.304979736328125,-0.016126374414563178,0.005669643134251236,0.007752842616476118
1783246491658989800,0.31498974609375,-0.02944353662729263,-0.006905906930938363,0.00043726803925819694
1783246491669001700,0.325001708984375,-0.014926935496926306,-0.000799406749382615,0.005365792216314003
1783246491679014000,0.335013916015625,-0.014627660289406775,-0.01338208067510277,0.006802985412580892
1783246491689025000,0.34502490234375,-0.03393091117441654,-0.01323255266919732,-0.007090232255589217
1783246491699037000,0.355036865234375,-0.0168704707801342,-0.00024191899709403514,-0.010208108547795563
1783246491709049000,0.365049072265625,-0.023300796088576315,-0.005256897614896297,0.004439133224915712
1783246491719060000,0.37506005859375,-0.031982699716091155,0.005099478563480079,0.0016578867422416806
1783246491729071900,0.38507177734375,-0.022854221364855765,-0.006282696998678147,-0.0044814105972182
1783246491739082800,0.395082763671875,-0.01821194851696491,0.0023276026973500846,0.007776059095282107
1783246491749095000,0.405094970703125,-0.0267436300188303,0.004185907382518053,-0.002322798658069223
1783246491759106800,0.41510693359375,-0.01985679311454296,0.00815879306886345,0.012627398983435704
1783246491769118000,0.425117919921875,-0.02269932306408882,-0.009358158921264112,-0.007250528250681236
1783246491779129900,0.4351298828125,-0.013118424770236014,-0.004620682070590555,-0.00345395811246708
1783246491789142000,0.44514208984375,-0.029576807618141174,0.009987981257401406,0.002314359623286873
1783246491799153000,0.45515283203125,-0.03989887966811657,-0.0077060808653011915,-0.001840467634378001
1783246491809165000,0.4651650390625,-0.02688157718479633,0.003394172482937574,-0.002113083163835108
1783246491819177000,0.475177001953125,-0.013559738796949385,0.0024214184606447813,-0.010188992855371906
1783246491829187800,0.485187744140625,-0.020294015488028526,0.0004842763856053352,0.006410908221919089
1783246491839200000,0.495199951171875,-0.03510989182591438,0.00020903964079916476,0.00025207506492733953
1783246491849212000,0.5052119140625,-0.02298515426814556,-0.0003017594255506992,-0.016317184278927744
1783246491859222800,0.515222900390625,-0.010267126992344855,-0.011196918655745684,0.007799695699196308
1783246491869234700,0.525234619140625,-0.028222470399737357,0.00897266673501581,0.004199022592417895
1783246491879246000,0.53524609375,-0.02343406707942486,0.009885762991942465,-0.004301003395859152
1783246491889258000,0.545258056640625,-0.022834347620606422,-0.003909976517967879,-0.0005713336145505308
1783246491899270000,0.555269775390625,-0.006674070936441421,0.004918605571240187,0.0020893734946846963
1783246491909281000,0.565281005859375,-0.021786884394288063,0.006715498925372957,-0.009386544765532016
1783246491919293000,0.57529296875,-0.015501520514488219,0.00012786416336894036,-0.00817572593735531
1783246491929304800,0.585304931640625,-0.030316227808594703,-0.002709441621787846,-0.004006587026547641
1783246491939315700,0.595315673828125,-0.02088379807472229,-0.008483823772147297,-0.01219247816489078
1783246491949328000,0.605327880859375,-0.022232874596118925,-0.007104790503904223,-0.002357787773059681
1783246491959339800,0.61533984375,-0.01669803682267666,0.005039528537169099,0.002369122017826885
1783246491969351000,0.625350830078125,-0.009218494722247124,0.007161489127203821,0.004591958299605176
1783246491979363000,0.635363037109375,-0.012664251261949538,0.0012639920538291334,0.002212168757291511
1783246491989375000,0.645375,-0.021190672066807744,-0.0034375367006286976,-0.004525414135726168
1783246491999385900,0.6553857421875,-0.015652327162027357,0.003868037072382867,-0.009898458076734095
1783246492009398000,0.66539794921875,-0.014754501539468765,-0.005707125600427389,-0.005431395665276795
1783246492019409000,0.675408935546875,-0.01655190635025501,-0.00043400750309228895,-0.00209837878504768
1783246492029420800,0.6854208984375,-0.017896306696534157,-0.004364040428400039,0.01180217280620709
1783246492039433000,0.695432861328125,-0.029268180060386655,0.0035542584154754876,-0.0076562412410508835
1783246492049443800,0.70544384765625,-0.03120996177792549,-0.0012826236890628932,0.0024288254489656536
1783246492059455700,0.715455810546875,-0.013700608572363852,0.00018627981971949337,0.0006701178139075637
1783246492069468000,0.725468017578125,-0.01175356615781784,0.003909757322259247,0.002681832095654681
1783246492079479000,0.73547900390625,-0.022075638207793236,0.0005787862686440348,-0.01090298634362407
1783246492089491000,0.745490966796875,-0.018188567641377447,-0.011335925267636776,-0.0061303011822514235
1783246492099502800,0.7555029296875,-0.01085866314470768,0.0032284970598295327,0.011982936200592665
1783246492109514000,0.765513916015625,-0.031065000349283216,0.013938399383611976,-0.004795618512388318
1783246492119526000,0.77552587890625,-0.02702770765721798,-0.01206464140098542,-0.003366115432232618
1783246492129537800,0.785537841796875,-0.02957388500869274,0.0014648849207907913,0.004773507145280018
1783246492139549000,0.795548828125,-0.024036709147691727,-0.005558109051175415,-0.005472631857963279
1783246492149560800,0.805560791015625,-0.026579963889718054,-0.0057015726424753665,-0.0010845347005408257
1783246492159572000,0.815572021484375,-0.021197686329483986,-0.002338197156600654,0.003227583744376898
1783246492169583900,0.825583984375,-0.02194295173883438,0.010638700251094996,0.0038559356426354496
1783246492179596000,0.835595947265625,-0.029424831926822662,0.01051215126197785,-0.0075927110181655735
1783246492189607000,0.84560693359375,-0.010272972211241722,0.004106302807666361,-0.004588350703567266
1783246492199618800,0.855618896484375,-0.012519874355196952,-0.0036198344649747013,0.009515413575898855
1783246492209631000,0.865630859375,-0.0095288758456707,-0.0022416779795661566,-0.0043983628231100734
1783246492219641900,0.875641845703125,-0.018953706794977185,-0.008411416123062372,0.002223256406886503
1783246492229653800,0.88565380859375,-0.01701250959932804,0.008427234746702015,0.0005589033912401646
1783246492239666000,0.895666015625,-0.03107785983085632,-0.004895626554451882,0.007171152004692703
1783246492249677000,0.905677001953125,-0.017163316246867177,-0.002471979604102671,-0.0011927899811416864
1783246492259689000,0.91568896484375,-0.008486088794469833,0.006111651280708611,0.009780539918644353
1783246492269701000,0.925701171875,-0.00938332989513874,-0.004080145453102886,0.005279977096384391
1783246492279712000,0.9357119140625,-0.012374912926554679,-0.0006722367057576776,-0.006869529576459899
1783246492289724000,0.945723876953125,-0.008929156386852264,0.0037559550000354647,-0.0004035758322104811
1783246492299734800,0.95573486328125,-0.015818915900588034,0.004746098548546433,0.0013178776655346153
1783246492309747000,0.965746826171875,-0.027787586113810537,0.008298347670026122,-0.001670581827033311
1783246492319758800,0.9757587890625,-0.012676526221632957,-0.00017868103515356778,-0.015396087378636002
1783246492329769700,0.985769775390625,-0.02225274834036827,-0.002556406484544277,-0.009469866534275933
1783246492339782000,0.995781982421875,-0.018815175107121468,-0.0011105185251682997,-0.009681098132161423
1783246492349793800,1.005793701171875,-0.02480067925751209,0.0030734526285901664,-0.00429309408403933
1783246492359805000,1.015804931640625,-0.018666122025251388,0.0029367475716397164,0.0037843956432305273
1783246492369817000,1.025817138671875,-0.0170230309933424,-0.0019474442733451722,-0.00444299654928036
1783246492379829000,1.0358291015625,-0.020762802043557165,-0.007788169658184051,-0.013380829432932659
1783246492389840000,1.04583984375,-0.0038519992530345916,0.010731712296791374,0.00322867972292006
1783246492399851800,1.055851806640625,-0.02255377711355686,0.012028547174297272,0.0032456673903390764
1783246492409864000,1.065864013671875,-0.018365677773952482,0.003530219952762127,0.0029470589030999687
1783246492419874800,1.075874755859375,-0.012981062126159668,0.0019435352832078933,-0.004031319609005004
1783246492429886700,1.08588671875,-0.019262334352731704,-0.00035184564497321843,-0.010693471778789534
1783246492439898000,1.095898193359375,-0.019110358661413192,0.011588730984926222,0.006233615426253527
1783246492449910000,1.105909912109375,-0.0255453601449728,0.0009936872124671936,0.0010807079087942837
1783246492459922000,1.115921875,-0.020907178950309753,-0.0042152430748566986,-0.0036395986113697287
1783246492469932800,1.125932861328125,-0.020456512573361396,0.002208652492798865,0.010933016155706719
1783246492479945000,1.135945068359375,-0.016861118429899215,-0.00968706208206713,-0.013604262925265356
1783246492489956900,1.145956787109375,-0.022549100938439367,-0.0002332607666030526,0.009002523017162457
1783246492499967700,1.1559677734375,-0.011328618744015693,0.012236746564880012,0.00031395218684338033
1783246492509980000,1.16597998046875,-0.020752865171432495,-0.0018923896178603171,0.005993331263819709
1783246492519991800,1.17599169921875,-0.022847207102179527,0.009768201026879251,0.0002975033755414188
1783246492530003000,1.1860029296875,-0.017908581656217573,-0.004003317357227206,-0.00522315974207595
1783246492540015000,1.19601513671875,-0.028384382963180542,-0.005013261584751308,0.0023368363165762276
1783246492550027000,1.206027099609375,-0.026291210076212882,-0.014261018934100865,-0.004568403894081712
1783246492560038000,1.216037841796875,-0.034524200892448426,-0.00043554187305271623,-0.004986903300788254
1783246492570050000,1.226050048828125,-0.032873511075973506,0.007557831501029432,-0.0018630995912943035
1783246492580061000,1.23606103515625,-0.02030161427259445,-0.0026539120422676204,0.0062593617888633156
1783246492590072800,1.24607275390625,-0.011770517292618752,0.001377937289699912,0.007385406676726415
1783246492600085000,1.2560849609375,-0.02059796687066555,-0.007310907535254955,-0.008281542665697634
1783246492610095900,1.266095947265625,-0.022540917631983754,0.001211750409938395,0.007692618595529347
1783246492620107800,1.276107666015625,-0.022390110984444617,0.011524287446588278,-0.00019421653100289404
1783246492630119700,1.28611962890625,-0.030320903983712195,-0.005393346943520009,0.00844700802625157
1783246492640131000,1.296131103515625,-0.021789807003736495,-0.014409998950734734,-0.0033832674964331087
1783246492650143000,1.30614306640625,-0.01565700333714485,-0.0060067296015098685,-0.004501823197584599
1783246492660155100,1.316155029296875,-0.02688040814101696,0.0014949147328734396,-0.00762687814924866
1783246492670166000,1.326166015625,-0.021640753921866415,-0.006778225430659949,0.007792827566992491
1783246492680178000,1.336177978515625,-0.02163841583430767,-0.0011173501247540116,-0.006211230064509436
1783246492690188800,1.346188720703125,-0.02313420735001564,0.0018568433804437518,-0.004744618977513164
1783246492700201000,1.356200927734375,-0.01954875007867813,0.003588306815549731,0.0037150567340664565
1783246492710212900,1.366212890625,-0.019998247411847112,0.0007596592608839273,0.0032607005626894532
1783246492720224000,1.37622412109375,-0.00952536871433258,0.0057325157700106495,-0.010917142733139916
1783246492730236200,1.386236083984375,-0.017452070060372353,-0.014069441884756088,-0.0014299414715729653
1783246492740248000,1.396248046875,-0.020893150424957273,-0.006742094671353697,0.012813578338455409
1783246492750259000,1.406259033203125,-0.02897299650609493,-0.002860978921689093,0.006553860356565564
1783246492760270800,1.416270751953125,-0.026281857725977895,0.0043666342442855235,0.004164809795562178
1783246492770283000,1.426282958984375,-0.006976268753409385,-0.006298552154935896,0.002962283871695399
1783246492780294000,1.4362939453125,-0.025527239966392515,0.007240764908492564,0.00877801181259565
1783246492790305800,1.446305908203125,-0.00951017114520073,0.0038559813084080813,0.015121389489946886
1783246492800318000,1.45631787109375,-0.03030453737080097,0.002256985146552324,0.004143337749270722
1783246492810329000,1.4663291015625,-0.01414601425230503,-0.0007049333989620208,-0.009331152183329685
1783246492820341000,1.476341064453125,-0.018187398597598076,-0.003369220704771578,0.0019295706899370997
1783246492830352000,1.486351806640625,-0.026412790629267692,-0.002983655453287065,-0.004157886864431202
1783246492840364000,1.496364013671875,-0.028058804270625112,-0.004491539265587926,0.0031345168997533616
1783246492850376000,1.5063759765625,-0.023574936854839322,0.009963358272798359,-0.006591927344631403
1783246492860386800,1.51638671875,-0.01684299825131893,0.0004062792459502816,0.0072847593138460065
1783246492870399000,1.52639892578125,-0.021481763967871666,0.0005448474664241076,0.0008125219592824578
1783246492880411000,1.536410888671875,-0.018484920239448546,-0.006876242445036768,-0.0045039238231256605
1783246492890421800,1.546421875,-0.022525135540962218,0.001038549267500639,0.011322627394646406
1783246492900434000,1.556433837890625,-0.01219838731586933,0.0007009878762066364,0.004530665699578822
1783246492910445800,1.56644580078125,-0.023573183289170265,0.0017724165000021456,0.005670592982321978
1783246492920457000,1.57645703125,-0.014746902754902839,-0.002524075117520988,-0.00896662971987389
1783246492930469000,1.58646923828125,-0.006366612422466278,-0.004022022057697177,-0.001768909368664026
1783246492940481000,1.59648095703125,-0.03031096711158752,-0.004737915242090821,0.012728685667132958
1783246492950492000,1.606491943359375,-0.022225860333442687,-0.005250467874109745,0.0009746537184342741
1783246492960504000,1.616504150390625,-0.010704349365830422,0.004332366648502647,0.007995227404450998
1783246492970515000,1.626514892578125,-0.028058804270625112,0.001724595302902162,0.007082094614906236
1783246492980526800,1.63652685546875,-0.019826397976279258,-0.005952807457186281,0.006771530828392133
1783246492990538800,1.646538818359375,-0.020724808120727536,-0.011781404012814163,0.007785822437470779
1783246493000550100,1.656550048828125,-0.021767010650038717,-0.009935776146128773,0.01138223949423991
1783246493010562000,1.66656201171875,-0.0036579379856586454,-0.002956913576833904,-0.003604143705498427
1783246493020574000,1.676573974609375,-0.0130798463255167,-0.004112476820126176,0.013252262016665189
1783246493030585000,1.686585205078125,-0.01861468409895897,0.009898257147334515,0.0006252557588741183
1783246493040597000,1.696596923828125,-0.019362872117757796,0.0012142346279695629,-0.003161989428568631
1783246493050609000,1.70660888671875,-0.02460077277123928,0.005674976896494627,-0.007767181669082492
1783246493060619800,1.716619873046875,-0.025644144344329833,0.006189100431092083,0.003987124274251982
1783246493070632000,1.7266318359375,-0.020555881294608114,-0.003556340774707496,-0.004553041928168386
1783246493080642800,1.736642822265625,-0.010979074653983116,-0.00580225653797388,-0.008162482863292098
1783246493090655000,1.746655029296875,-0.02295066747665405,-0.004734517708607017,-0.0022889055216219274
1783246493100667000,1.7566669921875,-0.020555296772718428,-0.0025259748136624693,0.0021432499732356516
1783246493110678000,1.766677978515625,-0.015315642553567885,-0.009010295331664383,-0.00027746523451060057
1783246493120690000,1.77668994140625,-0.02159749930202961,0.0023071444312110544,-0.0040131902972701935
1783246493130702000,1.7867021484375,-0.027585926061868667,-0.011430252487584948,0.00936146512320265
1783246493140713000,1.796712890625,-0.029828152030706403,0.0006342793155461549,0.006011972032207995
1783246493150724900,1.806724853515625,-0.03102349929511547,0.004350523359701037,0.0006564272152725606
1783246493160737000,1.816737060546875,-0.026530279529094696,0.005936221648566425,0.007738923688977956
1783246493170748000,1.826747802734375,-0.030575755527615545,-0.002663556653447449,0.011891686853719875
1783246493180759800,1.836759765625,-0.030875615257024765,-0.01298621322531253,-0.009101325482828541
1783246493190772000,1.84677197265625,-0.03236965320706367,-0.007805193858221173,0.0005830788512714207
1783246493200783000,1.856783203125,-0.024887188497185707,0.002202661143429577,-0.003484243652876466
1783246493210795000,1.866794921875,-0.03191898683011531,0.0016194544279947876,-0.0039755160348489875
1783246493220806000,1.876805908203125,-0.033113165050745005,-0.006054222005046904,0.0008687456585466861
1783246493230818000,1.886818115234375,-0.034009237107634545,-0.002654679227247834,0.006377490009507164
1783246493240830000,1.896829833984375,-0.009766191732883452,0.00689096509013325,0.01564580608969554
1783246493250840800,1.9068408203125,-0.02502513566315174,-0.010556428795121609,0.013070238246954977
1783246493260853000,1.91685302734375,-0.02188333050608635,0.002759527841210365,0.000871796132158488
1783246493270865000,1.926864990234375,-0.007219429859519004,-0.002449512043967843,-0.0021967976582236586
1783246493280876000,1.9368759765625,-0.01918751555085182,-0.007278247374668717,0.00039035102445632216
1783246493290888000,1.946887939453125,-0.018292028015851974,-0.008294256016798318,0.0011010383107699453
1783246493300900000,1.956900146484375,-0.012308277431130409,0.01358973207641393,-0.004116605005972087
1783246493310911000,1.966910888671875,-0.021440262913703916,0.006905979996174574,0.010029354447405785
1783246493320923000,1.9769228515625,-0.01934709002673626,-0.0016195274932309985,0.0013944591662380843
1783246493330934000,1.98693408203125,-0.023538696497678754,0.00035531624369323253,0.013793501887051389
1783246493340946000,1.99694580078125,-0.01710486405789852,0.003974821915104985,-0.00019321188400499523
1783246493350957800,2.006957763671875,-0.021144494837522506,0.00697009474094957,-0.018253906228858977
1783246493360968700,2.01696875,-0.0323684841632843,0.0050452641582116485,-0.007037944945925846
1783246493370980900,2.02698095703125,-0.02098959653675556,-0.014666202201507985,0.011974122706474735
1783246493380992800,2.03699267578125,-0.024281623819470403,0.0017862258296459912,-0.0026943993162829426
1783246493391004000,2.04700390625,-0.023382629153132436,0.015530271684937178,-0.012883510902663693
1783246493401016000,2.05701611328125,-0.014699556481838225,0.002125796514935791,0.004273676997516304
1783246493411028000,2.067028076171875,-0.012752514067292213,-0.00824669054802507,0.007201026553148403
1783246493421038800,2.077038818359375,-0.02337912202179432,0.0007649930231273174,-0.0007628923975862562
1783246493431051000,2.087051025390625,-0.0241249719530344,-0.00033226416166871783,-0.01273932579215616
1783246493441063000,2.09706298828125,-0.023227146330475807,-0.002104899857379496,0.003932170083466917
1783246493451073800,2.10707373046875,-0.019039046990871427,0.008547938516922295,0.011430590414302423
1783246493461086000,2.1170859375,-0.019935119047760963,0.005996062077023088,0.010319843560270964
1783246493471097000,2.12709716796875,-0.030407997745275497,0.0009115984195843339,-0.004067788295028731
1783246493481109000,2.13710888671875,-0.02561900990307331,0.0012180705528706311,0.01710361281572841
1783246493491121200,2.14712109375,-0.02756780588328838,-0.0009573007248342036,0.01155460951961577
1783246493501132000,2.157132080078125,-0.020836451801657677,0.0035815117485821246,0.004565691347187385
1783246493511144000,2.16714404296875,-0.023530513191223144,-0.0013484189342707394,0.005291119544906541
1783246493521155800,2.17715576171875,-0.02367839722931385,-0.0027328590299934147,0.004219343861239031
1783246493531167000,2.1871669921875,-0.019933365482091903,0.011561587249673903,0.016655640719365327
1783246493541179000,2.197178955078125,-0.024866730231046675,0.00025813947953283787,-0.005168452146463096
1783246493551190800,2.207190673828125,-0.034895372292399404,0.004675663660839199,0.00512514272769913
1783246493561202200,2.2172021484375,-0.02561900990307331,0.004106193209812045,0.002587641873024404
1783246493571214000,2.227214111328125,-0.01873743369579315,-0.011318097350001334,0.0075248334137257185
1783246493581225000,2.237224853515625,-0.027562545186281203,-0.0004535159211605787,-0.0020574439864605664
1783246493591236900,2.24723681640625,-0.028906945532560346,-0.003610957038775086,-0.00493014074540697
1783246493601249000,2.2572490234375,-0.019478022930026054,0.0031026787230744955,0.0030480441926978527
1783246493611260000,2.267260009765625,-0.020516133806109428,-0.0008001739343628287,-0.002317327898507938
1783246493621271800,2.277271728515625,-0.03442833930253982,-0.00700903851184994,0.009982355234213173
1783246493631284000,2.287283935546875,-0.02964052050411701,0.0016638415589928625,0.0015447726234328
1783246493641294800,2.297294921875,-0.03188274647295475,-0.0018211144799366592,0.01632783353710547
1783246493651306800,2.307306640625,-0.024699556970596313,-0.012461714427173138,0.005683671659603715
1783246493661319400,2.3173193359375,-0.02260521503984928,-0.0036254604881629346,-0.0017838694757781922
1783246493671330600,2.32733056640625,-0.012726795104146003,-0.0028987536488100886,0.009664019133197144
1783246493681342500,2.337342529296875,-0.020053192469477652,-0.005964717090688645,-0.002051644433336332
1783246493691354600,2.347354736328125,-0.0264864403873682,-0.00776540983710438,0.0025228056090418247
1783246493701365500,2.357365478515625,-0.02843056019246578,0.007185637187771499,0.001038941993145272
1783246493711377400,2.36737744140625,-0.018849661898612976,-0.009939977397210895,0.0033009047089144587
1783246493721388300,2.37738818359375,-0.023037176716327667,-0.005378551233187317,-0.005806558253755792
1783246493731400400,2.387400390625,-0.024980127477645872,-0.00526515398658812,-0.012182733089011162
1783246493741412400,2.397412353515625,-0.02064063696861267,-0.007481514861807227,-0.01088202575398609
1783246493751423200,2.40742333984375,0.00046411038041114806,-0.01158756194114685,0.003015986820310354
1783246493761435400,2.417435302734375,-0.0379933383077383,0.008189188207127154,0.0045635359227191655
1783246493771447300,2.427447265625,-0.003423544707894325,-0.010103643526323139,-0.003879581379704177
1783246493781458400,2.43745849609375,-0.03918342487514019,-0.011913944351300597,-0.00472329306169413
1783246493791470300,2.44747021484375,-0.010745265898108482,0.018801256179623305,0.002833287197165191
1783246493801482500,2.457482421875,-0.038275077858567236,0.004531140623614192,-0.00042875593923963606
1783246493811493400,2.467493408203125,-0.012535071924328803,-0.044402036306262015,0.002878742907242849
1783246493821505300,2.47750537109375,-0.03558277003467083,0.03689925946071744,0.003535425850842148
1783246493831516400,2.487516357421875,0.00857902777493,0.010941774850897491,-0.00030884675346314907
1783246493841528300,2.4975283203125,-0.01729015749692917,-0.024123327985219656,-0.0007165690378285944
1783246493851540200,2.507540283203125,-0.049907063463330265,0.002016637052036822,-0.017523381730914115
1783246493861551400,2.51755126953125,-0.012639701342582702,0.018704517806880174,0.016526835841080174
1783246493871563500,2.5275634765625,-0.032090251743793485,-0.029524127582833168,0.01400262372624129
1783246493881575400,2.537575439453125,-0.0317804551422596,0.00688037063088268,0.0020367117256857455
1783246493891586300,2.54758642578125,-0.01471943022608757,-0.0077817764500156044,0.0019210859893821178
1783246493901598500,2.557598388671875,-0.03672141867578029,-0.008486088794469833,-0.005448776058340445
1783246493911610400,2.5676103515625,0.0065402154237031935,-0.0037301995042711496,-0.0021977018405217675
1783246493921621200,2.577621337890625,-0.010501520270109177,0.005377674450352788,0.014654155570687725
1783246493931633400,2.58763330078125,-0.048641573572158814,-0.016657156823016703,0.014717064739065243
1783246493941645300,2.597645263671875,-0.0002899228572845459,0.00707655079010874,0.02166541343908757
1783246493951656400,2.607656494140625,-0.02362169860601425,0.003954692442528903,-0.0011943152179475873
1783246493961668600,2.617668701171875,-0.00025777415335178375,-0.004044343487359583,0.0058486164303496475
1783246493971679500,2.627679443359375,-0.012213584885001181,-0.011132073258608578,0.008498948276042938
1783246493981691400,2.63769140625,-0.04362637575864792,0.004467245074547827,0.0007688015485648065
1783246493991703600,2.64770361328125,-0.0174281046628952,-0.0013422814544290303,-0.0011188570952508597
1783246494001714400,2.65771435546875,-0.020263620349764824,-0.002452069327235222,0.0018786624866072086
1783246494011726300,2.667726318359375,-0.021751813080906866,0.01485438171736896,0.005700805457495153
1783246494021738200,2.67773828125,-0.003032499563694,0.006022950083948672,-0.0017635208074934779
1783246494031749400,2.687749267578125,-0.03579787409007549,-0.009168481568060815,0.006671979444054886
1783246494041761300,2.69776123046875,-0.03145721453726291,-0.0030522271774709223,0.010727803306654096
1783246494051773200,2.707773193359375,-0.015442483803629874,0.0036282369671389457,0.006753319318266585
1783246494061784600,2.71778466796875,-0.014542320093512534,-0.004166106703504919,0.004326512296451255
1783246494071796500,2.72779638671875,-0.019779051703214645,-0.016257416915707288,-0.012890616496885195
1783246494081807400,2.737807373046875,-0.014091653716564177,-0.004888977617956698,0.006503628006670623
1783246494091819300,2.7478193359375,-0.030109891581535337,-0.005393785334937274,-0.0126506519948598
1783246494101831400,2.75783154296875,-0.02262567330598831,-0.0058820437759161,-0.0016957071351353077
1783246494111842300,2.76784228515625,0.0017886369824409484,0.009098010147735477,0.01154944928730838
1783246494121854200,2.777854248046875,-0.007172668108344078,-0.008100340879894792,0.004898065106710418
1783246494131866400,2.787866455078125,-0.03903261822760105,-0.0029816461592912674,0.00508051813468337
1783246494141877500,2.79787744140625,-0.019857962158322334,-0.014878091386519372,-0.005667569908173755
1783246494151889400,2.807889404296875,-0.024634090518951414,-0.008396985738910734,-0.0011141900532878936
1783246494161901600,2.817901611328125,-0.027616321200132368,-0.005376213145628571,0.016075530143314972
1783246494171912400,2.827912353515625,-0.031657705545425414,-0.006841792186163365,0.007434269053442404
1783246494181924400,2.83792431640625,-0.021785130828619003,0.005202244818210602,0.004611475850827992
1783246494191936500,2.8479365234375,-0.03376666052341461,0.005636069658212364,0.0030390845681075003
1783246494201947400,2.857947509765625,-0.009984218397736548,-0.008161094623804092,-0.004679335188958794
1783246494211959300,2.867959228515625,-0.01626665966808796,-0.003254142957739532,-0.0034403497122228142
1783246494221970400,2.877970458984375,-0.0026356092005968093,-0.0023508374424651263,0.0012048366119619459
1783246494231982600,2.887982666015625,-0.010094693034887314,-0.01812770429961383,0.017707442194083704
1783246494241994500,2.897994384765625,-0.01680558885037899,-0.008358845685608685,0.007318414988275617
1783246494252005400,2.90800537109375,-0.04372165282666683,0.004007628206163644,-0.002717414865689352
1783246494262017500,2.918017578125,0.001496376037597656,-0.0067289429288357495,0.007396074201213195
1783246494272029400,2.928029541015625,-0.015827099207043647,-0.006179273156821727,0.008387313728267327
1783246494282040300,2.938040283203125,-0.04933072488009929,0.013378719674237071,-0.0011322280334774403
1783246494292052500,2.948052490234375,-0.03272971869111061,-0.001955225721001625,-0.016562692605750634
1783246494302064400,2.958064453125,-0.02749474064707756,-0.0033149332342669365,-0.008125210459670051
1783246494312075300,2.9680751953125,0.009354688322544097,-0.014661672156862914,0.01788903670553118
1783246494322087200,2.978087158203125,0.027238720059394834,0.002486300390399992,0.017815542211057616
1783246494332098600,2.9880986328125,0.004739888003468513,-0.005245097579248249,0.0012765410081483422
1783246494342110500,2.9981103515625,-0.0209007492095232,-0.008671126505173743,0.008839633206184952
1783246494352122400,3.008122314453125,-0.05227963781356811,0.012139423670247196,0.00164752061185427
1783246494362133500,3.018133544921875,-0.07353694537580013,0.0022332024121657014,-0.00991071477010846
1783246494372145400,3.0281455078125,-0.0584802460193634,0.007065517939440906,-0.02926831705770455
1783246494382157300,3.0381572265625,-0.059165305674076074,-0.0015611483694985507,-0.009884730945480986
1783246494392168200,3.048168212890625,-0.02453355275392532,-0.010099551873095332,0.015240823751688002
1783246494402180400,3.058180419921875,-0.013240005323290824,0.0037349122120067476,0.003113145318161696
1783246494412192300,3.068192138671875,-0.0483890601158142,-0.04087265660371631,-0.06017488457541913
1783246494422203400,3.078203369140625,-0.1222936697602272,-0.5462628496473655,-0.48918680787011976
1783246494432215600,3.088215576171875,0.22385025644004344,-0.2844291552390903,-0.1405475485896226
1783246494442226400,3.098226318359375,0.017395371437072753,-0.1357813297016546,-0.07682415948607958
1783246494452238300,3.10823828125,-0.12041209379732608,-0.16618713548984376,-0.22246486649625002
1783246494462250500,3.11825048828125,0.010244915160536765,-0.04735434677321464,-0.03313923107376322
1783246494472261400,3.128261474609375,-0.006049801558256149,-0.06920103506334126,0.08195436198138631
1783246494482273300,3.138273193359375,-0.08718494697809219,0.10484890622347592,0.09400144032621756
1783246494492285400,3.148285400390625,-0.05580021315515041,0.3136022774271667,0.16202464551553128
1783246494502296300,3.15829638671875,0.033240006300807,0.5003605283133685,0.3697448377465829
1783246494512308500,3.16830859375,-0.06659340984821319,0.46020613951422273,0.30472671439107507
1783246494522320400,3.1783203125,0.026946459114551544,-0.08512238842509687,-0.07421277141128667
1783246494532331500,3.18833154296875,-0.002837269252538681,0.004455627701990306,0.0027951745433267205
1783246494542343400,3.198343505859375,-0.032305940321087835,-0.02588007199205458,0.0041222310291603205
1783246494552354300,3.208354248046875,-0.014495558342337608,0.01596687300391495,0.0037553613449912517
1783246494562366500,3.218366455078125,-0.050855157968401905,-0.007967581345699727,0.0037627683333121237
1783246494572378400,3.22837841796875,-0.007459083834290504,-0.012618147097900509,-0.00457396598518826
1783246494582389200,3.23838916015625,-0.05281564438641071,0.01514521789010614,-0.014876219089841469
1783246494592401400,3.2484013671875,-0.0017985738545656202,0.004014642468839883,0.019725056493654847
1783246494602413300,3.258413330078125,-0.029942718321084975,-0.01766921994239092,0.006935123892268165
1783246494612424400,3.268424560546875,-0.01603577352166176,0.008354388706199825,-0.014470926224580034
1783246494622436400,3.278436279296875,-0.03205810303986072,-0.0036350320341065525,-0.011008045020140706
1783246494632448500,3.288448486328125,-0.006632569882273674,-0.020055420959182082,0.019201626274595037
1783246494642459400,3.29845947265625,-0.01262976447045803,0.00403345676716417,-0.0028801220135763286
1783246494652471300,3.30847119140625,-0.011884499061107634,0.023820545646362004,-0.011947006370685994
1783246494662483200,3.318483154296875,-0.018170447462797164,-0.0026597207285463807,0.017932172594359145
1783246494672494000,3.328494140625,-0.027143442991375923,-0.005424509266763925,0.01606647005402483
1783246494682506200,3.33850634765625,-0.028189737173914906,0.004856098261661827,-0.013022289185691625
1783246494692517400,3.348517333984375,-0.018015549162030218,-0.020116138170473277,0.002204058516072109
1783246494702529300,3.358529296875,-0.01487842018008232,-0.007922134768776595,0.010808613457903266
1783246494712541400,3.36854150390625,-0.0165261873871088,0.0064621452188119285,0.001936594085767865
1783246494722552300,3.37855224609375,-0.013986439776420593,0.006075009064748883,0.0024727924548555162
1783246494732564200,3.388564208984375,-0.018476736932992933,-0.01652589512616396,0.0017831296902615576
1783246494742576400,3.398576416015625,-0.012796353209018707,0.01615925377085805,0.00533772603245452
1783246494752587300,3.408587158203125,-0.011001286485791205,-0.006707973206043243,0.008859525216743349
1783246494762599200,3.41859912109375,-0.019078794479370116,-0.01075403372645378,0.0057273920703213655
1783246494772611300,3.428611328125,-0.02685585822165012,-0.002087692994251847,-0.008115730245271697
1783246494782622500,3.43862255859375,-0.016523849299550055,0.002749992827884853,-0.001692656661523506
1783246494792634400,3.44863427734375,-0.023995792615413663,-0.008932225126773118,0.0061596916735172265
1783246494802645200,3.458645263671875,-0.017258593314886092,-0.005220438062027096,-0.0034441308381967244
1783246494812657400,3.468657470703125,-0.034168227061629294,-0.015373839014209805,-0.004451682179234921
1783246494822669300,3.47866943359375,-0.022494740402698516,-0.008077727189287542,0.013654997598659246
1783246494832680200,3.48868017578125,-0.002443301498889923,-0.002991290770471096,0.0070489777965936804
1783246494842692400,3.4986923828125,-0.02025192991197109,0.005857165062986314,-0.01841591925700195
1783246494852704300,3.508704345703125,-0.002743161228299141,-0.009437763496115803,-0.006925881139887497
1783246494862715100,3.518715087890625,-0.014713585007190704,-0.021398506131209433,0.011095266645867376
1783246494872727300,3.528727294921875,-0.01665828933417797,-0.007171572129800915,0.0024925474680960176
1783246494882739200,3.5387392578125,-0.02967500729560852,-0.0043321109201759096,-0.007886707262368873
1783246494892750300,3.548750244140625,-0.022792846566438672,-0.011324271362461148,-0.000313970453152433
1783246494902762200,3.55876220703125,-0.027280221113562583,-0.010574622038938105,0.008208395231096073
1783246494912774400,3.5687744140625,-0.025186463704705238,0.0006632862143218517,0.000251517942501232
1783246494922785300,3.578785400390625,-0.021440262913703916,-0.007911394179053604,-0.0010511986865196377
1783246494932797200,3.588797119140625,-0.008259878823161124,-0.01597374113611877,0.009324347983207554
1783246494942808300,3.598808349609375,-0.025780337944626808,0.00838682967107743,0.003795620290143415
1783246494952820200,3.6088203125,-0.10689619414210319,0.004074994353950023,-0.022893448263546452
1783246494962832100,3.61883203125,0.12430910123586654,-0.02828238389343023,0.0253630989132449
1783246494972843300,3.62884326171875,-0.14250468313992024,0.01700710277184844,-0.02687238923134282
1783246494982855400,3.63885546875,0.08076572758555411,-0.015459179210104047,0.02513205750319175
1783246494992867300,3.648867431640625,-0.07426701321601867,-0.011430362085439265,-0.00635909583629109
1783246495002878200,3.658878173828125,0.014468670335412024,-0.012615224488452077,0.0036008101040963083
1783246495012890400,3.668890380859375,-0.05541676679551601,0.015282142142765224,-0.01202046433254145
1783246495022902300,3.67890234375,-0.010528992798924445,-0.025044096091948447,0.0065610298828687515
1783246495032913200,3.6889130859375,-0.029977205112576483,0.007781045797653496,-0.004983067375887185
1783246495042925300,3.69892529296875,-0.029531214910745618,0.001528488208912313,-0.007934281864296644
1783246495052936200,3.708936279296875,-0.01620996104478836,-0.0013665025802329183,0.00021362448437139392
1783246495062948400,3.7189482421875,-0.017260346880555152,0.003600910568796098,0.006839088772423565
1783246495072960300,3.728960205078125,-0.014271101936697958,0.003657280398532748,0.0008437208151444792
1783246495082971400,3.738971435546875,-0.027296587726473805,-0.018227584477514026,-0.01300214144680649
1783246495092983300,3.7489833984375,-0.025200492230057714,-0.013877316846139728,-0.0013676533577032387
1783246495102995500,3.758995361328125,-0.027001988694071766,0.010600706328265368,-0.0014401980041060596
1783246495113006300,3.76900634765625,-0.009943886387348175,0.005841017645783722,-0.006448655549576506
1783246495123018200,3.779018310546875,-0.01698036089539528,-0.023902415243536233,-0.01463974345284514
1783246495133030100,3.789030029296875,-0.025361235749721527,0.011439641370438038,0.009457509376201777
1783246495143041300,3.799041259765625,-0.01847907502055168,-0.006648242375440895,-0.0007387717364821583
1783246495153053200,3.80905322265625,-0.027304771032929418,-0.006692081517167389,0.006945316492719575
1783246495163064300,3.819064208984375,-0.005162497329711913,-0.006308817820623517,-0.0006637794046662747
1783246495173076500,3.829076416015625,-0.03494038047790527,0.00042198827173560856,0.012822419232036917
1783246495183088400,3.83908837890625,-0.012342179700732231,-0.013086714457720517,0.008524758570734411
1783246495193099300,3.849099365234375,-0.03822773158550262,-0.01415174987334758,-0.014475109209353104
1783246495203111200,3.859111083984375,-0.025064298629760742,0.005691891498677432,0.006778965216176584
1783246495213123300,3.869123291015625,-0.034189854371547694,-0.0018254983941093086,0.003518840042222291
1783246495223134200,3.87913427734375,-0.019669746109843254,0.0018382482778280973,0.002698591434210539
1783246495233146000,3.88914599609375,-0.028493688556551933,0.00010506780967116356,-0.012545520253106951
1783246495243158300,3.899158203125,-0.01547229442000389,0.0012632979340851307,0.0025880985307507216
1783246495253169400,3.90916943359375,-0.014874913048744201,-0.0018687164813280105,0.0016579872069414703
1783246495263181300,3.919181396484375,-0.021305238357186316,0.01885948917288333,-0.0031111086247023194
1783246495273192200,3.929192138671875,-0.02594751120507717,0.002933094309829175,-0.011725134647777304
1783246495283204400,3.939204345703125,-0.03014028671979904,-0.0011975026888772845,-0.0039209545697085554
1783246495293216300,3.94921630859375,-0.016973931154608726,-0.00924256971757859,0.02049398590638302
1783246495303227100,3.95922705078125,-0.02535714409649372,-0.0007896525403484701,0.005689809139445424
1783246495313239300,3.9692392578125,-0.010694412493705749,-0.0076118997758254404,0.0013241886753123254
1783246495323251200,3.979251220703125,-0.03074234426617622,-0.006035809565521777,0.010437122397543862
1783246495333262000,3.989261962890625,-0.017279051581025124,0.0015287804698571562,0.011946668443968519
1783246495343274200,3.999274169921875,-0.027006080347299573,0.002892323908023536,0.0022609946013893933
1783246495353286100,4.0092861328125,-0.028950784674286842,-0.0030871158277615903,-0.011289282247470691
1783246495363297300,4.01929736328125,-0.030149639070034026,0.006999357368052005,0.012733772834204137
1783246495373309400,4.029309326171875,-0.013393734580278396,0.00016618687976151702,0.010617812726693227
1783246495383320300,4.0393203125,-0.02551788761615753,-0.009177395526878535,-0.0072949519142974165
1783246495393332200,4.049332275390625,-0.022373744371533392,-0.0015762363407760857,-0.003821421451680362
1783246495403344400,4.059344482421875,-0.03569382919371128,0.007870696842484176,0.01090080351969227
1783246495413355300,4.069355224609375,-0.016092472144961355,-0.006624057782255113,0.006851838656142354
1783246495423367200,4.0793671875,-0.028065234011411665,-0.0052343204569071525,-0.00552178649562411
1783246495433379000,4.089379150390625,-0.026874562922120093,0.0052198170075193045,-0.0069960328998044125
1783246495443390500,4.099390380859375,-0.022238135293126106,-0.00431746134031564,-0.0014607841344084589
1783246495453402400,4.10940234375,-0.02791910353899002,-0.011880699668824673,0.00023570845201611518
1783246495463414300,4.119414306640625,-0.02807107923030853,-0.003415178738348186,0.0017240655799396335
1783246495473425400,4.12942529296875,-0.015053776746988295,0.0004915829092264175,-0.011445979779679328
1783246495483437300,4.139437255859375,-0.015647650986909865,-0.009614398704655467,-0.003960784256597981
1783246495493449200,4.14944921875,-0.01879062518775463,-0.007525865460187196,0.006636378407711163
1783246495503460000,4.159460205078125,-0.0169967275083065,-0.004505238997377455,-0.005357417113613337
1783246495513472300,4.16947216796875,-0.025078911677002904,-0.004331270669959485,-0.008676359802717342
1783246495523483400,4.1794833984375,-0.02358078207373619,-0.004505750454030931,0.008998431363934651
1783246495533495300,4.189495361328125,-0.02343348255753517,-0.004280819124355912,0.0011665960939601064
1783246495543507500,4.199507568359375,-0.020743512821197508,-0.00870378666575998,-0.002240052278060466
1783246495553518300,4.209518310546875,-0.029276363366842268,0.0028744594577699897,-0.003920835838699713
1783246495563530200,4.2195302734375,-0.021493454405665396,0.0010428601164370775,-0.0009679773824755102
1783246495573542400,4.22954248046875,-0.019849194329977036,-0.00029390491265803573,0.0013631233130581677
1783246495583553300,4.23955322265625,-0.015661094990372656,-0.0006940832113847136,0.002335192348761484
1783246495593565200,4.249565185546875,-0.01925298200249672,0.007707432572171092,-0.0007720620847307145
1783246495603576000,4.259576171875,-0.015060206487774848,0.0003226926157251,-0.00497331316685304
1783246495613588200,4.269588134765625,-0.006679916155338287,-0.014785554264858364,0.002419902356993407
1783246495623600000,4.27960009765625,-0.015661094990372656,0.005613784761168063,0.0036059155374765393
1783246495633611300,4.289611328125,-0.015811901637911796,0.00025108868423849345,0.0031534773285500704
1783246495643623400,4.29962353515625,-0.03197393188774585,-0.012612228813767433,0.0005733703080099075
1783246495653635300,4.30963525390625,-0.02075520325899124,-0.002076952404528856,-0.004747614652197808
1783246495663646200,4.319646240234375,-0.028830957686901092,0.007861527155339717,0.003928964346228167
1783246495673658400,4.329658447265625,-0.00982815105319023,-0.005887341005541384,0.003177077399846166
1783246495683670300,4.339670166015625,-0.01356909114718437,-0.0036394890135154124,0.006037937590526416
1783246495693681200,4.34968115234375,-0.022701661151647567,0.006747063107416034,-0.004523002982931211
1783246495703693300,4.359693359375,-0.017612229058146477,-0.0012153671391308307,-0.0024363420351408423
1783246495713705200,4.369705322265625,-0.0186567696750164,-0.004260105129890144,0.0008734766325913369
1783246495723716400,4.37971630859375,-0.017760113096237182,-0.009021255117096007,-0.002240910794585943
1783246495733728500,4.389728515625,-0.027785832548141477,-0.0024453838581219313,-0.007067353703500702
1783246495743739400,4.399739501953125,-0.02793254754245281,-0.003530841007269919,-0.001183930821251124
1783246495753751300,4.409751220703125,-0.013120762857794762,-0.0018511808246374128,-0.011377170593477785
1783246495763763500,4.419763427734375,-0.03002688947319984,-0.005209222548268735,0.010110219397582113
1783246495773774300,4.4297744140625,-0.016408113965392112,-0.0056807490501552815,0.0021988617511466144
1783246495783786200,4.4397861328125,-0.018362170642614365,-0.012428542809933423,0.0012353139486163853
1783246495793798100,4.449798095703125,-0.012228197932243346,-0.0012098507137969134,0.00009192520030774176
1783246495803809300,4.459809326171875,-0.00639700756072998,-0.0075680241014808415,-0.006690574546670541
1783246495813821400,4.469821533203125,-0.01896539723277092,-0.011762370518781245,-0.00452761522596702
1783246495823833300,4.479833251953125,-0.03766775961518287,-0.0017699322819709777,0.005232576024392619
1783246495833844500,4.489844482421875,-0.022403554987907408,-0.0034355274066329,0.002252455101907253
1783246495843856400,4.4998564453125,-0.01926291887462139,-0.00835179489031434,-0.005270095023186877
1783246495853867300,4.5098671875,-0.019269933137297628,0.006116327455826103,-0.0034395551277790217
1783246495863879200,4.519879150390625,-0.028100305324792862,-0.007794124474935233,0.0014308639201801269
1783246495873891300,4.529891357421875,-0.029001053556799886,0.0009477291788905858,0.0005425276451744139
1783246495883902200,4.539902099609375,-0.022421090644598005,0.0016035262065008282,-0.009839302634866908
1783246495893914000,4.5499140625,-0.019731705430150032,0.0013736264407634734,-0.0013555793274194002
1783246495903926300,4.55992626953125,-0.026018822875618932,-0.00055350569691509,-0.0009665708766784519
1783246495913937400,4.5699375,-0.026768179938197134,-0.011160532168112695,-0.0023376126347109676
1783246495923949300,4.57994921875,-0.015393968486785889,0.004979249717295169,0.013539353596046567
1783246495933960400,4.58996044921875,-0.021376550027728078,-0.004800678279995918,-0.007225686070369556
1783246495943972400,4.599972412109375,-0.024074118548631666,-0.000543824553117156,0.0026232429093681273
1783246495953984300,4.609984375,-0.01838964317142963,-0.005893697681091725,-0.0030476514670532196
1783246495963995100,4.6199951171875,-0.02197919209599495,-0.0054547217419371,-0.006728769398899748
1783246495974007300,4.63000732421875,-0.030812486892938612,-0.0040394846491515635,0.0011520652451086789
1783246495984019200,4.640019287109375,-0.01689618974328041,-0.004637852401100099,0.0025032332588918508
1783246495994030300,4.6500302734375,-0.0174935711145401,0.002384593581594527,-0.0000010229133069515227
1783246496004042500,4.66004248046875,-0.030812486892938612,0.0010330693747848273,-0.00923548238966614
1783246496014054400,4.670054443359375,-0.028275077369809148,0.0030953356668353077,-0.000713765159389004
1783246496024065300,4.680065185546875,-0.020499767193198203,0.00258639976400882,0.011186077601322904
1783246496034077400,4.690077392578125,-0.01615852311849594,-0.0011900500347837805,-0.010983705163327976
1783246496044089300,4.70008935546875,-0.017207155388593673,0.000605345482006669,0.0025537852691952137
1783246496054100200,4.710100341796875,-0.014364625439047813,-0.003295534414052963,-0.018025559099391103
1783246496064112400,4.7201123046875,-0.03067395520508289,-0.004069404863379896,0.005160862495051696
1783246496074123300,4.730123291015625,-0.0237894563883543,-0.006755356011725962,-0.009700378221366554
1783246496084135200,4.74013525390625,-0.012570727759599686,-0.006391746863722801,-0.0031256851393263786
1783246496094147300,4.750147216796875,-0.020648820275068282,-0.007325009125843644,-0.0022225896866060794
1783246496104158500,4.760158447265625,-0.013019056048989295,0.0034610637066885826,0.004755249969381839
1783246496114170400,4.77017041015625,-0.02154781494140625,-0.0034305589705705642,0.0027931835156399755
1783246496124182300,4.780182373046875,-0.025738252368569373,-0.00941606312096119,-0.010099825867731123
1783246496134193400,4.790193359375,-0.008679565539956092,-0.00716397334523499,-0.009194529324769973
1783246496144205300,4.800205322265625,-0.011225742891430855,-0.006539265575632453,-0.01104074171334505
1783246496154217200,4.81021728515625,-0.035168928536772726,-0.008012224205024539,-0.0011379819208290427
1783246496164228000,4.82022802734375,-0.025289339557290076,-0.003728372873365879,0.003077918741153553
1783246496174240300,4.830240234375,-0.023049451676011082,-0.011560527803748845,-0.0021326646471396087
1783246496184251400,4.84025146484375,-0.030240239962935445,-0.0010923983465880155,-0.0003384473072830587
1783246496194263300,4.85026318359375,-0.013183306699991225,-0.00611245499830693,-0.001879082611715421
1783246496204275500,4.860275390625,-0.030090017837285994,0.0032826018672436476,-0.011267855866951866
1783246496214286300,4.870286376953125,-0.014533552265167235,0.0072612231746315955,-0.0024826197291258722
1783246496224298200,4.88029833984375,-0.02859831797480583,-0.008640840964764356,-0.0049652211919426915
1783246496234310400,4.890310302734375,-0.0184258835285902,-0.0009495558097958564,0.004031465739477425
1783246496244321300,4.9003212890625,-0.02516249830722809,0.004633030095510185,0.0023743370490614322
1783246496254333200,4.910333251953125,-0.013193243572115897,-0.01585595997534692,0.005747302347188815
1783246496264345300,4.920345458984375,-0.025463527080416676,-0.004184007686376571,0.011282578512048348
1783246496274356500,4.9303564453125,-0.023822774136066434,0.008930508093722164,-0.00788247861182317
1783246496284368400,4.940368408203125,-0.02083236014842987,0.005238704371079803,-0.009215763909043743
1783246496294379300,4.950379150390625,-0.023522914406657217,-0.009037658262625337,-0.004469135637534782
1783246496304391400,4.960391357421875,-0.02128068843781948,-0.022193784694746137,0.01667829094259068
1783246496314403300,4.9704033203125,-0.003925649011135101,-0.002702975348383188,-0.003286081599118188
1783246496324414200,4.980414306640625,-0.01649754581451416,-0.0076029127517715095,-0.00911360044251196
1783246496334426400,4.99042626953125,-0.014409049102663994,-0.00733045248594135,-0.008956948576075955
1783246496344438300,5.000438232421875,-0.02997252893745899,0.001958075265213847,0.012679284434299914
1783246496354449200,5.01044921875,-0.01680734241604805,-0.008036920254863798,0.005438218131707981
1783246496364461300,5.02046142578125,-0.020850480327010153,-0.0026069676280021667,-0.0019441289382521063
1783246496374473200,5.03047314453125,-0.03372574399113655,0.0075048226721584795,-0.0009810012608300893
1783246496384484400,5.040484375,-0.01023556281030178,-0.01323470809366554,-0.00860900278808549
1783246496394496300,5.050496337890625,-0.003951367974281311,0.002932984711974859,-0.0000716587304137647
1783246496404507400,5.06050732421875,-0.026249124500155447,0.0007180851414799689,-0.006976962873153388
1783246496414519300,5.070519287109375,-0.005899579432606696,0.0010206482846289873,0.010624087203852831
1783246496424531200,5.08053125,-0.018171616506576536,-0.006580510901473462,-0.005709618951613083
1783246496434542300,5.090542236328125,-0.017422259443998337,-0.0035821328030899166,-0.0005312847319524735
1783246496444554200,5.10055419921875,-0.020261282262206075,0.005752316449023783,-0.008812809131341054
1783246496454566100,5.110566162109375,-0.01158405480980873,0.008908551990240812,0.002341768220020458
1783246496464577500,5.12057763671875,-0.03193944509625435,-0.0011872004905715584,0.010679653315991163
1783246496474589400,5.13058935546875,-0.03178980749249458,-0.004634820193797349,-0.015515348110441118
1783246496484601300,5.140601318359375,-0.023112580040097235,0.00047653147056698797,-0.0017946922638919203
1783246496494612200,5.1506123046875,-0.030292262411117554,-0.0019725787146016955,-0.002385433831810951
1783246496504624400,5.160624267578125,-0.021610358783602714,0.007379223531112074,-0.0024805921688210216
1783246496514635300,5.17063525390625,-0.022508768928050992,0.009165960817411542,-0.004626372025860474
1783246496524647200,5.180647216796875,-0.025949849292635916,0.00108169428948313,-0.003697183150658384
1783246496534659300,5.190659423828125,-0.019660393759608267,0.0038400896195322273,-0.00012938940017484128
1783246496544670500,5.20067041015625,-0.016962825238704682,-0.00972290058042854,-0.0022694975682534275
1783246496554682400,5.210682373046875,-0.019203297641873358,-0.009960070337168872,0.0045619558869861064
1783246496564694500,5.220694580078125,-0.018906360521912573,-0.002443630292452872,-0.01595688133286312
1783246496574705400,5.230705322265625,-0.022653730356693266,-0.0066512380501255386,0.0006836166162975132
1783246496584717300,5.24071728515625,-0.02205576446354389,0.01519650968592614,-0.005950542434863746
1783246496594729500,5.2507294921875,-0.03417757941186428,-0.013056465449929236,-0.008015594339044764
1783246496604740400,5.260740234375,-0.01787351034283638,0.0021814722249284386,0.0005392945084720849
1783246496614752300,5.270752197265625,-0.016976853764057158,0.0025119828209280966,-0.015142751938384026
1783246496624763100,5.28076318359375,-0.0069482117027044295,-0.008027567904628812,0.0008278291262686252
1783246496634775300,5.290775390625,-0.019817045626044274,-0.010276040951162576,0.002174576693261042
1783246496644787200,5.300787109375,-0.016973931154608726,0.005580101687274873,0.00156428104150109
1783246496654798300,5.31079833984375,-0.0205652336448431,-0.003700352355279028,0.005882399968942627
1783246496664810500,5.320810546875,-0.017720365607738493,-0.0028308395117521284,0.003668413713900372
1783246496674822400,5.330822509765625,-0.019514263287186622,-0.003154737703874707,-0.005897926331637427
1783246496684833300,5.340833251953125,-0.01308159989118576,-0.004908157242462039,-0.010051949871703983
1783246496694845400,5.350845458984375,-0.016672902381420135,-0.0004050006043165922,0.0056987870303448285
1783246496704856300,5.360856201171875,-0.012930208721756934,0.0038984322106465695,-0.0007161123801022768
1783246496714868200,5.3708681640625,-0.018764321702718734,-0.0003076411770656705,0.00009141374365426599
1783246496724880100,5.380880126953125,-0.008884732723236083,0.004134980912879109,0.010617392601585014
1783246496734891500,5.3908916015625,-0.019357611420750615,0.012048019059747457,0.009179770147055387
1783246496744903400,5.4009033203125,-0.008135375660657883,-0.010082125814259052,0.013363869164977222
1783246496754915300,5.410915283203125,0.0024894787281751632,0.008484700554981827,-0.00031582448352128267
1783246496764926500,5.420926513671875,-0.004542319604754447,-0.011759374844096601,-0.013984814074914902
1783246496774938400,5.4309384765625,-0.028034838873147963,0.005304718811996281,-0.0018242197524756191
1783246496784950300,5.4409501953125,-0.021904957816004753,-0.006126264327950775,-0.0006239588509313762
1783246496794961200,5.450961181640625,-0.010532499930262566,-0.007307692664861679,-0.011948997398372739
1783246496804973300,5.460973388671875,-0.024001053312420844,-0.008343538518622517,0.0031242055682931093
1783246496814984400,5.470984375,-0.02415244448184967,0.0037997210765257474,-0.0060216349096968765
1783246496824996400,5.480996337890625,-0.011131634867191313,0.0049517771884799,-0.009036827145563439
1783246496835008300,5.49100830078125,-0.02774082436263561,0.007615553037635982,0.0037659832037054
1783246496845019400,5.501019287109375,-0.020107553005218503,-0.0005004603354260325,0.0038973910310305653
1783246496855031300,5.51103125,-0.025794366469979284,-0.0018313070803880691,-0.0025255455553997307
1783246496865043500,5.52104345703125,-0.024153029003739356,-0.005188618151657283,0.004803664821526036
1783246496875054300,5.531054443359375,-0.02415244448184967,-0.0031143691608682272,-0.009461856757756322
1783246496885066200,5.541066162109375,-0.008290273961424828,0.005110621012002229,-0.0005994728636462241
1783246496895078400,5.551078369140625,-0.024751579418778417,-0.0020430866675451398,-0.0023704189257696268
1783246496905089300,5.56108935546875,-0.0005108721315860748,0.005749357306957244,0.0024086411774624137
1783246496915101200,5.57110107421875,-0.016074351966381073,0.0020242358366027472,-0.0023716427684761583
1783246496925112300,5.5811123046875,-0.02625029354393482,-0.018131065300479532,-0.010338173801405354
1783246496935124500,5.59112451171875,-0.026548399707674978,-0.0151382036274299,0.00785951786134392
1783246496945136400,5.601136474609375,-0.016220482438802718,-0.003635945349559188,-0.000864498741691932
1783246496955147300,5.611147216796875,-0.026246201890707015,0.005801708548702299,-0.015457252114498986
1783246496965159400,5.621159423828125,-0.024750994896888732,0.0028424934169277547,-0.00511417380911298
1783246496975171300,5.63117138671875,-0.017124737802147863,0.00021919570863246916,0.0015432291203178465
1783246496985182200,5.64118212890625,-0.024457564908266068,-0.0009715849785134195,0.0076413724654819815
1783246496995194400,5.6511943359375,-0.018474983367323873,-0.009892667656764387,-0.004924003265565261
1783246497005206300,5.661206298828125,-0.026858196309208868,0.0018636749800294637,0.005054589108983054
1783246497015217400,5.671217529296875,-0.021473580661416053,0.0019118980359286069,-0.0036155144828837363
1783246497025229300,5.681229248046875,-0.012190204009413718,-0.009540456685610115,-0.004265511957369745
1783246497035240400,5.691240478515625,-0.004409048613905907,-0.005359298543445766,0.006198882039589807
1783246497045252400,5.70125244140625,-0.013235913670063017,0.003869534909725189,-0.006137662504799663
1783246497055264300,5.71126416015625,-0.02954641247987747,-0.004035246865451336,-0.007854348495882004
1783246497065275400,5.721275390625,-0.016227496701478956,-0.007199044658616185,-0.00036691534994170066
1783246497075287300,5.731287353515625,-0.018922727134823798,-0.005798164884746075,-0.002998003639047965
1783246497085299200,5.74129931640625,-0.024760347247123716,-0.0066677142608910795,0.008090623203478753
1783246497095310300,5.751310302734375,-0.02221709250509739,-0.0022974632874131202,0.021914154902612788
1783246497105322200,5.761322265625,-0.021921908950805664,0.005128485462255776,0.006711306807445362
1783246497115334400,5.77133447265625,-0.02192716964781284,-0.013949468766897916,0.013092888470180333
1783246497125345300,5.78134521484375,-0.0267173265337944,-0.004041530475765467,-0.007420998579915613
1783246497135357400,5.791357421875,-0.01924012252092361,-0.011120602016523479,-0.007220370574435218
1783246497145368300,5.801368408203125,-0.012363807010650634,-0.0006806757405400276,-0.00021419987310655414
1783246497155380200,5.811380126953125,-0.028076924449205398,-0.010256569065712392,0.0016367617558222262
1783246497165392400,5.821392333984375,-0.030770985838770866,-0.0050295551324263214,-0.0029227190462872386
1783246497175403300,5.8314033203125,-0.03421849594414234,0.007505005335249006,-0.010990527629759161
1783246497185415200,5.841415283203125,-0.03527063534557819,-0.0018324761241674422,-0.0028843323978129773
1783246497195427300,5.85142724609375,-0.015068974316120146,-0.002285809382237494,0.002395114975608885
1783246497205438500,5.8614384765625,-0.038414194068312646,0.008518931618146599,0.005541532375710085
1783246497215450400,5.871450439453125,-0.022398878812789916,-0.0033801804902032014,0.002685914615727961
1783246497225461200,5.881461181640625,-0.012069792500138283,-0.0053916299104690545,-0.0006103778501506895
1783246497235473400,5.891473388671875,-0.023740356549620627,-0.0016766279753297566,0.0026911205138079822
1783246497245485300,5.9014853515625,0.0036421558946371077,-0.014192447209917008,0.0002537829648237675
1783246497255496200,5.91149609375,-0.014016250392794609,0.0036507410598918795,0.005401603315211832
1783246497265508400,5.92150830078125,-0.029431261667609215,0.0033599414197728037,0.004396691455831751
1783246497275520300,5.931520263671875,-0.019555179819464683,0.0003952098626643419,0.001623272086586803
1783246497285531400,5.941531494140625,-0.01536123526096344,0.0040826296711340545,0.002323730239830911
1783246497295543600,5.95154345703125,-0.020893150424957273,-0.0022873802848160265,-0.00441302153612487
1783246497305555500,5.961555419921875,-0.014010405173897742,0.008947568826377391,-0.011573633880494162
1783246497315566300,5.97156640625,-0.017304186022281644,-0.005531147979013621,0.0025079094340093432
1783246497325578200,5.981578125,-0.008178045758605004,-0.006392733244411647,-0.00437974032103084
1783246497335589400,5.99158935546875,-0.018500702330470083,-0.0026919059650972483,0.002824930360773578
1783246497345601300,6.001601318359375,-0.02358721181452274,-0.0006048340253531932,0.006159417678881436
1783246497355613200,6.01161328125,-0.014013327783346175,0.008433627954870461,-0.0023346169600263235
1783246497365624300,6.021624267578125,-0.022989245921373365,0.008259075105562806,-0.005421586657315492
1783246497375636200,6.03163623046875,-0.024638766694068906,-0.005129508375562727,-0.010596578142419457
1783246497385648000,6.041648193359375,-0.012817395997047424,-0.005421294396370649,0.0003656732409261167
1783246497395659300,6.0516591796875,-0.016706804651021957,0.007597140598110854,0.020929445581045
1783246497405671400,6.06167138671875,-0.01132218900322914,-0.00026855127569288016,0.007833634501416236
1783246497415683300,6.071683349609375,-0.022996260184049606,-0.003964775445125997,0.001116637738700956
1783246497425694200,6.081694091796875,-0.033925065955519675,0.0001799962094053626,-0.007848877736320719
1783246497435706400,6.091706298828125,-0.027642040163278578,0.010990290167741477,0.007757326995348557
1783246497445717200,6.10171728515625,-0.021207623201608655,-0.0029529315214604137,-0.000298234027903527
1783246497455729200,6.111729248046875,-0.028689503389596936,-0.003995608974806964,-0.010160442614322527
1783246497465741300,6.1217412109375,-0.00504851556122303,0.009957403456047178,-0.00534285886529833
1783246497475752400,6.13175244140625,-0.02420388240814209,0.007308788643404841,0.005915991711290553
1783246497485764400,6.141764404296875,-0.01866729106903076,0.002215630222856998,0.011765302261384203
1783246497495776500,6.151776611328125,-0.02270633732676506,-0.005273775684460997,0.004461692116595805
1783246497505787400,6.161787353515625,-0.02210544882416725,-0.006953435867093503,0.010049730515154077
1783246497515799300,6.17179931640625,-0.022699907585978507,0.007800700346194207,0.00935828678542748
1783246497525810200,6.18181005859375,-0.020750527083873746,0.002787731022387743,-0.0014101133930962532
1783246497535822300,6.191822265625,-0.022096096473932264,0.002316642911918461,0.004554411901347339
1783246497545834200,6.201834228515625,-0.021797990310192108,0.0005452858578413724,-0.0030685937903821466
1783246497555845400,6.211845458984375,-0.02045242092013359,0.002360299390554428,0.00694625720763579
1783246497565857500,6.221857421875,-0.013420038065314293,-0.00198719176184386,0.003456698058824986
1783246497575869400,6.231869384765625,-0.020153730234503744,-0.007813998219184578,0.008110533480346202
1783246497585880300,6.24188037109375,-0.016864041039347646,0.00018522037379443645,0.00042291985349729655
1783246497595892500,6.251892578125,-0.00938157632946968,0.009919044207036494,-0.00489986433815211
1783246497605904400,6.261904296875,-0.04110650189220905,0.0030493776332587,-0.0027016419078223406
1783246497615915300,6.271915283203125,-0.015666940209269523,-0.007727415914274752,0.013377276635821908
1783246497625927200,6.28192724609375,-0.03362403718233108,-0.005462137863412499,0.004864034972945228
1783246497635938300,6.291938232421875,-0.024493220743536947,-0.009712927175685762,-0.004445562965702265
1783246497645950200,6.3019501953125,-0.02643500246107578,0.004430237532407045,0.0031647202417720106
1783246497655962000,6.311962158203125,-0.04110182571709156,0.007329648768343031,-0.0014310100506525485
1783246497665973200,6.32197314453125,-0.026138065341114996,-0.0019522665789350865,-0.006809780479548499
1783246497675985400,6.3319853515625,-0.03271861277520657,0.005481719346717,0.0028236151865217835
1783246497685997300,6.341997314453125,-0.02119359467625618,0.019510865753702818,0.003321655235998332
1783246497696008200,6.35200830078125,-0.032721535384655,-0.001036065049469471,-0.009274006035458296
1783246497706020400,6.362020263671875,-0.026440847679972648,-0.011586392897367476,-0.0049048419073689726
1783246497716031200,6.37203125,-0.02389583937227726,-0.00922185572311282,0.0013180511954706162
1783246497726043100,6.382043212890625,-0.0006985036581754684,0.003886047653108835,0.0076217361832503225
1783246497736055300,6.39205517578125,-0.03960603420138359,-0.006424224361218512,0.0005523275199811905
1783246497746066400,6.40206640625,-0.03391805169284343,0.005073394274152815,-0.0033213264424353838
1783246497756078300,6.412078369140625,-0.014167641562223434,-0.003102532592602074,0.0054147915903478856
1783246497766090500,6.422090576171875,-0.03272796512544155,0.0028269305216148495,-0.00011197247449308633
1783246497776101400,6.432101318359375,-0.022405308553576468,-0.009386800493858755,-0.005729118236526847
1783246497786113300,6.44211328125,-0.026595161458849905,-0.005496588122285902,-0.0057564720343332735
1783246497796125200,6.452125244140625,-0.009385667982697486,-0.011638780671730636,0.00178888357761316
1783246497806136300,6.46213623046875,-0.030635376760363577,0.00514262358546257,-0.0007676873037125915
1783246497816148200,6.472148193359375,-0.02061141087412834,0.004103599393926561,0.002295052134618163
1783246497826159400,6.482159423828125,-0.02584463535249233,0.0011942878184840083,-0.017432579908613115
1783246497836171300,6.492171142578125,-0.022253917384147642,0.0027140081990510226,-0.0014926314442418515
1783246497846183400,6.502183349609375,-0.007442132699489593,0.008457410689257084,0.0006217760269995778
1783246497856194300,6.5121943359375,-0.03033668607473373,0.0009843348622322083,-0.0014300693357363343
1783246497866206200,6.522206298828125,-0.027795184898376464,-0.005407558131963014,-0.0000719327250495553
1783246497876218400,6.53221826171875,-0.009540566283464431,-0.0008738967576995491,0.004931949110003188
1783246497886229200,6.542229248046875,-0.025551789885759353,-0.008655636675097047,0.004059531923336908
1783246497896241200,6.5522412109375,-0.010296353086829186,-0.0060137438641861074,0.004923300012666732
1783246497906252300,6.562252197265625,-0.05897299797236919,0.012435958931408822,-0.00883798923837021
1783246497916264200,6.57226416015625,0.0029699557214975356,0.007740458058938383,0.006740313706221059
1783246497926276000,6.582276123046875,-0.007832008799910545,-0.0013633973076939581,-0.0024738519007805734
1783246497936287200,6.592287353515625,-0.04331716367900371,-0.004695427807234228,-0.00430018141195178
1783246497946299400,6.60229931640625,-0.014319032731652259,-0.0029350670712068676,0.0014164700686465949
1783246497956311300,6.612311279296875,-0.02570435009896755,0.00035169951450079675,-0.008193206795118748
1783246497966322200,6.622322265625,-0.01732932046353817,-0.0033388986317440866,0.013233548183040693
1783246497976334300,6.632334228515625,-0.008489595925807952,0.009986483420059084,0.007452754558203742
1783246497986346200,6.64234619140625,-0.01610240901708603,-0.0012736731976270674,-0.006047737465333193
1783246497996357000,6.652357177734375,-0.01249298634827137,-0.006691971919313072,-0.003991088063316419
1783246498006369300,6.662369384765625,-0.017252748095989225,0.003324723975919187,0.013567447179369628
1783246498016380400,6.67238037109375,-0.008690086933970451,-0.012621361968293785,0.00826700268369168
1783246498026392300,6.682392333984375,-0.03410217608809471,0.0005613236771896481,-0.0029917748276609927
