time,seconds_elapsed,z,y,x
1783246391772013300,0.059013427734375,-0.07066518933176993,0.01081789274290204,-0.010831286514014936
1783246391782025200,0.069025146484375,0.00595043283700943,-0.00429707613941282,0.006638828376412857
1783246391792036400,0.079036376953125,-0.020391630643606183,0.01454425632227212,-0.009433797423762734
1783246391802048500,0.089048583984375,-0.03640402328968048,-0.0000789104551076889,-0.004793120594625361
1783246391812059400,0.099059326171875,-0.003632219022512436,0.0006347907721996307,0.011006508366891647
1783246391822071300,0.1090712890625,-0.015903087052702904,0.00003912643399089574,-0.002934637812944129
1783246391832083500,0.11908349609375,-0.020242577561736107,-0.0019022899573668836,0.008581904718605801
1783246391842094300,0.12909423828125,-0.015902502530813215,-0.01583853391651064,0.003958411919709761
1783246391852106200,0.139106201171875,-0.031761750441789624,-0.006161043380387127,0.008308476338395848
1783246391862117400,0.149117431640625,-0.008265724042057991,-0.010127718521654606,-0.000496409781393595
1783246391872129500,0.159129638671875,-0.023080431336164473,0.007693696307763457,-0.0033130266882595606
1783246391882140400,0.169140380859375,-0.021885668593645095,0.0016289894413203,0.014520975911384447
1783246391892152300,0.17915234375,-0.025029227316379545,0.00014992986470460892,0.0016365105940727516
1783246391902164500,0.18916455078125,-0.01993921070098877,-0.00019194237552583218,0.008765910382848232
1783246391912175400,0.19917529296875,-0.013804653468728065,0.0028111484305933117,0.007152709882415365
1783246391922187300,0.209187255859375,-0.019644027146697045,0.006789952401071786,-0.0021732204198138786
1783246391932198400,0.219198486328125,-0.025483400824666023,-0.015864618205837903,-0.006256487128476146
1783246391942210600,0.22921044921875,-0.02803191626369953,-0.0027260639630258083,0.021890495465812274
1783246391952222500,0.239222412109375,-0.008431143736839295,0.0050848289836198084,0.00986643267038744
1783246391962233300,0.2492333984375,-0.022198972326517102,-0.011336875115707516,0.0017929181486251763
1783246391972245500,0.25924560546875,-0.026236265018582342,0.0005626753840595484,0.004207420528004877
1783246391982256400,0.26925634765625,-0.023390227937698363,0.014242643027193844,0.00415801244530594
1783246391992268300,0.279268310546875,-0.034165888974070545,0.001566774392686784,-0.008301092182961291
1783246392002280400,0.289280517578125,-0.028027240088582036,-0.0037524844013154504,-0.012979212662368081
1783246392012291300,0.299291259765625,-0.007827332624793052,-0.015098346541076897,0.009583775237528607
1783246392022303200,0.30930322265625,-0.014114450070261955,0.009639533145911991,0.004446572179277427
1783246392032314400,0.319314453125,-0.02069675107002258,-0.0091116733469069,-0.00587557521922281
1783246392042326500,0.329326416015625,-0.01261456690132618,-0.010948679515719413,-0.01338261268135393
1783246392052337400,0.33933740234375,-0.025633622950315474,-0.0018151596631854772,-0.0067975511856377124
1783246392062349300,0.349349365234375,-0.006928337958455085,0.0035669717665761705,0.004447992384806275
1783246392072361500,0.359361572265625,-0.013062310668826103,-0.0025929025700315834,0.002737498672492802
1783246392082372400,0.369372314453125,-0.034164135408401484,0.003007730448618531,0.009109225661493837
1783246392092384300,0.37938427734375,-0.03551555001735687,0.010761888239346444,-0.004432762849633582
1783246392102395400,0.3893955078125,-0.02638940975368023,-0.007458828105963766,0.00829057992210146
1783246392112407600,0.399407470703125,-0.027885785791277883,0.0015315934814512729,-0.0036297644872334786
1783246392122419500,0.40941943359375,-0.025939912420511243,0.0012197510533034802,0.012296114352589938
1783246392132430300,0.419430419921875,-0.0251923089236021,-0.01073405038435012,-0.0020264163772459143
1783246392142442500,0.4294423828125,-0.012025368836522101,-0.020576558756455778,-0.004214400541351642
1783246392152453400,0.439453369140625,-0.031926001092791555,-0.013423179870471357,0.0039966981034842315
1783246392162465300,0.44946533203125,-0.015467033722996711,-0.008448715926147998,0.0036847437941934912
1783246392172477400,0.4594775390625,-0.012176760005950927,0.00161744513399899,0.0014581537859048694
1783246392182488300,0.46948828125,-0.027140520381927487,0.008656476925313471,-0.0012214384036022237
1783246392192500500,0.47950048828125,-0.012027706924080847,-0.00031045418865978717,0.0010545642539625986
1783246392202511400,0.489511474609375,-0.021308160966634748,-0.01055562507752329,-0.0030913399117300285
1783246392212523500,0.4995234375,-0.0027536826223134993,0.0011244374526664614,0.004094151145569049
1783246392222534400,0.509534423828125,-0.009035539370775222,0.005242467230744659,0.01113287925949553
1783246392232546300,0.51954638671875,-0.016965163326263428,-0.010795132921822369,-0.014925828101939986
1783246392242558500,0.529558349609375,-0.015018120911717414,0.0036622853672131895,-0.00660910224171821
1783246392252569300,0.5395693359375,-0.01651274338364601,0.0013884586837142705,-0.0037173514391412024
1783246392262581200,0.549581298828125,-0.01995557731389999,-0.012804244254529475,-0.012234264630137477
1783246392272592400,0.55959228515625,-0.022950082954764365,0.003691913320496678,-0.010340260727214626
1783246392282604500,0.5696044921875,-0.01591711557805538,0.0034041458876803514,0.0007635431348462588
1783246392292616400,0.579616455078125,-0.006638999623060226,-0.0051417833352461455,-0.0028679498018813316
1783246392302627300,0.58962744140625,-0.012171499308943748,-0.014819054675661027,-0.005230929773289244
1783246392312639500,0.599639404296875,-0.025640637212991712,-0.010442300896160304,-0.0030478775126277467
1783246392322650400,0.609650390625,-0.02339899576604366,-0.008720226343907416,-0.00030041456854669376
1783246392332662300,0.619662353515625,-0.035218612897396084,0.007096680262684822,-0.005621541092649568
1783246392342674400,0.62967431640625,-0.020555881294608114,-0.0015247253492474556,-0.016504121685773133
1783246392352685600,0.639685546875,-0.031927170136570926,0.006066533497348427,-0.007749819542327895
1783246392362697500,0.649697509765625,-0.008582534906268119,0.002296294243633747,-0.011037250565027351
1783246392372708400,0.659708251953125,-0.017409984484314918,-0.005811207029409706,-0.0018620812445646151
1783246392382720500,0.669720458984375,-0.013369769182801246,0.00018310148194432258,0.0008400036212522536
1783246392392731400,0.6797314453125,-0.015464111113548278,-0.004614873384311795,0.016038170974724927
1783246392402743300,0.689743408203125,-0.01321837801337242,0.017952055471763012,0.015334527633839752
1783246392412755500,0.69975537109375,0.00024608371555805207,-0.021928448289446532,0.0007457197837880813
1783246392422766300,0.709766357421875,-0.021299977660179138,-0.02766724766977131,-0.01478622326842742
1783246392432778200,0.7197783203125,-0.021897359031438825,0.03290580591037869,0.02157451800195267
1783246392442789400,0.729789306640625,-0.019053075516223907,0.009841156665235757,0.0011999366745585574
1783246392452801500,0.739801513671875,-0.014416063365340232,-0.0513276708509773,-0.02319174394024303
1783246392462813400,0.7498134765625,-0.012473112604022025,0.02684679813235998,-0.0009590291743283159
1783246392472824300,0.75982421875,-0.027585926061868667,0.03073160367645323,0.026090161945624274
1783246392482836500,0.76983642578125,-0.009926350730657577,-0.049674898675270376,0.012163532914908137
1783246392492847400,0.779847412109375,-0.023399580287933347,0.002693221139349043,-0.02103416633084416
1783246392502859300,0.789859375,-0.026994389909505843,0.037942996359989045,-0.003282727448118385
1783246392512871400,0.799871337890625,-0.0139729957729578,-0.03708550274781883,0.015029176595271565
1783246392522882600,0.809882568359375,-0.022505261796712875,-0.026549714881926773,-0.00273552591111511
1783246392532894500,0.81989453125,-0.041214638441801066,0.03071154726911336,-0.022788601932872552
1783246392542905300,0.8299052734375,-0.01891512835025787,-0.008857625520601868,0.0004146337990532629
1783246392552917500,0.83991748046875,-0.0024526538491249084,-0.038092962757311756,0.017751087256276513
1783246392562929400,0.849929443359375,-0.03836684779524803,0.026128749523498116,-0.010475424564338755
1783246392572939500,0.859939453125,-0.021158523362874982,-0.010534655354730785,-0.019254061998019458
1783246392582951700,0.86995166015625,-0.012630348992347716,-0.021265527401305735,0.014052632313850335
1783246392592962800,0.879962890625,-0.013081015369296073,0.013947897864319382,0.01571680951627204
1783246392602974700,0.889974609375,-0.01622398957014084,0.022785649640671906,-0.031235116768779696
1783246392612985600,0.899985595703125,-0.01741758326888084,-0.029518574624881146,-0.012221873222733846
1783246392622997800,0.909997802734375,-0.02056172651350498,0.008232187098637224,0.01568352601788938
1783246392633009700,0.920009765625,-0.017868834167718887,0.01962692988142371,0.0066857705073896795
1783246392643020500,0.9300205078125,-0.013232991060614586,-0.01412833246514201,-0.0036912899827002544
1783246392653032700,0.94003271484375,-0.009494973576068877,-0.020037958367727697,-0.021125292380130847
1783246392663043800,0.9500439453125,-0.0120429044932127,0.024345884694717823,0.002941734274011105
1783246392673055700,0.9600556640625,-0.01578326006531715,-0.010528444809652864,0.0012710154496598988
1783246392683068000,0.97006787109375,-0.016533786171674728,-0.011077310864068567,0.006929504718945827
1783246392693078800,0.980078857421875,-0.026857611787319182,0.014629961844347417,0.003301585128926672
1783246392703090700,0.990090576171875,-0.021322774013876913,0.003890029708482325,0.009817321415210608
1783246392713101600,1.0001015625,-0.0065092357635498045,-0.009396006713621318,0.02154202223814791
1783246392723113700,1.01011376953125,-0.012493570870161055,0.012711743665486573,-0.009734607001242693
1783246392733125600,1.020125732421875,-0.02640928349792957,0.013595321566984057,0.008941308048949576
1783246392743136800,1.03013671875,-0.017877017474174497,-0.01953475808594376,0.017242639977217186
1783246392753148700,1.040148681640625,-0.035683892321586606,-0.002776917367428541,0.01266083089557942
1783246392763159800,1.050159912109375,-0.02326572477519512,0.02119933029729873,-0.01274108164111385
1783246392773171700,1.060171630859375,-0.02416238135397434,-0.006499700750224292,0.0009505421904847025
1783246392783182600,1.0701826171875,-0.00336450799703598,-0.008104322935268282,0.007404186725721228
1783246392793194800,1.08019482421875,-0.01907996352314949,0.010233370853215455,-0.012098242276487871
1783246392803206700,1.09020654296875,-0.04466799376606941,-0.003986987276934087,0.0007062120405957103
1783246392813217500,1.100217529296875,-0.013987024298310278,-0.016835618662461638,0.00010072499469388276
1783246392823229700,1.110229736328125,-0.014592004454135894,0.011754479473270475,0.001548049142619129
1783246392833240800,1.12024072265625,-0.02626023041605949,-0.005247910590842366,0.004354934673337266
1783246392843252700,1.130252685546875,-0.023414777857065198,-0.01907762543559074,-0.0009304081513313576
1783246392853265000,1.140264892578125,-0.02087152311503887,0.0030740006178617474,0.003051624389272183
1783246392863275800,1.15027587890625,-0.032841362372040744,0.01231193069294095,0.015748184185358696
1783246392873287700,1.16028759765625,-0.013539865052700042,-0.007692856057547033,0.006931048222060781
1783246392883298600,1.170298583984375,-0.014438275197148322,-0.007514065424539148,-0.0011344725062022915
1783246392893310700,1.180310791015625,-0.012195464706420897,-0.00028904607445001603,-0.010814319396193605
1783246392903322600,1.190322509765625,-0.020874445724487302,-0.0005865677163004875,0.005250922248547431
1783246392913333800,1.200333740234375,-0.02581073308289051,-0.011548581637628376,-0.003741492649842985
1783246392923346000,1.210345947265625,-0.014589081844687461,0.000880984085611999,-0.008619547014986165
1783246392933356800,1.220356689453125,-0.015936989322304723,-0.006870324160903692,-0.0013521361281629651
1783246392943368700,1.23036865234375,-0.023569676157832144,-0.014180683706887066,0.0022250647714827207
1783246392953379600,1.240379638671875,-0.016238602617383004,0.019367584825493393,-0.005611597370659001
1783246392963391700,1.250391845703125,-0.014890110617876052,0.006615107290819287,-0.007238609484024346
1783246392973403600,1.260403564453125,-0.010696750581264495,-0.016674144490435718,0.004882431429449934
1783246392983414500,1.27041455078125,-0.01578501363098621,-0.0008015621738508344,0.006126255194796249
1783246392993426700,1.2804267578125,-0.011595160725712775,0.0032320041911676526,-0.01414594118706882
1783246393003437800,1.290437744140625,-0.017882278171181678,-0.002536057816259563,0.0030124842555494975
1783246393013449700,1.30044970703125,-0.02446399464905262,-0.0027380831943824885,0.010888033086375799
1783246393023461600,1.310461669921875,-0.010097615644335747,0.014435864044353364,-0.008227074815391098
1783246393033472800,1.32047265625,-0.01293956107199192,-0.011184643696062266,0.004303352899861056
1783246393043484700,1.330484619140625,-0.02281564292013645,-0.0026487609431147573,0.002824425753985997
1783246393053495600,1.34049560546875,-0.02207154655456543,0.0004630144018679857,0.0119242305665859
1783246393063507700,1.3505078125,-0.02312193239033222,0.0048636605136096476,0.003681245796009898
1783246393073519600,1.36051953125,-0.012050503277778625,-0.0018274346228688955,-0.00747949186807964
1783246393083530800,1.37053076171875,-0.0193844994276762,0.0010559753263369202,-0.004828070893709082
1783246393093543000,1.38054296875,-0.010709025540947914,-0.003947495516762137,0.002792491679184604
1783246393103553800,1.3905537109375,-0.03285480637550354,-0.007247559975460172,0.005891925849113613
1783246393113565700,1.400565673828125,-0.017293664628267286,-0.008572305773198605,-0.019164890443801413
1783246393123576600,1.41057666015625,-0.016994973942637444,0.00684931790549308,-0.013112874095572623
1783246393133588700,1.420588623046875,-0.020436638829112053,-0.0057250631159171455,0.008105307032668497
1783246393143600600,1.4306005859375,-0.01729483367204666,-0.0036182635623961683,-0.004029540927160996
1783246393153611800,1.44061181640625,-0.025825346130132674,0.002241531849093735,-0.004050930775061715
1783246393163624000,1.4506240234375,-0.027767712369561194,-0.003819375625066459,0.014090153595933224
1783246393173634800,1.460634765625,-0.02282791787981987,0.001074241635389626,-0.002535596591955982
1783246393183646700,1.470646728515625,-0.002475450202822685,-0.01049026822373271,-0.002534233468642924
1783246393193658600,1.48065869140625,-0.014745733711123466,0.0013380071381106971,-0.009749288547143806
1783246393203669800,1.490669677734375,-0.02087853737771511,-0.0025969576906412837,-0.0016977209957083686
1783246393213681700,1.500681640625,-0.033148236364126206,0.0009880246566608547,-0.0017050138195976615
1783246393223692500,1.510692626953125,-0.015640636724233627,-0.0005187631770968437,0.0022706460624351164
1783246393233704700,1.52070458984375,-0.02985270195007324,-0.0006156111476942897,0.0027097452991758472
1783246393243715800,1.5307158203125,-0.01817979981303215,-0.0018210779473185538,-0.00002623726966558024
1783246393253727700,1.540727783203125,-0.014437690675258635,-0.006947663713432848,0.0021251754604279995
1783246393263739600,1.55073974609375,-0.016085457882285117,-0.0016638050263747572,-0.008782998514967038
1783246393273750800,1.560750732421875,-0.0205740014731884,-0.005564794520288706,-0.009544520939374341
1783246393283762700,1.5707626953125,-0.010693243449926376,-0.004336348703876137,-0.008246462219161912
1783246393293773600,1.580773681640625,-0.029995909813046454,-0.004200082038342953,0.0005731191462604329
1783246393303785700,1.59078564453125,-0.028648586857318876,-0.00257175018414855,-0.001953905980172567
1783246393313797600,1.600797607421875,-0.012632102558016776,-0.01556760802064091,0.001960863160633016
1783246393323808800,1.610808837890625,-0.025049101060628888,-0.007869564331322907,-0.0018627479648450388
1783246393333820700,1.620820556640625,-0.030585692399740218,-0.0021907149773091076,-0.011882903042354155
1783246393343831800,1.630831787109375,-0.039865561920404434,-0.0004855550272390246,-0.0010777693163254297
1783246393353843700,1.64084375,-0.021311083576083183,0.0037179610772058364,0.003104617235122714
1783246393363855600,1.650855712890625,-0.009494389054179191,-0.004843092649616301,0.0066822177102789275
1783246393373866800,1.66086669921875,-0.01637713430523872,0.008020517109334468,0.002225729208474513
1783246393383878700,1.670878662109375,-0.01757423513531685,-0.005004274560697376,0.0026791332484921437
1783246393393889800,1.680889892578125,-0.02131692879498005,-0.009586049393005669,0.012389754302660002
1783246393403901700,1.690901611328125,-0.0066524436265230176,-0.000623282997496426,0.0057948792324052185
1783246393413912800,1.700912841796875,-0.029545243436098097,0.0018783610925078391,-0.0029262010614504105
1783246393423924700,1.7109248046875,-0.018318916022777555,-0.010624123736470937,-0.003055229702021461
1783246393433936600,1.7209365234375,-0.016219313395023346,-0.0035532720347866416,0.0064496168140904045
1783246393443947800,1.73094775390625,-0.020409166300296783,-0.008197225383110344,0.0010584572610794565
1783246393453959700,1.740959716796875,-0.025647066953778264,-0.0024824279328808188,-0.009352758943650405
1783246393463970600,1.750970458984375,-0.006792728880047798,-0.004126688008569181,-0.0008457004263880663
1783246393473982700,1.760982666015625,-0.02280395248234272,-0.005036021405830979,-0.0068359971996163945
1783246393483994600,1.77099462890625,-0.0009568623334169388,0.0022917276663705706,0.0016977986275218426
1783246393494005800,1.781005859375,-0.011129881301522255,-0.004193506167083978,0.004704709375521633
1783246393504017700,1.791017578125,-0.011280687949061393,-0.006853738352283835,0.0063585957960807715
1783246393514028800,1.80102880859375,-0.013975333860516548,-0.0023345804274082184,-0.0048271370286587624
1783246393524040700,1.811040771484375,-0.027442718198895454,-0.011904080544412136,-0.0051916046931874005
1783246393534052600,1.821052490234375,-0.016818448331952094,0.003197261671349406,0.01076868330631405
1783246393544063700,1.831063720703125,-0.027293665117025374,-0.004115216766484082,0.004612311534467153
1783246393554075600,1.84107568359375,-0.028940263280272483,-0.006498568239063024,0.0016190069034229962
1783246393564086800,1.851086669921875,-0.012034721186757087,0.00032440964877605437,0.004336549633275717
1783246393574099000,1.861098876953125,-0.02190904946923256,-0.0050966655518859625,-0.010033697262383066
1783246393584110300,1.8711103515625,-0.019217910689115523,-0.0050496115397661925,0.009325934868806507
1783246393594122200,1.881122314453125,-0.026696868267655372,-0.011855967086367308,0.009041795581625774
1783246393604134100,1.891134033203125,-0.010386953979730605,0.014047303118184208,-0.004656335622572805
1783246393614145000,1.90114501953125,-0.006049217036366463,0.0013666121780872343,0.004290618999162689
1783246393624157200,1.9111572265625,-0.011885668104887007,-0.0004089095944538712,0.001736472970363684
1783246393634168000,1.92116796875,-0.005749941828846931,0.0012285919468849897,0.007341405421507079
1783246393644180000,1.931179931640625,-0.011285364124178885,-0.006732705788500606,-0.011665906140673905
1783246393654192000,1.941192138671875,-0.029093408015370366,0.001525309871137142,0.008994844317494425
1783246393664203300,1.951203369140625,-0.026100655940175056,0.002138254137709737,-0.002919570391264278
1783246393674215200,1.961215087890625,-0.019517185896635054,-0.008622538123093545,0.0005224689545459114
1783246393684226000,1.97122607421875,-0.022809213179349898,0.00004464285932481288,-0.009382462245458736
1783246393694238200,1.98123828125,-0.02729483416080475,0.0060910468840971585,0.004403655486158095
1783246393704250000,1.99125,-0.027743746972084045,-0.004079633996449411,0.005733342320495285
1783246393714261000,2.001260986328125,-0.010832359659671782,0.003053798080049455,-0.0021599819123279303
1783246393724273200,2.011273193359375,-0.016072598400712013,-0.00659939826503396,-0.009306232371204532
1783246393734284300,2.0212841796875,-0.021612112349271774,-0.0005438976183533668,-0.00001577980773290619
1783246393744296200,2.031296142578125,-0.018473229801654816,0.001632715768367052,0.004290180607745424
1783246393754307300,2.041307373046875,-0.02311316456198692,0.0048193099152296776,0.0037103577260626476
1783246393764319200,2.0513193359375,-0.03164367702007294,0.0008055076966062188,-0.004560960373142734
1783246393774331100,2.0613310546875,-0.019374562555551526,-0.0033626813661307093,0.005277403830096591
1783246393784342000,2.071342041015625,-0.008747370079159737,-0.00044734190870076413,0.0018310056862886994
1783246393794354200,2.081354248046875,-0.017424013009667394,0.0014371566636487841,0.0028817568482365457
1783246393804365000,2.091364990234375,-0.01308159989118576,0.006153992585092783,-0.009254305821144953
1783246393814377000,2.101376953125,-0.021611527827382085,-0.007748933626338839,-0.0071560549002606414
1783246393824389000,2.11138916015625,-0.009790157130360603,0.0033241759866476056,-0.0032168157551903274
1783246393834400300,2.121400146484375,-0.03552490236759186,-0.0028799393504858016,-0.009515351927105802
1783246393844412200,2.131412109375,-0.024450550645589826,0.0033797420987859367,0.0005082965820096433
1783246393854423000,2.141423095703125,-0.014125555986166,0.011603928554058075,0.00774676450213883
1783246393864435200,2.151435302734375,-0.027293665117025374,-0.0024650018740445374,-0.004134065314137843
1783246393874446000,2.161446044921875,-0.005441898792982101,0.0010166662292554975,0.004584293299668934
1783246393884458000,2.1714580078125,-0.01127425820827484,0.002274959194660187,0.01037085907816654
1783246393894470100,2.18147021484375,-0.002444470542669296,-0.02080664118528366,0.0007817340953741222
1783246393904481300,2.191481201171875,-0.026236265018582342,-0.009450440314598381,0.0037955906073912043
1783246393914493200,2.2014931640625,-0.007530980026721954,0.005046323604136705,-0.0038705304235685614
1783246393924504000,2.211504150390625,-0.02369008766710758,0.012026610945537686,0.0026595403487444853
1783246393934516200,2.22151611328125,-0.01007131215929985,0.0003080795684829354,0.004854438310826663
1783246393944528100,2.231528076171875,-0.02563420747220516,-0.005068864229507744,-0.0031633228691294786
1783246393954539000,2.2415390625,-0.0025888474494218825,-0.005096336758323014,-0.006151229805848561
1783246393964551200,2.25155126953125,-0.012615151423215865,-0.01092043980192393,-0.0014650333345518447
1783246393974562000,2.26156201171875,-0.009921090033650397,0.003736044723168015,-0.007390240398759487
1783246393984574000,2.271573974609375,-0.026829554736614226,-0.00406092929597944,-0.016009677815891337
1783246393994586000,2.281586181640625,-0.015605565410852432,-0.00797583771739155,-0.0016066611617919987
1783246394004597200,2.29159716796875,-0.0341635508865118,-0.011053674260154366,0.0012268315313500352
1783246394014609200,2.301609130859375,-0.028476152899861332,-0.0029941037820652126,-0.008817298076790757
1783246394024620000,2.3116201171875,-0.018000351592898367,-0.01230268794056028,-0.010447424595849589
1783246394034632200,2.321632080078125,-0.023536942932009697,-0.004971723997965455,-0.0009808619802235624
1783246394044643000,2.33164306640625,-0.025332009655237197,-0.006627564913593232,-0.0039680542476009575
1783246394054655000,2.341655029296875,-0.029071780705451963,0.00830514273699373,-0.014550476000504567
1783246394064667100,2.351667236328125,-0.009618307694792747,-0.008760412223823368,0.006291380345344077
1783246394074678300,2.36167822265625,-0.02143967839181423,0.0032059199018403886,-0.009143303744320291
1783246394084690200,2.371690185546875,-0.02622632814645767,0.0025643705952912567,-0.005498629382322542
1783246394094701000,2.381701171875,-0.019792495706677436,-0.004294226595200598,0.012304357024549972
1783246394104713200,2.391713134765625,-0.017246902877092362,-0.009281769216805695,0.013587686249800026
1783246394114725000,2.40172509765625,-0.020987842971086502,-0.0021071648797020316,0.005777279643632937
1783246394124736000,2.411736083984375,-0.0069219082176685326,-0.0006104235159233212,-0.0037690359606058336
1783246394134748200,2.421748046875,-0.008266893085837364,-0.0037912455091252922,-0.0010996637710137293
1783246394144759300,2.43175927734375,-0.015149638336896896,0.003089490447938442,-0.0011401921442244201
1783246394154771200,2.441771240234375,-0.009310849180817603,-0.011937471357360481,0.007873929979186504
1783246394164783400,2.451783447265625,-0.017386603608727454,-0.006658544573746621,0.0012629006418632342
1783246394174794200,2.461794189453125,-0.01574234353303909,0.0007010609414428472,-0.006145411986415274
1783246394184806100,2.47180615234375,-0.031901451173424716,-0.009061988986283541,-0.002588493539683986
1783246394194817000,2.481817138671875,-0.01948153006136417,-0.0053194779897108675,0.010132442645833361
1783246394204829200,2.4918291015625,-0.02142740343213081,-0.01549180283807218,-0.012640938885021023
1783246394214840000,2.501840087890625,-0.02202303123772144,-0.007332279116846621,0.009361357808636967
1783246394224852000,2.51185205078125,-0.023516484665870665,0.009357318671047688,-0.008094137184682767
1783246394234864000,2.521864013671875,-0.018579028263688086,-0.01636562653053552,0.009158106304518878
1783246394244875300,2.531875244140625,-0.021871640068292616,-0.0010794292671605945,0.0028766491315676827
1783246394254887200,2.54188720703125,-0.026658874344825743,-0.003810315535776317,-0.0024283117090235463
1783246394264898000,2.55189794921875,-0.013338789522647857,-0.007769355359859764,0.00024817977452185004
1783246394274910200,2.56191015625,-0.02336158636510372,-0.0027519290566444393,0.006082169457897544
1783246394284922000,2.571922119140625,-0.026802666729688642,0.008604235281422734,0.008012840692955069
1783246394294933000,2.58193310546875,-0.025308044257760048,-0.008721395387686789,-0.002835376406263094
1783246394304945200,2.591945068359375,-0.023213702327013013,0.003428074752539396,0.011562299635726957
1783246394314956300,2.601956298828125,-0.013636311164498328,-0.009606690322235226,0.004993586486612912
1783246394324968200,2.61196826171875,-0.02485562431514263,-0.009699008248187601,0.002273826683498919
1783246394334980400,2.62198046875,-0.03413023313879966,-0.01067545206490904,0.014377498620352707
1783246394344991200,2.6319912109375,-0.02859305727779865,-0.008448277534730732,-0.009881728420930448
1783246394355003100,2.642003173828125,-0.01961363200843334,-0.00038834173046052453,0.012867927457753102
1783246394365014000,2.652013916015625,-0.006893851166963577,-0.004744673776440322,0.008644001036230474
1783246394375026200,2.662026123046875,-0.015120412242412565,-0.008728044324181974,-0.002751988422148861
1783246394385037000,2.672037109375,-0.0019528876334428786,0.0017456015583127737,0.01032975531622069
1783246394395049200,2.68204931640625,-0.015719547179341316,-0.018148929750733078,0.007385459192364942
1783246394405061000,2.69206103515625,-0.023798808738589285,-0.013996595844253897,0.0016507103660725988
1783246394415072300,2.702072265625,-0.02439385202229023,-0.001060213110037148,-0.0074895474712131545
1783246394425084200,2.712084228515625,-0.016011808124184606,-0.007255524086207151,0.0006571989668300375
1783246394435095000,2.722094970703125,-0.026037527576088904,-0.002020217248611152,0.013854787637211848
1783246394445107200,2.732107177734375,-0.032171500286459924,0.0031950697142630814,-0.005309933843230828
1783246394455119000,2.742119140625,-0.010329086312651633,0.0009126943981274962,0.0021660440436447968
1783246394465130000,2.7521298828125,-0.015115151545405388,-0.002144391617551446,-0.012220567181636579
1783246394475142100,2.76214208984375,-0.01316869365274906,-0.003512392035126686,-0.0029000345737324094
1783246394485153300,2.7721533203125,-0.026785131072998045,-0.00980593922138214,0.006091626839409582
1783246394495165200,2.782165283203125,-0.015115736067295073,-0.004812112989462912,0.000574687765550334
1783246394505177300,2.79217724609375,-0.0320201091170311,0.008548048114776611,0.0014897202512365764
1783246394515188200,2.802188232421875,-0.02288929267823696,-0.006499189293570816,-0.008271468796255066
1783246394525200100,2.8122001953125,-0.016749474748969078,-0.0040610023612156505,0.003928156062052585
1783246394535211000,2.8222109375,-0.02572890001833439,-0.007029167984426021,-0.00074764459610451
1783246394545223200,2.83222314453125,-0.011961655950546263,0.004927665660530329,-0.0014585076956427656
1783246394555234300,2.842234375,-0.0125613754093647,-0.010753412671945989,-0.004250704830593895
1783246394565246200,2.85224609375,-0.01210953998863697,0.0029409853553399442,-0.001658827457157895
1783246394575257900,2.8622578125,-0.028419454276561736,-0.0024559417847543953,0.0022589784575277006
1783246394585268700,2.872268798828125,-0.018690087422728537,-0.0059698681898415085,0.00041865467033348975
1783246394595281000,2.882281005859375,-0.023926819032430647,0.003295351750962436,-0.004645218290225603
1783246394605291800,2.892291748046875,-0.028567922836542126,-0.00788476190045476,0.0062416845682775595
1783246394615303700,2.9023037109375,-0.01420095930993557,-0.006581460749544203,-0.0012323570898384786
1783246394625315600,2.912315673828125,-0.009561609071493149,-0.002543620068207383,-0.0005870814562425949
1783246394635327000,2.922326904296875,-0.02706803966760635,0.006694638800434768,-0.004698800224543083
1783246394645339000,2.9323388671875,-0.010308043524622917,-0.006787870041839778,0.011338902676012366
1783246394655349800,2.942349853515625,-0.018685411247611045,-0.011180807771161198,0.009003555063623934
1783246394665362000,2.95236181640625,-0.0219768540084362,0.001831928134895861,0.007957948150963056
1783246394675373800,2.962373779296875,-0.011055062499642372,0.006356931278668343,0.004013007634179666
1783246394685384700,2.972384765625,-0.02871171522140503,-0.003844181272760033,-0.0000612720504286699
1783246394695396600,2.982396728515625,-0.024819383957982062,-0.008520173727162182,-0.0033600373178953305
1783246394705407700,2.99240771484375,-0.014046061009168625,-0.00909622004944831,0.0028036797934793867
1783246394715419600,3.002419677734375,-0.0016238018095493317,-0.003926562326587737,0.013247725122154224
1783246394725430800,3.0124306640625,-0.021675240713357923,0.00101067487988621,0.002857512889546342
1783246394735443000,3.02244287109375,-0.029611294409632682,-0.009779526138491928,0.01005088357591303
1783246394745454800,3.032454833984375,-0.0068657941162586205,0.006514788721501827,0.0018356498953653497
1783246394755465700,3.0424658203125,-0.009109189128875731,-0.0035465135004371403,0.0016675176536897196
1783246394765478000,3.052477783203125,-0.019585574957728384,-0.006641556906327605,0.004912000017229002
1783246394775488800,3.06248876953125,-0.012104863813519478,0.0019092676874250172,-0.0020019052737858143
1783246394785500700,3.072500732421875,-0.01659282288253307,0.006071173139847815,-0.0017136035514296964
1783246394795512600,3.0825126953125,-0.02198036113977432,-0.0034997882818803188,0.007371323352446779
1783246394805524000,3.09252392578125,-0.01824117461144924,-0.00180964323785156,0.010794233306101523
1783246394815535900,3.102535888671875,-0.013451017725467682,-0.00559230358172208,0.01020532978553092
1783246394825546800,3.112546630859375,-0.013899930536746978,-0.01561352952159941,-0.0021684803126147015
1783246394835559000,3.122558837890625,-0.02317687744796276,-0.0017108590384945271,-0.006029178895335644
1783246394845569800,3.13256982421875,-0.005221534040570259,0.0014650675838813185,0.0030971691476064734
1783246394855581700,3.142581787109375,-0.015097031366825104,0.000848579653352499,0.0024614285273361017
1783246394865593600,3.152593505859375,-0.024375731843709943,-0.00197166539914906,-0.0018702919504838063
1783246394875605000,3.16260498046875,-0.016599252623319623,0.006522424038685858,0.0033383597756270317
1783246394885617000,3.172616943359375,-0.010162497574090957,0.011692483620345593,-0.006613326325686648
1783246394895627800,3.182627685546875,-0.018240590089559555,0.0010078984009101986,-0.002156600361864548
1783246394905640000,3.192639892578125,-0.014348843348026274,-0.007244673898629843,-0.006792594166018534
1783246394915651800,3.20265185546875,-0.02691606397628784,-0.002224909507855773,-0.00558833522608038
1783246394925662700,3.212662841796875,-0.018086276310682294,-0.007946611622907222,0.013767015738924965
1783246394935674600,3.222674560546875,-0.027210078486800193,-0.0188248562509194,-0.0003055999170290306
1783246394945685800,3.232685791015625,-0.023917466682195663,-0.007776698416098952,0.006937694875267334
1783246394955697700,3.24269775390625,-0.027954174852371214,0.001266001347824931,0.002643705742084421
1783246394965709600,3.25270947265625,-0.033790625920891756,-0.007254281977191567,0.007674877442861907
1783246394975721000,3.262720947265625,-0.01568622943162918,-0.004209069062396884,-0.02053794606240699
1783246394985732900,3.27273291015625,-0.019874913293123245,0.0020440365156158802,-0.013946920616785064
1783246394995743700,3.28274365234375,-0.02810205889046192,-0.004767762391082942,0.005005121660779695
1783246395005755600,3.292755615234375,-0.013438742765784262,-0.0008358297696337103,-0.004877239231101702
1783246395015766800,3.302766845703125,-0.020323241582512853,-0.0011145736457780003,-0.008195101924682967
1783246395025778700,3.31277880859375,-0.017181436425447463,-0.006039207099005579,0.007405278137687128
1783246395035790600,3.32279052734375,-0.018974749583005903,-0.007134601120278239,0.00009024241658626124
1783246395045802000,3.332802001953125,-0.026458383336663244,0.0015847119081765413,-0.00046329067979240785
1783246395055814000,3.34281396484375,-0.011792144602537155,-0.0023512758338823914,-0.009288139592087827
1783246395065824800,3.35282470703125,-0.01597907489836216,-0.003930982773378491,0.006048899659246672
1783246395075837000,3.3628369140625,-0.02166705740690231,0.0012017770051956176,0.011519083831796888
1783246395085848800,3.372848876953125,-0.029299159720540046,0.00601125964615494,-0.005238350461341906
1783246395095859700,3.382859619140625,-0.016878069564700126,-0.0031611674446612595,-0.007568190781550947
1783246395105871600,3.39287158203125,-0.010444821646809578,-0.0026796675380319356,-0.0017705944356741382
1783246395115882800,3.4028828125,-0.01179272912442684,0.0015299860462546348,0.012295171354385091
1783246395125895000,3.41289501953125,0.0009252981513738632,-0.0012769611332565545,-0.0062848364401259455
1783246395135905800,3.42290576171875,-0.027957681983709334,-0.0027062267513945698,0.0027120925198891198
1783246395145918000,3.43291796875,-0.021074352210760115,0.0025339023917913435,0.009312723760784137
1783246395155929900,3.442929931640625,-0.012248656198382377,-0.003237557149119675,0.004289073212759104
1783246395165940700,3.452940673828125,-0.017189035210013387,-0.00692249273955822,-0.011031747839425224
1783246395175952600,3.46295263671875,-0.017937807750701903,0.0008748100731521845,-0.015752492751006503
1783246395185963800,3.4729638671875,-0.01958674400150776,-0.006393171635828912,0.002434517687524203
1783246395195975700,3.4829755859375,0.0033037177205085754,-0.01257481941282749,-0.0004441293215961195
1783246395205987600,3.492987548828125,-0.016153262421488762,0.0017469532651826739,-0.0038351645659538917
1783246395215999000,3.5029990234375,-0.01106733745932579,0.0002934299886226654,-0.0027600849636364726
1783246395226011000,3.513010986328125,-0.019445289704203606,-0.008566350956447422,0.0023503922011819667
1783246395236021800,3.523021728515625,-0.008369768938422202,-0.009980492070689797,-0.0012808107578894123
1783246395246033700,3.53303369140625,-0.015255436798930168,-0.00035670448318123814,-0.00928809849289246
1783246395256045800,3.5430458984375,-0.02303483862876892,-0.004885689682327211,-0.00020755321990000082
1783246395266056700,3.553056640625,-0.008666706058382987,0.002523454063013196,0.005499042657564859
1783246395276068600,3.563068603515625,-0.011361936491727828,-0.0061075596274808045,0.005302814549277536
1783246395286080000,3.573080078125,-0.017052257087826726,0.0008813859444111585,-0.02252418797618011
1783246395296092000,3.583091796875,-0.009572130465507507,-0.004918751701712608,-0.00009937100453535094
1783246395306102800,3.593102783203125,-0.013010872742533684,-0.0031927681593224406,0.004048583554348443
1783246395316114700,3.60311474609375,-0.015555881050229071,0.0037160979136824607,-0.0024358191620442084
1783246395326126800,3.613126953125,-0.0326169059664011,-0.009389905766397715,0.0032770900084869935
1783246395336137700,3.6231376953125,-0.016608020451664925,-0.004853796706721186,-0.006332568588969297
1783246395346149600,3.633149658203125,-0.02199380514323711,-0.011158778602443634,-0.007365274920861702
1783246395356160800,3.643160888671875,-0.025886136406660078,-0.005286817829124629,0.003544113764085341
1783246395366172700,3.653172607421875,-0.013915128105878829,-0.0070776102360337965,-0.005537109645630698
1783246395376184600,3.6631845703125,-0.00793196204304695,-0.009099909843876958,0.005786405948293395
1783246395386196000,3.673196044921875,-0.018556231909990308,0.00047934448216110465,0.01671234390924219
1783246395396207900,3.683207763671875,-0.00045300446450710294,0.0014271832589060067,-0.028080732974642884
1783246395406218800,3.69321875,-0.031128713235259054,-0.009064107878133654,0.0018522927862009964
1783246395416230700,3.703230712890625,0.0014952069938182829,-0.023025632409006357,0.041883550679311154
1783246395426242800,3.713242919921875,-0.025438392639160156,0.018709595840796827,0.011973184274847153
1783246395436253700,3.723253662109375,-0.016014146211743355,0.0027377178682014345,-0.06335041390557307
1783246395446265600,3.733265625,-0.030229718568921086,-0.03345799643304199,-0.0041057730847038326
1783246395456277000,3.743277099609375,0.00433481433391571,0.0023777619820088145,0.06336940630041063
1783246395466289000,3.753288818359375,-0.016469488763809204,0.024484635578282177,-0.01630635692423675
1783246395476299800,3.7632998046875,-0.039512510699033734,-0.02254230587147176,-0.059062585085118184
1783246395486311700,3.773311767578125,-0.0031482348978519436,-0.015849091843143103,0.024424194644915406
1783246395496323800,3.78332373046875,-0.025143793606758117,0.023036007672548292,0.04601103327232413
1783246395506334700,3.793334716796875,-0.006738368344306946,-0.005696275412850081,-0.009054451850510667
1783246395516346600,3.8033466796875,-0.03667056527137756,-0.03372453841473907,-0.05131802623979747
1783246395526358000,3.81335791015625,-0.012882277926802634,0.015167868113331496,0.01353375268903328
1783246395536370000,3.823369873046875,-0.01527531054317951,0.00603657675050199,0.038015926882170606
1783246395546381800,3.8333818359375,-0.0013648586124181746,-0.020171083228103816,-0.013268441399908624
1783246395556392700,3.843392822265625,-0.039675007784366605,0.01354457776043564,-0.03974199033966288
1783246395566404900,3.85340478515625,-0.016330372554063798,0.008438267597369849,0.017975404381309634
1783246395576420400,3.86342041015625,-0.005107552272081375,-0.016985110135748983,0.032381861951376774
1783246395586432300,3.873432373046875,-0.016482932767271995,-0.025161365796066818,-0.030088239155441985
1783246395596444200,3.883444091796875,-0.029653379985690113,0.0057073813287541264,-0.03789391250427579
1783246395606455000,3.893455078125,-0.0015209259569644927,-0.012097082365863024,0.03393500282764435
1783246395616467200,3.90346728515625,-0.000023380875587463377,-0.013168109130859374,0.022307522151351438
1783246395626478000,3.91347802734375,-0.0194803610175848,0.014610416893661021,-0.030807988814334383
1783246395636490000,3.923489990234375,-0.026516251003742216,-0.0025361308814957737,-0.018116730814450418
1783246395646501400,3.93350146484375,-0.013348141872882842,-0.02391341156158596,0.029377608951344152
1783246395656513300,3.94351318359375,-0.017389526218175886,0.01397683169785887,0.014466640491818542
1783246395666525200,3.953525146484375,-0.029060090267658233,0.006902509397454559,-0.040894475709879766
1783246395676536000,3.9635361328125,-0.025020459488034247,-0.021052542237751184,-0.018729001510876697
1783246395686548200,3.97354833984375,-0.01514730024933815,0.01194178220629692,0.011595491802564356
1783246395696559000,3.98355908203125,-0.008567337337136268,0.006215330850891768,0.007546134213369805
1783246395706571000,3.993571044921875,-0.012461422166228293,-0.011083484876528382,-0.040864802090823646
1783246395716583200,4.003583251953125,-0.007077975562214851,-0.0050076355615630746,-0.01035933075386565
1783246395726594300,4.01359423828125,-0.029824060377478596,0.013731259438954292,0.03740277483633254
1783246395736606200,4.023606201171875,-0.01036883380115032,-0.015511165125668048,0.005697008348500821
1783246395746617000,4.0336171875,-0.03880056303739547,-0.015650354400649664,-0.02019681360769318
1783246395756629200,4.043629150390625,-0.02458382163643837,0.010362440592981874,-0.010866926366265397
1783246395766640000,4.05364013671875,-0.005581599524617195,0.016847418698109684,0.018147230983991174
1783246395776652000,4.063652099609375,-0.025184125617146492,-0.01667144107669592,-0.00019947037814417853
1783246395786664200,4.073664306640625,-0.020844635108113286,0.002172448668256402,-0.033236005979124454
1783246395796675300,4.08367529296875,-0.029074703314900398,0.009355528572760521,0.0056984011545660905
1783246395806687200,4.093687255859375,-0.006478840625286102,-0.008467018767818808,0.02312559478529729
1783246395816698400,4.103698486328125,-0.01680558885037899,0.01432253986299038,-0.018430705834180116
1783246395826710300,4.113710205078125,-0.017706337082386017,0.00360686538554728,-0.012993677295849193
1783246395836722200,4.12372216796875,-0.01231821430325508,-0.0079464654924348,0.015020223820547107
1783246395846733000,4.133733154296875,-0.01530979733467102,-0.00782711342908442,0.007807965770619921
1783246395856745200,4.1437451171875,-0.02069850463569164,-0.00044989919196814296,-0.0012616904988884926
1783246395866756000,4.153756103515625,-0.014860300001502036,0.0035118075132369994,-0.013772753643256145
1783246395876768000,4.16376806640625,-0.01935001263618469,-0.007837086833827197,0.016142359718272926
1783246395886780200,4.1737802734375,-0.010824176353216171,0.01050411408599466,0.0065790518800378775
1783246395896791300,4.183791259765625,-0.025793197426199913,0.004045877857320011,-0.01775263532596873
1783246395906803200,4.19380322265625,-0.018310148194432257,-0.023669848596677184,-0.008176630119653418
1783246395916814000,4.20381396484375,-0.028636896419525146,-0.00014108897112309932,0.01602227471927181
1783246395926826200,4.213826171875,-0.02100479410588741,0.003735387136042118,0.002224160589184612
1783246395936837000,4.223837158203125,-0.027591771280765533,-0.010254084847681224,-0.023878641642304136
1783246395946849000,4.23384912109375,-0.022354455149173735,0.003803776197135448,-0.0093334012226318
1783246395956861200,4.243861083984375,-0.004993570503592491,-0.0013439984874799847,0.011560281208576634
1783246395966872300,4.253872314453125,0.00039572131931781766,-0.013821458473056554,0.009421864957374054
1783246395976884200,4.26388427734375,-0.01905950525701046,-0.013327281747944652,-0.00979952546361601
1783246395986895000,4.27389501953125,-0.008587795603275298,-0.005171703549474478,-0.005235162990412209
1783246395996907300,4.2839072265625,-0.012778817552328108,-0.0005000219440087675,0.011578282656148076
1783246396006919200,4.293919189453125,-0.011433248162269592,-0.008409881753101945,0.008689593743626028
1783246396016930000,4.303929931640625,-0.018919220003485678,-0.010554382968507706,-0.018429938649199902
1783246396026942200,4.313942138671875,-0.020564064601063727,-0.0025055165475234386,-0.0025151040764874776
1783246396036953000,4.323953125,-0.018765490746498106,-0.006902071006037295,0.013697638013854157
1783246396046965200,4.33396533203125,-0.02430091304183006,-0.0015539514437317846,0.0025512576686800457
1783246396056977200,4.34397705078125,-0.011134557476639747,-0.0030175211902707813,-0.0030546588798635635
1783246396066988300,4.35398828125,-0.01218494331240654,-0.0050366424603387715,-0.001359522566886153
1783246396077000200,4.364000244140625,-0.024604864424467087,-0.002786123587191105,0.0035902795769274234
1783246396087011000,4.374010986328125,-0.02235737775862217,0.0032787294097244737,-0.00031462347370106724
1783246396097023200,4.384023193359375,-0.02489829441308975,0.005459434449672698,-0.010377133555326145
1783246396107034000,4.3940341796875,-0.018313655325770378,-0.006379910295456648,0.00455990549379494
1783246396117046000,4.4040458984375,-0.022953005564212797,-0.0026338556349277493,0.011402104105334728
1783246396127058200,4.41405810546875,-0.0247480722874403,0.003043495881743729,-0.01555859588041203
1783246396137069300,4.4240693359375,-0.030734745481610298,-0.008463438571244477,0.0032467747853253967
1783246396147081200,4.434081298828125,-0.033276831179857254,0.00017290888149291275,0.009077510782401077
1783246396157092000,4.444092041015625,-0.01307633919417858,-0.017767383087240157,0.013769328710308764
1783246396167104300,4.454104248046875,-0.024003975921869276,0.0020875833963975307,-0.009917423072108068
1783246396177116200,4.4641162109375,-0.029841596034169197,0.004975596455484628,-0.009219761947437654
1783246396187127000,4.474126953125,-0.02086100172102451,-0.003912314605526626,0.0033991614685975943
1783246396197139200,4.48413916015625,-0.026693945658206937,-0.006828384715318679,0.010727269017114304
1783246396207150300,4.494150390625,-0.02280336796045303,0.0034936508020386096,-0.0012365263748797587
1783246396217162200,4.504162353515625,-0.013078092759847641,0.0006700812812894582,0.00019727385448059065
1783246396227174400,4.51417431640625,-0.01173310789167881,-0.0036087650816887615,0.0059282529712421815
1783246396237185300,4.524185302734375,-0.02131166809797287,0.003915821736864745,0.001254119113786146
1783246396247197200,4.534197265625,-0.024601941815018652,0.0032688290702179074,-0.010892629346391186
1783246396257208000,4.5442080078125,-0.010240238985419273,-0.004877433310635388,-0.00885659347414039
1783246396267220200,4.55422021484375,-0.019669746109843254,-0.006174560449086129,-0.006319124585506506
1783246396277231000,4.564231201171875,-0.024305004695057867,0.0021217413943260908,-0.00004842398529872298
1783246396287243000,4.574242919921875,-0.015177695387601851,-0.013881152771040796,-0.015776866857148707
1783246396297255200,4.584255126953125,-0.0069493807464838025,-0.0017230244003236294,0.0018205870402627623
1783246396307266300,4.594266357421875,-0.01952010850608349,0.0005481354020535946,-0.0012541602129815146
1783246396317278200,4.6042783203125,-0.010391630154848099,-0.0006596329525113106,0.009516954795725178
1783246396327289000,4.6142890625,-0.011439093381166457,-0.003958309171721339,-0.009214645097614266
1783246396337301200,4.62430126953125,0.002477203768491745,0.003076594433747232,0.0034994069726788438
1783246396347313200,4.634313232421875,-0.01278524729311466,0.010233772712014614,-0.009509600323042832
1783246396357324000,4.644323974609375,-0.028647417813539505,-0.00636197277996689,0.0021025572032434864
1783246396367336200,4.654336181640625,-0.017125906845927238,-0.01008819022886455,-0.0012053754680790005
1783246396377347300,4.664347412109375,-0.01203764379620552,0.002324972348846495,0.0019447773922234772
1783246396387359200,4.674359130859375,-0.01308686058819294,-0.0025731384236365555,-0.0008290347026661038
1783246396397370000,4.6843701171875,-0.016528525474667547,-0.00990052216965705,0.0024696871823165563
1783246396407382300,4.69438232421875,-0.023264555731415747,0.00032879356294870373,-0.013888838320574722
1783246396417394200,4.704394287109375,-0.010696750581264495,-0.004432648685202002,0.009186830075504257
1783246396427405000,4.714405029296875,-0.009351765713095664,-0.008710691330581903,0.004612658594339155
1783246396437417200,4.724417236328125,-0.02312251691222191,-0.0003942600145936012,-0.012682476471806876
1783246396447428400,4.734428466796875,-0.00831014770567417,-0.0016950769474729894,0.000023798717407044024
1783246396457440300,4.744440185546875,-0.005315057542920112,-0.004441489578783511,-0.006379962811095174
1783246396467452200,4.7544521484375,-0.011153262177109718,-0.006926255599223077,0.0036068448359495957
1783246396477463300,4.76446337890625,-0.021328034710884094,-0.009796769534237682,-0.0027395764651475473
1783246396487475200,4.77447509765625,-0.016245032358169556,-0.011324636688642203,-0.00021655166039709
1783246396497486000,4.784486083984375,-0.033304888230562206,-0.006350866864062846,0.008346198549878317
1783246396507498200,4.794498291015625,-0.036298809349536894,0.0019003902612254023,0.0005561223456868902
1783246396517509000,4.804509033203125,-0.01654547660946846,-0.008293415766581892,-0.004956709091924131
1783246396527521000,4.81452099609375,-0.027171500042080878,-0.0006147708974778652,-0.003579858647612855
1783246396537533200,4.824533203125,-0.016247954967617988,-0.0027156156342476607,0.007039063757355324
1783246396547544300,4.83454443359375,-0.012359130835533142,-0.0014677344650030136,0.004670656408870127
1783246396557556200,4.84455615234375,-0.012512275570631027,-0.004239281537570059,-0.0008109168073744512
1783246396567567000,4.854567138671875,-0.032117724272608755,-0.010597235729545355,-0.01082937996800756
1783246396577575200,4.8645751953125,-0.026883915272355077,-0.00047558162249624724,0.007588420718826819
1783246396587587300,4.87458740234375,-0.015213351222872732,-0.007486154504306614,0.0017382219694554804
1783246396597598200,4.88459814453125,-0.02164484557509422,-0.0024703356362879274,0.0005425253618857823
1783246396607610000,4.894610107421875,-0.027782909938693045,-0.004326009972952306,-0.004929081299481913
1783246396617621200,4.904621337890625,-0.0241904384046793,-0.0007673676433041692,-0.0022685545700485816
1783246396627633400,4.91463330078125,-0.022094927430152893,0.006841646055690944,0.0003430755333392881
1783246396637645300,4.924645263671875,-0.019852116939425467,-0.010788045593909919,0.0083341405026149
1783246396647656200,4.93465625,0.00020049100816249847,0.011179492596909403,0.007506827399577014
1783246396657668400,4.94466845703125,-0.009677928927540779,0.005847374321334063,0.005501709538686554
1783246396667679200,4.95467919921875,-0.014167641562223434,-0.0050645168479532,-0.00846743889292702
1783246396677691100,4.964691162109375,-0.019407295781373977,0.001437521989829838,0.009803137626231181
1783246396687702300,4.974702392578125,-0.01626782871186733,0.004345701054111123,0.0018583823169814422
1783246396697714400,4.98471435546875,-0.01596738446056843,-0.0012170476395636795,0.0009636779499822295
1783246396707726300,4.994726318359375,-0.013720482316613197,0.005749686100520193,-0.003600300930731464
1783246396717737200,5.0047373046875,-0.017907997134327888,-0.0019311872582882643,0.0036101350548677145
1783246396727749400,5.014749267578125,-0.021346154889464376,0.008002104669809341,0.00945600240570493
1783246396737760300,5.02476025390625,-0.016254969230294226,-0.009141557028517126,0.01422762812115252
1783246396747772200,5.034772216796875,-0.032414076870679855,-0.014590652747265993,-0.010255477653746493
1783246396757784300,5.044784423828125,-0.02358604277074337,0.0008287424417212605,-0.005845846801239531
1783246396767795200,5.054795166015625,-0.030915947267413136,0.0006227350082248449,0.00008979260872583836
1783246396777807400,5.064807373046875,-0.032710429468750954,0.0019345847917720674,0.0012700952843413688
1783246396787818200,5.074818359375,-0.013257540979981422,-0.015864691271074115,0.0073008108329260715
1783246396797830400,5.084830322265625,-0.02552840901017189,-0.002539711078070104,0.0021731176718254573
1783246396807842300,5.09484228515625,-0.014604863935708999,-0.0032956074792891738,0.005761997592821717
1783246396817853200,5.104853271484375,-0.00876899738907814,0.0010510434228926896,0.011616434125893284
1783246396827865300,5.114865234375,-0.01580079572200775,0.0007295563835650682,-0.012279877887130714
1783246396837876200,5.124876220703125,-0.01984159554541111,0.0008851853366941213,-0.003924863559845834
1783246396847888100,5.13488818359375,-0.01849485711157322,-0.003597513035312295,0.00007297162137692794
1783246396857899300,5.144899169921875,-0.016696867778897284,-0.004857596099004149,0.0004962842005188576
1783246396867911400,5.154911376953125,-0.009663315880298614,0.004549370400048792,-0.0010026034545735456
1783246396877923300,5.16492333984375,-0.030908933004736898,-0.0013440715527161956,-0.0075938709287904195
1783246396887934200,5.174934326171875,-0.020884382596611975,-0.007311017133109271,-0.0037648324262350794
1783246396897946400,5.1849462890625,-0.00218026664853096,0.007210917759500443,-0.00017553466341923923
1783246396907957200,5.194957275390625,-0.009960837522149085,-0.0011919131983071565,-0.007826334827661048
1783246396917969200,5.20496923828125,-0.01953998225033283,-0.0018809183757752179,-0.004241576242644805
1783246396927980300,5.214980224609375,-0.015351298388838768,-0.004692322534695268,-0.0006134648563805967
1783246396937992400,5.224992431640625,-0.004730535653233528,-0.003541508531756699,-0.007892993155971634
1783246396948004400,5.23500439453125,-0.025828268739581106,0.0021114391960203645,-0.005638489944161847
1783246396958015200,5.24501513671875,-0.033759061738848684,-0.0031328181330114602,-0.0021753735609934665
1783246396968027400,5.25502734375,-0.01999240219295025,0.0018149404674768447,0.007018358896044082
1783246396978038300,5.265038330078125,-0.03181201932430267,-0.00555847437735647,-0.005298154357180465
1783246396988050200,5.27505029296875,-0.015800211200118063,-0.007377287302352487,0.0006375626845983788
1783246396998062300,5.285062255859375,-0.02103928089737892,0.0038852804681286214,-0.009108134249527939
1783246397008073200,5.2950732421875,-0.022987492355704305,-0.001724595302902162,-0.006445173534413333
1783246397018085000,5.305085205078125,-0.019396189865469933,0.004560220587626099,-0.010419232831115368
1783246397028096300,5.31509619140625,-0.014004559955000877,-0.0006363616747781634,-0.002901911436987575
1783246397038108400,5.3251083984375,-0.014005144476890562,-0.008713650472648441,0.002596539848821703
1783246397048120300,5.335120361328125,-0.013555062621831893,0.010562968133762477,-0.007562873002327978
1783246397058131200,5.345131103515625,-0.02297697096168995,-0.0019904066322371365,-0.011317480862070805
1783246397068143400,5.355143310546875,-0.014295651856064795,0.0009323489466682076,-0.007344668240961618
1783246397078154200,5.365154296875,-0.011001871007680892,-0.001346336575038731,0.004317698802333325
1783246397088166100,5.375166259765625,-0.02252279745340347,-0.014991890491917728,-0.00931051353738876
1783246397098177300,5.38517724609375,-0.014591419932246207,0.0069764514164999125,-0.00514364421548089
1783246397108189400,5.395189453125,-0.02072773073017597,-0.0127416273470968,0.0018916110164369456
1783246397118201300,5.405201416015625,-0.026415128716826438,-0.0007475304316729306,-0.0033823975634644735
1783246397128212200,5.415212158203125,-0.006061491996049881,0.0017275179123505948,-0.014707721521984785
1783246397138224400,5.425224365234375,-0.021471242573857307,0.000757321173325181,0.0008526918561779893
1783246397148235300,5.4352353515625,-0.01339139649271965,-0.0052217897688969965,0.005309353887918405
1783246397158247200,5.4452470703125,-0.03568681493103504,-0.018255385799892245,0.003967766553233378
1783246397168259300,5.45525927734375,-0.0018681319594383238,-0.0010477554872632027,-0.011142101462278514
1783246397178270500,5.4652705078125,-0.03598667466044426,-0.005667670372873544,0.011171679183212109
1783246397188282400,5.475282470703125,0.00022737901508808136,0.02137114320024848,-0.011307973248208873
1783246397198293200,5.485293212890625,-0.0780342567950487,-0.0174922194076702,0.0029980698544182813
1783246397208305400,5.495305419921875,-0.01159457620382309,0.019006971352174877,0.011708069348544813
1783246397218317300,5.5053173828125,0.00232055190205574,0.004661854331195354,-0.0054383185964077705
1783246397228328200,5.515328125,-0.060825932362675666,-0.012567074497789144,-0.023366552517877424
1783246397238340400,5.52534033203125,0.022972294786572454,-0.028883308928646146,0.009953652012825477
1783246397248351200,5.535351318359375,-0.06666121438741683,0.037992899916321037,-0.0015239467478240839
1783246397258363100,5.545363037109375,0.03913023338317871,-0.035103973541781304,-0.016054359491122886
1783246397268374300,5.555374267578125,-0.06771218474507332,0.0072490578128024934,-0.007501868096669204
1783246397278386400,5.565386474609375,0.025510873353481293,0.01805979016255587,-0.008221583506232127
1783246397288398300,5.5753984375,-0.05469605130553245,0.00835004132464528,-0.005311523012118413
1783246397298409200,5.5854091796875,0.03134673990011215,-0.041357042587175964,-0.005285278892586938
1783246397308421400,5.59542138671875,-0.0520054970473051,0.01918974404055625,0.00205359664511634
1783246397318432300,5.605432373046875,-0.00023088614642620086,0.008128580593690276,0.012746796712558716
1783246397328444200,5.615444091796875,-0.02597147660255432,-0.020382460956461727,0.007394386850914452
1783246397338456300,5.625456298828125,-0.015046762484312057,0.004732435349375009,-0.018691993968735915
1783246397348467500,5.635467529296875,-0.03300502850115299,0.026910291822627184,-0.025998165963368954
1783246397358479400,5.645479248046875,-0.010258359163999557,-0.02130567674860358,0.005230463982408401
1783246397368490200,5.655490234375,-0.011311667609214782,-0.0060471712097525596,0.0002983938581077382
1783246397378502400,5.66550244140625,-0.045132688668370245,0.01780318505298346,-0.02210314498593798
1783246397388513300,5.67551318359375,-0.0105658176779747,-0.017063289938494562,0.004615978496009483
1783246397398525200,5.685525146484375,-0.03091360917985439,0.006646708005480468,0.0074381711937137876
1783246397408537300,5.695537353515625,0.00918809958398342,-0.00036244010422378776,-0.009507335300720296
1783246397418548200,5.70554833984375,-0.04168751665055752,-0.009972491427324712,-0.03070042080361163
1783246397428560400,5.715560302734375,-0.004427168792486191,-0.01970123722665012,-0.0014252949792076832
1783246397438571300,5.7255712890625,-0.026276597028970717,0.019245127489604056,-0.0021389482574537396
1783246397448583400,5.73558349609375,-0.012213584885001181,-0.01179656504932791,-0.025327833520330023
1783246397458595300,5.74559521484375,-0.0379541753411293,-0.012616831923648715,-0.01484269356286386
1783246397468606200,5.755606201171875,-0.019997662889957427,0.012377360611967743,-0.002662857967126183
1783246397478618400,5.765618408203125,-0.03495966970026493,0.007530468570068478,-0.011676918441744054
1783246397488629200,5.775629150390625,-0.03450900332331657,-0.029314613017998634,-0.02261743291731691
1783246397498641200,5.78564111328125,-0.022390695506334303,-0.0009815949158743023,-0.01545054152921075
1783246397508653000,5.795653076171875,-0.013710545444488525,0.0012380173623561857,0.003654035845387261
1783246397518664400,5.80566455078125,-0.017896306696534157,-0.00394555928800255,0.01399855718918843
1783246397528676400,5.81567626953125,-0.014753332495689392,-0.016840477500669658,-0.01258620388994459
1783246397538687200,5.825687255859375,-0.02537584879696369,0.006019844811409712,-0.008203298930870368
1783246397548699400,5.835699462890625,-0.028365093740820885,-0.002145889454893768,0.011330061782430857
1783246397558710300,5.845710205078125,-0.0057721536606550215,-0.025270306063257156,0.0122619289551978
1783246397568721400,5.855721435546875,-0.016097732841968537,0.003003784925863147,-0.01245299226460047
1783246397578733600,5.865733642578125,-0.0011345569878816605,0.0007776698416098952,-0.016345380610239227
1783246397588744700,5.87574462890625,-0.01296001933813095,-0.016332783706858752,-0.003450971570936963
1783246397598756600,5.885756591796875,-0.012064531803131103,0.003775426885485649,0.005228317691094707
1783246397608767500,5.895767578125,-0.03226619283258915,0.0018418284744024275,-0.007857392119627911
1783246397618779600,5.905779541015625,-0.012815642431378364,-0.020077559725753962,0.0008132480450673028
1783246397628791600,5.91579150390625,-0.014309680381417274,-0.008023731979727744,0.0008206367670791224
1783246397638802400,5.925802490234375,-0.024337737920880315,0.0105928152827546,-0.008150703377241733
1783246397648814600,5.935814697265625,-0.032119477838277816,-0.0036108839735388754,-0.015043773659493307
1783246397658825700,5.94582568359375,-0.010119827476143836,-0.0035145109269767998,-0.0031457392633776177
1783246397668837600,5.955837646484375,-0.019095745614171027,0.005862316162139177,0.001915756793715991
1783246397678848500,5.9658486328125,-0.02178746891617775,-0.010186864830367267,0.0028843826301628724
1783246397688860700,5.975860595703125,-0.03645136956274509,-0.003629150282591581,-0.012848103945853654
1783246397698872600,5.98587255859375,-0.023432313513755798,-0.003047404871881008,0.0023521503334282897
1783246397708883500,5.995883544921875,-0.017148118677735327,0.0046016120439395305,0.008217626567033585
1783246397718895600,6.0058955078125,-0.029565701702237126,-0.0014432941434904933,0.004501435038517229
1783246397728906800,6.01590673828125,-0.015499182426929473,-0.002805412809550762,-0.010327784838131628
1783246397738918700,6.025918701171875,-0.02208323699235916,-0.0014527926241979002,-0.015274554774642455
1783246397748930600,6.0359306640625,-0.0246259072124958,-0.007469239902123809,0.016157296992500778
1783246397758941700,6.045941650390625,-0.024327801048755645,0.004230075317807495,-0.007029307265032548
1783246397768953600,6.05595361328125,-0.014900047490000724,0.0010738397765904665,-0.013164748129993676
1783246397778964500,6.065964599609375,-0.026565935364365575,-0.004768602641299366,-0.008135078833135776
1783246397788976600,6.0759765625,-0.00995499230325222,-0.017351641893200577,-0.0011051459470181725
1783246397798988500,6.085988525390625,-0.011151508611440658,0.0019443755334243177,-0.0054394944900530385
1783246397808999400,6.09599951171875,-0.03524491638243198,0.000033756139129400255,-0.023426591592445038
1783246397819011600,6.106011474609375,-0.025217443364858625,-0.002701294847950339,0.0042348268414498305
1783246397829022700,6.116022705078125,-0.009057751202583312,-0.011360657850094139,-0.002694675594207365
1783246397839034600,6.12603466796875,-0.024019758012890816,0.00864040257334709,0.014318256413517519
1783246397849045500,6.13604541015625,-0.021176643541455268,-0.001690254641883075,-0.010896540619817097
1783246397859057700,6.1460576171875,-0.010400982505083084,-0.0032372648881748315,0.00970038507123245
1783246397869069600,6.156069580078125,-0.010100538253784179,-0.0007194003157317638,-0.004953279592399485
1783246397879080400,6.16608056640625,-0.020277064353227615,0.001410341721959412,-0.018843152242724318
1783246397889092600,6.176092529296875,-0.01608662692606449,0.0096247374355793,-0.0025485359886311923
1783246397899103700,6.186103759765625,-0.028203765699267386,-0.0025840616764500734,0.0007937099442468025
1783246397909115600,6.19611572265625,-0.01099544126689434,-0.007363916364125907,0.00563714280386921
1783246397919126500,6.20612646484375,-0.010844634619355201,0.008160510101914405,0.001160481447004713
1783246397929138700,6.216138671875,-0.030746435919404028,-0.004094904630817473,-0.01361686211193446
1783246397939150600,6.226150634765625,-0.020270050090551377,0.008588453190401196,-0.001643771451921202
1783246397949161500,6.236161376953125,-0.007548515683412552,0.005999532675743103,0.005949647385720163
1783246397959173600,6.246173583984375,-0.02012041248679161,0.0038096579486504197,-0.007201761772087775
1783246397969184500,6.2561845703125,-0.01637947239279747,-0.010698796407878398,-0.017655570442951282
1783246397979196700,6.26619677734375,-0.019821721801161766,-0.01037584806382656,0.0061808874418842604
1783246397989208600,6.27620849609375,-0.010094108512997626,-0.007863792177662253,-0.0044376216878416015
1783246397999219700,6.2862197265625,-0.01981938371360302,-0.003856858091242611,0.0003390980445430614
1783246398009231600,6.296231689453125,-0.02490881580710411,0.0011200900711119174,0.0025929231196292674
1783246398019242500,6.306242431640625,-0.018324761241674422,0.0038355961075052618,-0.002264876192063093
1783246398029254700,6.316254638671875,-0.02281272031068802,0.004093699054419994,0.0018960474462481215
1783246398039266600,6.3262666015625,-0.009645780223608017,0.00577511280272156,-0.01858432092673611
1783246398049277400,6.33627734375,-0.015482231292128562,-0.009172244427725672,-0.0017780722059425897
1783246398059289300,6.346289306640625,-0.014735796838998793,-0.0035942981649190187,-0.00999271679802332
1783246398069300700,6.35630078125,-0.02491173841655254,-0.0029734993854537606,-0.004546224028314463
1783246398079312600,6.366312744140625,-0.009948562562465667,-0.0008633753636851907,-0.003032782691484317
1783246398089323500,6.376323486328125,-0.01249298634827137,-0.003225026461109519,0.0034775330675882285
1783246398099335700,6.386335693359375,-0.006957564052939414,-0.013980375361815095,-0.0025202757252380252
1783246398109347600,6.39634765625,-0.0193757315993309,-0.007883410193584859,-0.0015317053625942207
1783246398119358500,6.4063583984375,-0.010548282021284102,-0.002313793367706239,-0.008678161317447666
1783246398129370600,6.41637060546875,-0.020576339560747146,-0.005999350012652576,0.0007694157532067038
1783246398139381800,6.4263818359375,-0.009805354699492454,-0.01116590246297419,-0.0008538586166687309
1783246398149393700,6.4363935546875,-0.03434592171609401,0.0017086305487900972,-0.019991251415479926
1783246398159405600,6.446405517578125,-0.020429624566435812,-0.008162373265437782,-0.005577740766829811
1783246398169416700,6.456416748046875,-0.007857727763056755,0.00016786738019436596,-0.00762614521359792
1783246398179428600,6.4664287109375,-0.00935585736632347,0.00469882534071803,-0.0013070114949368871
1783246398189439500,6.476439453125,-0.0306038125783205,-0.0034003464953973887,-0.0003872274856083095
1783246398199451600,6.48645166015625,-0.02013034935891628,0.003355447907745838,0.0047683080970658915
1783246398209462500,6.496462646484375,-0.024173487269878387,-0.004645305055193603,0.010406188403163104
1783246398219474400,6.506474365234375,-0.018036591950058935,-0.009482954344712198,-0.0032434936995618044
1783246398229486600,6.516486572265625,-0.005316226586699485,-0.012206387959234415,-0.011317999168590177
1783246398239497700,6.526497802734375,-0.02746025385558605,0.0044940965488553045,0.003265897327614948
1783246398249509600,6.536509521484375,-0.024018004447221755,-0.004348769794031977,0.005915998561156447
1783246398259520500,6.5465205078125,-0.013841478347778319,0.0056501347161829465,-0.004386471455916762
1783246398269532700,6.55653271484375,-0.023270400950312613,-0.005677862973324954,-0.0038904110176838
1783246398279544600,6.566544677734375,-0.016840075641870497,-0.00003083352968096733,0.018012254376534836
1783246398289555500,6.576555419921875,-0.023874212062358856,-0.012427410298772156,0.005563251017173752
1783246398299567400,6.5865673828125,-0.021627309918403625,-0.00035955402739346027,-0.010012298281327821
1783246398309578800,6.596578857421875,-0.014894202271103859,-0.011872552894987166,-0.007671114583197049
1783246398319590700,6.606590576171875,-0.027315876948833463,-0.00809120772536844,0.007592137912719044
1783246398329601500,6.6166015625,-0.020581600257754323,-0.0070446578145027154,0.00853378669398371
1783246398339613700,6.62661376953125,-0.0199812962770462,-0.0023063041809946298,-0.0018210094486596062
1783246398349625600,6.63662548828125,-0.027317630514502523,-0.003263093449175358,-0.009244544762244913
1783246398359636500,6.646636474609375,-0.013248188629746437,-0.0069446680387482045,0.0050809953420073726
1783246398369648400,6.6566484375,-0.014893033227324486,0.003347118470817804,-0.009301866723340935
1783246398379659800,6.66665966796875,-0.0062122986435890195,-0.013599815079011023,-0.0067371262352913614
1783246398389671700,6.676671630859375,-0.02656184371113777,0.0020883505813777447,0.0012541328135179356
1783246398399683600,6.68668359375,-0.02551438048481941,0.007777246405370533,-0.0014157188666868022
1783246398409694700,6.69669482421875,-0.014441197806596756,0.0056882017042487855,-0.009871227576513774
1783246398419706600,6.70670654296875,-0.026859365352988242,-0.008277085686288774,0.0016016356435138732
1783246398429717500,6.716717529296875,-0.00620703794658184,-0.006686236298270523,-0.0007743613563827239
1783246398439729400,6.7267294921875,-0.0026157354563474656,-0.014025018221139907,0.0038794900481589137
1783246398449741600,6.736741455078125,-0.012041735449433325,-0.002238974565826356,-0.0001634971657535061
1783246398459752400,6.74675244140625,-0.009203881675004959,-0.002411371990665793,0.0011842938641435465
1783246398469764400,6.756764404296875,-0.02252104388773441,0.0013050181839615105,-0.010529744000884238
1783246398479775700,6.766775634765625,-0.016836568510532376,-0.003887472425214946,0.001401658375293482
1783246398489787600,6.77678759765625,-0.03150280724465847,-0.0071258698245510455,0.0020501374628394842
1783246398499798500,6.786798583984375,-0.015942250019311904,0.003682159111462533,-0.006181401181826368
1783246398509810700,6.796810791015625,-0.02656359727680683,-0.0044654549762606615,-0.00805249228333123
1783246398519822600,6.806822509765625,-0.016089549535512924,-0.004738792024925351,-0.005651077714387793
1783246398529833500,6.81683349609375,-0.019980711755156515,0.0054485111968591805,-0.005026162165519781
1783246398539845400,6.826845458984375,-0.003969488152861595,0.007400156721286476,-0.00888435369732324
1783246398549856800,6.836856689453125,-0.020879706421494483,-0.0027421748476102945,0.00016889942665584384
1783246398559868700,6.84686865234375,-0.015942250019311904,-0.005562310302257538,-0.0021566346111940218
1783246398569880000,6.856880126953125,-0.0098076927870512,0.006579707183875143,0.00027295117288595063
1783246398579892000,6.86689208984375,-0.019381576818227768,-0.0026275720246136188,-0.010901241911109536
1783246398589904000,6.87690380859375,-0.020128011271357535,-0.01432882347330451,0.0037060286108171565
1783246398599914800,6.886914794921875,-0.009053659549355506,-0.006433686309307813,-0.0006538151330780237
1783246398609927000,6.896927001953125,-0.013390227448940277,0.0014393120881170034,0.0076331320768105795
1783246398619937800,6.906937744140625,-0.013240589845180511,-0.0036589243663474914,-0.004783007909276057
1783246398629949700,6.91694970703125,-0.005458265405893325,0.005590294287726283,-0.01627946891731117
1783246398639961900,6.9269619140625,-0.01772971795797348,0.012964658980630338,-0.0048510978595586495
1783246398649973000,6.936972900390625,-0.016832476857304574,-0.0006346811743453144,-0.0007213251280481927
1783246398659985000,6.94698486328125,-0.023716391152143478,-0.011688720760680735,0.01516146120543126
1783246398669995800,6.956995849609375,-0.02057692408263683,-0.012204743991419673,-0.006503872318554204
1783246398680008000,6.967008056640625,-0.020579846692085266,-0.01063596030473709,-0.001152547019009944
1783246398690018800,6.977018798828125,-0.013995207604765891,0.004897233989648521,-0.00018107163835084065
1783246398700030700,6.98703076171875,-0.017436287969350813,-0.010826222179830074,-0.00393930536044063
1783246398710043000,6.99704296875,-0.019231939214468002,-0.01471807851921767,-0.0002930897786165587
1783246398720054000,7.007053955078125,-0.017137012761831282,-0.005888984973356127,-0.0038457544586271977
1783246398730066000,7.01706591796875,-0.024769699597358703,-0.00495082734040916,0.0015495446966728194
1783246398740077000,7.0270771484375,-0.016541384956240652,-0.00609820727724582,0.003360388944344595
1783246398750089000,7.0370888671875,-0.01325111123919487,0.002320003912784159,-0.012181454447377473
1783246398760100900,7.047100830078125,-0.011159107396006583,-0.011224610380269586,-0.004398577452241443
1783246398770111700,7.05711181640625,-0.024925182420015332,-0.010336465901508926,-0.0035011696715024298
1783246398780124000,7.0671240234375,-0.02462766077816486,-0.0019028014140203594,-0.0043320492713828564
1783246398790134800,7.077134765625,-0.022684710016846656,0.0011385025106370448,-0.004240124071075115
1783246398800147000,7.08714697265625,-0.019241876086592672,-0.0042740240573883054,-0.007815404724981635
1783246398810158000,7.097157958984375,-0.022684125494956967,-0.005613382902368903,0.001598448172584176
1783246398820170000,7.107169921875,-0.006973346143960953,0.0054787236720323556,-0.006558057041070424
1783246398830182000,7.117181884765625,-0.008172785061597824,-0.0021070918144658205,0.0015091556040686554
1783246398840192800,7.12719287109375,-0.004133154281973838,0.0018007292790338397,0.008643788690387736
1783246398850205000,7.137204833984375,-0.01386369017958641,-0.004237491439282894,-0.0020188335757004095
1783246398860215800,7.1472158203125,-0.017454992669820785,0.004290573333390057,-0.002167927756765857
1783246398870227700,7.157227783203125,-0.023140052568912505,0.008158464275300502,0.0029474584786104967
1783246398880239900,7.167239990234375,-0.023437574210762976,-0.006251680805906653,-0.006625857013696804
1783246398890251000,7.1772509765625,-0.01775485239923,-0.0058706090664491055,-0.004260230710764881
1783246398900263000,7.187262939453125,-0.01834872663915157,-0.009429360993951558,-0.0034833075045375152
1783246398910273800,7.197273681640625,-0.019097499179840088,0.01019694783296436,-0.010090147007221821
1783246398920286000,7.207285888671875,-0.032711598512530325,0.0038302623452618717,-0.00907965707371477
1783246398930297900,7.2172978515625,-0.023283844953775404,0.00022230098117142913,-0.00969518373972969
1783246398940308700,7.227308837890625,-0.03151274411678314,0.004533259515464305,-0.003892758238397073
1783246398950321000,7.23732080078125,-0.02717442265152931,0.0011264832792803644,-0.00861238205526024
1783246398960332000,7.24733203125,-0.01685001251399517,-0.013535627268999813,0.010943898309324867
1783246398970344000,7.257343994140625,-0.025528993532061575,-0.001118373038060963,0.0035569709623698145
1783246398980354800,7.267354736328125,-0.02014087075293064,0.0015477043660357594,-0.002145021805213764
1783246398990367000,7.277366943359375,-0.023281506866216658,-0.0017940438099205492,-0.010996158219524658
1783246399000379000,7.28737890625,-0.02043722335100174,0.007295417705178261,-0.00101431215867633
1783246399010389800,7.2973896484375,-0.0009849193841218948,-0.00824033387247473,0.004382882126187905
1783246399020402000,7.30740185546875,-0.02806932566463947,-0.012741846542805432,-0.01736117918981472
1783246399030412800,7.317412841796875,-0.013257540979981422,0.003327683117985725,-0.0018129060573060995
1783246399040424700,7.3274248046875,0.0024526538491249084,-0.011890600008331238,0.006883902878395747
1783246399050436000,7.33743603515625,-0.014151859471201896,0.000991056863963604,-0.007802052053064107
1783246399060448000,7.347447998046875,-0.018936755660176274,0.004793042962811887,-0.0046055347338085995
1783246399070460000,7.3574599609375,-0.020582769301533698,-0.010473901610821484,-0.013365355585876386
1783246399080470800,7.367470703125,-0.008610007435083389,-0.007067308037728071,0.00005396552680758759
1783246399090483000,7.37748291015625,-0.02865969277322292,-0.0006769128808751702,-0.00042770790975773707
1783246399100493800,7.387493896484375,-0.033002105891704554,-0.0034481676924973726,-0.0033150245658122002
1783246399110505700,7.397505615234375,-0.015042670831084251,-0.000825673701800406,-0.009297544457961339
1783246399120518000,7.407517822265625,-0.025067221239209174,-0.008049670138582586,-0.013251200287451501
1783246399130529000,7.417529052734375,-0.02162672539651394,0.008889628094062208,-0.00012800344397546722
1783246399140541000,7.427541015625,-0.02042670195698738,-0.013327756671980023,0.0012046037165215238
1783246399150551800,7.4375517578125,-0.0220727155983448,-0.015572576456703244,0.002043751104536932
1783246399160564000,7.44756396484375,-0.026265491113066673,0.005306764638610184,-0.003859408524644095
1783246399170574800,7.457574951171875,-0.006663549542427063,-0.0011105915904045104,-0.006817730890563689
1783246399180586800,7.467586669921875,0.0005155483067035675,-0.0011649521261453627,-0.00472140934857307
1783246399190599000,7.477598876953125,-0.021630232527852056,0.0000301028773188591,0.010356456093478482
1783246399200610000,7.487610107421875,-0.0220814834266901,0.005784209424629807,-0.008550450134417041
1783246399210622000,7.4976220703125,-0.01953530607521534,0.007824263884872198,-0.015990420559572522
1783246399220632800,7.5076328125,-0.01923603086769581,0.010073942507803439,-0.01485295922855148
1783246399230645000,7.51764501953125,-0.022379005068540573,-0.006817826788686215,-0.0021943362730788064
1783246399240657000,7.527656982421875,-0.02701660174131393,-0.006099485918879509,0.006471518118644598
1783246399250667800,7.537667724609375,-0.027014263653755186,-0.007658734592236578,0.0005788068182417191
1783246399260680000,7.547679931640625,-0.020581600257754323,-0.0010207578824833034,-0.010941032782092224
1783246399270690800,7.55769091796875,-0.015045008918642997,0.010792246844992042,0.0047691323642618955
1783246399280702700,7.56770263671875,-0.014295651856064795,-0.005388670768402517,0.0027599479663185772
1783246399290713900,7.5777138671875,-0.012946575334668158,-0.009486205747723579,-0.010979200234857853
1783246399300726000,7.58772607421875,-0.028508301603794098,0.0017358838818967342,-0.005209528508945368
1783246399310738000,7.597738037109375,-0.015341361516714095,-0.0003318623028695583,-0.0019143183218780903
1783246399320748800,7.607748779296875,-0.01100070196390152,-0.0044030937971547245,-0.01584879729890963
1783246399330761000,7.617760986328125,-0.014888357052206992,0.003762750067003071,-0.0011233163579483516
1783246399340771800,7.627771728515625,-0.012793430599570273,-0.007164996258541941,0.016981710318976547
1783246399350783700,7.63778369140625,-0.010696166059374809,-0.007369432789459824,0.013268765626894309
1783246399360796000,7.6477958984375,-0.013241758888959884,0.004935154847241938,-0.012932713489385787
1783246399370807000,7.65780712890625,-0.015486907467246055,-0.001627747332304716,-0.0032009583156439475
1783246399380819000,7.66781884765625,-0.03119827134013176,-0.002388173778168857,0.0005747379979002289
1783246399390829800,7.677829833984375,-0.011595745247602462,-0.008366809796355665,-0.001733500128565356
1783246399400842000,7.687842041015625,-0.029707155999541282,0.00582169189080596,-0.0073365602830308485
1783246399410852900,7.697852783203125,-0.024320786786079407,-0.005836597198992967,-0.00659721315781353
1783246399420864800,7.70786474609375,-0.01773673222064972,-0.0038785219337791202,-0.0026879239097237586
1783246399430877000,7.717876953125,-0.024620061993598938,-0.009121573686413467,0.0062478677138919
1783246399440887800,7.7278876953125,-0.027163316735625265,-0.006144347973912954,0.007471130465110764
1783246399450899700,7.737899658203125,-0.005166004461050033,-0.00512041175365448,0.0009299606267595663
1783246399460910800,7.747910888671875,-0.028059388792514798,-0.004259411010146141,0.01236883252892876
1783246399470923000,7.757923095703125,-0.02342120759785175,-0.007237148179300129,0.003702998686803039
1783246399480935000,7.767934814453125,-0.021474749705195424,-0.00845251531843096,-0.005519663037196733
1783246399490945800,7.77794580078125,-0.019525953724980352,-0.006753565913438796,-0.006812796703830826
1783246399500958000,7.7879580078125,-0.01922200234234333,-0.007001805053465068,-0.003429040583630558
1783246399510968800,7.79796875,-0.02341127072572708,-0.00028159342035651204,-0.0018714061953360214
1783246399520980700,7.807980712890625,-0.020416765084862707,0.0028154592795297502,-0.00572337348232977
1783246399530991900,7.817991943359375,-0.015975567767024038,0.00031925854962319136,0.0009584309527068399
1783246399541004000,7.828004150390625,-0.09586743512749671,0.017236892939731477,-0.023716573815234003
1783246399551016000,7.838015869140625,-0.1887654990553856,-0.0021220701878890396,-0.0865652441771701
1783246399561026800,7.84802685546875,0.39170097776055335,-0.03219484462942928,0.1729815083377063
1783246399571038700,7.858038818359375,-0.14482172791063785,0.015092062930762767,-0.05301649158759974
1783246399581049600,7.868049560546875,-0.28159049774706363,0.007145451307855546,-0.10827464288845658
1783246399591061500,7.8780615234375,0.3023234891742468,-0.024554376346245407,0.12308823593771084
1783246399601073700,7.88807373046875,-0.09809387900531291,-0.010577544648386537,-0.012941154807456768
1783246399611084800,7.898084716796875,-0.07200900515615939,0.0020144085623323917,-0.031888157867011616
1783246399621096700,7.9080966796875,0.08860416612625122,-0.0024859715968370438,0.030552621247200294
1783246399631107800,7.91810791015625,-0.041405192577838895,-0.014316438915766774,-0.01026412903437158
1783246399641119700,7.92811962890625,-0.054554012486338614,0.004036854300647974,0.025165069290227254
1783246399651130600,7.938130615234375,-0.030622517278790472,0.003473338666372001,-0.004178285765065811
