time,seconds_elapsed,z,y,x
1783246408856155400,0.0571552734375,-0.00012411875650286674,-0.0006317163351923227,-0.000393817201256752
1783246408866166300,0.067166259765625,-0.00038991705514490604,-0.0009305230341851711,-0.001090233912691474
1783246408876178200,0.07717822265625,0.0003970470279455185,0.00031317316461354494,0.0004341593012213707
1783246408886189300,0.087189208984375,0.0006479991134256124,-0.00044836546294391155,0.0006864960305392742
1783246408896201500,0.097201416015625,0.0001257532276213169,-0.001633738400414586,0.00034774187952280045
1783246408906212400,0.10721240234375,0.00012250500731170177,-0.00015668454580008984,-0.00042086001485586166
1783246408916224300,0.117224365234375,-0.0004966799169778824,-0.0015870684292167425,-0.0009907763451337814
1783246408926236400,0.127236328125,-0.0009981966577470303,-0.001043957658112049,-0.0005059409886598587
1783246408936247300,0.137247314453125,-0.0012123147025704384,-0.0005235760472714901,0.00018195342272520065
1783246408946259200,0.14725927734375,0.0007279117126017809,0.0003200555220246315,0.00010804133489727974
1783246408956270300,0.157270263671875,-0.0010433567222207785,0.0004894324811175466,-0.0006954343989491463
1783246408966282200,0.1672822265625,-0.00001965952105820179,0.0010301286820322275,-0.0003323531709611416
1783246408976293400,0.17729345703125,0.0004237568937242031,0.0007382462499663234,0.0006785825826227665
1783246408986305300,0.18730517578125,-0.0007887014653533697,-0.0006428188644349575,-0.00043058255687355995
1783246408996317400,0.1973173828125,0.00036418065428733826,0.00020939263049513102,0.00014945399016141891
1783246409006328300,0.207328369140625,-0.00006181281059980392,-0.0002955310046672821,-0.0015949760563671589
1783246409016340200,0.21734033203125,0.0005728185642510653,-0.0006316220387816429,0.00018854299560189247
1783246409026351000,0.22735107421875,-0.00016740337014198303,0.00015601632185280323,0.0011484771966934204
1783246409036363300,0.23736328125,-0.00045928568579256535,0.000025521498173475266,0.000998008530586958
1783246409046374400,0.24737451171875,0.0021094554103910923,0.001631109043955803,0.0012105358764529228
1783246409056386300,0.25738623046875,0.0005930513143539429,-0.0019234118517488241,-0.0005578026175498962
1783246409066398500,0.2673984375,-0.001255739713087678,0.00038714660331606865,0.001184969674795866
1783246409076409300,0.277409423828125,0.000876653240993619,0.0005365499528124928,0.0010890960693359375
1783246409086421200,0.287421142578125,0.0006706540007144213,-0.00012905243784189224,-0.0014680013991892338
1783246409096432000,0.29743212890625,0.0008309762924909592,-0.0006947077345103025,0.0010380330495536327
1783246409106444300,0.3074443359375,-0.0009932173416018486,0.0005893009947612882,0.0010334895923733711
1783246409116455400,0.317455322265625,0.00041666021570563316,0.0006004862952977419,0.0010348213836550713
1783246409126467300,0.32746728515625,-0.0005900093819946051,0.00014954572543501854,0.00023428304120898247
1783246409136479500,0.3374794921875,0.0006555512081831694,-0.0008070617914199829,0.0014372332952916622
1783246409146490400,0.347490478515625,-0.0003768412861973047,0.0015631396090611815,-0.0012724739499390125
1783246409156502300,0.357502197265625,0.00009160884656012058,0.0002454074565321207,-0.0010828569065779448
1783246409166513200,0.36751318359375,0.0012384932488203049,0.00031652592588216066,0.00011790310963988304
1783246409176525300,0.377525390625,0.0014736504526808858,-0.00010159029625356197,0.0007296311669051647
1783246409186536200,0.3875361328125,-0.00024228333495557308,0.0001814410788938403,-0.001434121048077941
1783246409196548000,0.397548095703125,0.00040326686576008797,0.0011905127903446555,0.0009747082367539406
1783246409206560300,0.407560302734375,-0.000986047089099884,0.0002685429062694311,0.0002372758463025093
1783246409216571400,0.4175712890625,0.0005141114816069603,-0.0009202922228723764,0.0005789590068161488
1783246409226583300,0.427583251953125,-0.0006848436314612627,0.0002102197613567114,-0.00010866904631257057
1783246409236594200,0.43759423828125,0.0005308892577886581,0.0010075701866298914,-0.0012743344996124506
1783246409246606300,0.4476064453125,0.0017011736053973436,-0.00036352011375129223,-0.0006630676798522472
1783246409256617200,0.4576171875,0.00043377536348998547,-0.0006133245769888163,0.00172738591209054
1783246409266629000,0.467629150390625,0.0007452641148120165,-0.0006933908443897963,0.0010300986468791962
1783246409276641300,0.477641357421875,0.001100796042010188,0.0005870569730177522,0.0018277154304087162
1783246409286652400,0.48765234375,0.0006598487962037325,0.0005569152999669313,0.00034381216391921043
1783246409296664300,0.497664306640625,0.0007298898417502642,0.000249320175498724,-0.0001278338022530079
1783246409306675200,0.50767529296875,0.0003486364148557186,0.00021947838831692934,0.0008043283596634865
1783246409316687400,0.517687255859375,-0.0007118345238268375,0.0006037724670022726,0.00028048455715179443
1783246409326698200,0.5276982421875,-0.00005338643677532673,-0.0002806014381349087,-0.00039939815178513527
1783246409336710100,0.537710205078125,-0.0006472712848335505,0.0014768186956644058,-0.0008923492860049009
1783246409346722300,0.547722412109375,0.0009230717550963163,0.00023183750454336405,-0.0009340562392026186
1783246409356733400,0.5577333984375,-0.0004338088911026716,-0.000022760825231671333,0.0002158968709409237
1783246409366745300,0.567745361328125,0.0014938995009288192,-0.0003577976021915674,0.0009895702823996544
1783246409376756200,0.577756103515625,0.0008358324412256479,0.00020546093583106995,0.0010074134916067123
1783246409386768400,0.587768310546875,0.00030843401327729225,0.0012009250931441784,-0.00015441514551639557
1783246409396779300,0.597779296875,-0.00018931063823401928,0.00026828597765415907,-0.000657220371067524
1783246409406791200,0.607791259765625,0.0007215086370706558,-0.000056099146604537964,-0.00006660120561718941
1783246409416803300,0.61780322265625,0.0010235111694782972,-0.00023692776449024677,-0.0002445005811750889
1783246409426814200,0.627814208984375,-0.000244310824200511,-0.0012516477145254612,0.00014056731015443802
1783246409436826000,0.637826171875,0.00012746662832796574,-0.0012873339001089334,0.0004766578786075115
1783246409446837200,0.647837158203125,0.0010012874845415354,-0.00009504146873950958,0.0002788412384688854
1783246409456849400,0.657849365234375,0.0003914234694093466,0.0005981792928650975,0.0015891166403889656
1783246409466861300,0.667861328125,-0.000003982800990343094,-0.000015004072338342667,-0.0007471637800335884
1783246409476872200,0.6778720703125,0.0015891201328486204,-0.0009258051868528128,0.00017988262698054314
1783246409486884400,0.68788427734375,-0.0013116078916937113,-0.0012675458565354347,0.0010102447122335434
1783246409496895200,0.697895263671875,-0.0008357006590813398,-0.0003591417334973812,0.00030317530035972595
1783246409506907100,0.7079072265625,0.0011730070691555738,0.0005582633893936872,0.0002341046929359436
1783246409516918300,0.717918212890625,0.0009325235150754452,-0.00021565123461186886,-0.0005861488170921803
1783246409526930400,0.727930419921875,0.0018330906750634313,-0.0007161360699683428,-0.00007474096491932869
1783246409536941300,0.73794140625,-0.0010332698002457619,-0.0001755144912749529,-0.00010004127398133278
1783246409546953200,0.747953125,0.00040313065983355045,-0.0004896468017250299,0.0005047628656029701
1783246409556965400,0.75796533203125,0.0006010036449879408,-0.0005714059807360172,-0.00038100453093647957
1783246409566976300,0.767976318359375,-0.0006631372962146997,-0.00032147043384611607,-0.0004436415620148182
1783246409576988200,0.77798828125,0.0005627158097922802,-0.0003699399530887604,-0.0008756064344197512
1783246409586999300,0.787999267578125,-0.0012071451637893915,-0.0001569765154272318,0.0006343405693769455
1783246409597011200,0.79801123046875,-0.0011573440860956907,0.0010267985053360462,-0.00019283732399344444
1783246409607023400,0.8080234375,0.0012536076828837395,-0.00033127283677458763,0.00006611226126551628
1783246409617034200,0.8180341796875,-0.001421803841367364,0.0000615434255450964,-0.0014737274032086134
1783246409627046100,0.828046142578125,-0.002194311236962676,-0.0006524254567921162,0.0002342676743865013
1783246409637057000,0.83805712890625,-0.00011278432793915272,-0.000541637884452939,0.0001322687603533268
1783246409647069200,0.848069091796875,-0.0006092642433941364,0.000324116088449955,0.00041346577927470207
1783246409657080000,0.858080078125,-0.00031498493626713753,-0.001047411933541298,-0.0014534099027514458
1783246409667092000,0.868092041015625,-0.0014192215166985989,0.0007895204471424222,-0.001341985072940588
1783246409677104000,0.878104248046875,-0.0006045603659003973,-0.00018120184540748596,-0.0007081527728587389
1783246409687115300,0.888115234375,-0.00020485534332692623,0.00003251538146287203,0.00085408054292202
1783246409697127200,0.898127197265625,0.0016513679875060916,0.00025275873485952616,0.0012021558359265327
1783246409707138000,0.908137939453125,-0.00031991139985620975,0.0000063086627051234245,0.00002756994217634201
1783246409717150200,0.918150146484375,0.002151502063497901,-0.0014624245231971145,-0.0010640600230544806
1783246409727161000,0.9281611328125,0.0008487505838274956,-0.0012652259320020676,-0.001015042420476675
1783246409737173000,0.938173095703125,-0.00002636411227285862,-0.0003373806830495596,0.0008507682941854
1783246409747185200,0.94818505859375,-0.00036886055022478104,-0.00031067407689988613,-0.00017087534070014954
1783246409757196300,0.9581962890625,0.0011544674634933472,0.00057642487809062,0.0005175517871975899
1783246409767208200,0.968208251953125,0.0007167526055127382,-0.0006974809803068638,-0.0008360885549336672
1783246409777219000,0.978218994140625,-0.0012012561783194542,-0.0005944166332483292,0.0002504810690879822
1783246409787231200,0.988231201171875,-0.0004207764286547899,-0.00002377200871706009,0.0013965349644422531
1783246409797242000,0.9982421875,0.0008604703471064568,-0.0011438975343480706,0.0005685584619641304
1783246409807254000,1.00825390625,0.0016693308716639876,0.00014249037485569715,0.0007763402536511421
1783246409817266200,1.01826611328125,0.0007233759388327599,-0.00003966991789638996,0.0017388067208230495
1783246409827277000,1.028277099609375,-0.0007479172199964523,0.0008587392512708902,0.001985283102840185
1783246409837289200,1.038289306640625,0.0018840847769752145,0.0012755240313708782,-0.0001383214257657528
1783246409847300000,1.048300048828125,0.0005989721976220608,-0.001578791649080813,0.0010485313832759857
1783246409857312300,1.058312255859375,0.00038378871977329254,-0.0006970189278945327,-0.0000010202638804912567
1783246409867323100,1.0683232421875,-0.0005935188382863998,0.0015639611519873142,-0.0005447757430374622
1783246409877335000,1.0783349609375,-0.0005746101960539818,0.0004512924933806062,-0.00005049305036664009
1783246409887347200,1.08834716796875,-0.00002490868791937828,-0.00009250792209059,0.00048479996621608734
1783246409897358000,1.098358154296875,-0.0012678056955337524,0.00045184220653027296,0.00018732482567429543
1783246409907370000,1.108369873046875,-0.00007882085628807545,-0.0007692977087572217,0.0009917989373207092
1783246409917381000,1.118381103515625,-0.0015345048159360886,-0.0009405390592291951,0.0009244210086762905
1783246409927393300,1.128393310546875,0.0008511894848197699,0.0017119348049163818,-0.0009988523088395596
1783246409937404200,1.138404052734375,0.0007012535352259874,-0.0005775848403573036,-0.000631336122751236
1783246409947416000,1.148416015625,0.0012356655206531286,-0.00043831171933561563,-0.0004535275511443615
1783246409957428200,1.15842822265625,0.00034137605689466,-0.0007059593917801976,-0.0017262522596865892
1783246409967439000,1.168439208984375,0.000490725040435791,-0.0002133429516106844,-0.000011425931006669998
1783246409977451000,1.178450927734375,-0.00012153573334217072,-0.0005550265777856112,0.00037073763087391853
1783246409987462400,1.18846240234375,-0.00003367476165294647,-0.0007930905558168888,0.0004696282558143139
1783246409997474300,1.198474365234375,-0.0010211749467998743,-0.0010591403115540743,-0.0005740644410252571
1783246410007485200,1.208485107421875,0.0011948301689699292,-0.0002989851636812091,-0.0003637135960161686
1783246410017497000,1.2184970703125,-0.000394277973100543,0.00030848197638988495,0.0008783848024904728
1783246410027509200,1.22850927734375,0.0009510880336165428,-0.0002190473023802042,0.0017493078485131264
1783246410037520100,1.23852001953125,0.0011958325048908591,-0.00007949769496917725,-0.0002637752331793308
1783246410047532000,1.248531982421875,-0.000058206263929605484,-0.0016933920560404658,-0.0011441605165600777
1783246410057543200,1.258543212890625,0.0003639049828052521,-0.00023717561271041632,0.0007149921730160713
1783246410067555000,1.26855517578125,-0.000037907855585217476,-0.0006236773915588856,0.00014191726222634315
1783246410077566200,1.278566162109375,0.00043933046981692314,0.00011002342216670513,0.0005342010408639908
1783246410087578000,1.288578125,0.0005136639811098576,-0.0005858357762917876,-0.0011844330001622438
1783246410097590300,1.29859033203125,-0.00030632317066192627,-0.0001741111045703292,-0.00025765271857380867
1783246410107601200,1.30860107421875,0.0009318920783698559,-0.002048073336482048,-0.00017932895570993423
1783246410117613000,1.318613037109375,0.000003780471161007881,-0.0006424568127840757,-0.0013649680186063051
1783246410127624200,1.328624267578125,0.0014231916284188628,-0.0008388747228309512,-0.0007167588919401169
1783246410137636000,1.338635986328125,-0.0003512725234031677,0.00036727101542055607,0.00041801389306783676
1783246410147647200,1.348647216796875,0.0009650993160903454,-0.00021313014440238476,0.00016274349763989449
1783246410157659100,1.3586591796875,0.0003464471083134413,-0.0005082085262984037,0.0008024349808692932
1783246410167671300,1.36867138671875,-0.00016863527707755566,-0.00033012195490300655,-0.0010147339198738337
1783246410177682200,1.37868212890625,0.0017040995880961418,-0.00008244789205491543,-0.0006637293845415115
1783246410187694000,1.388694091796875,-0.0007260141428560019,0.00034028792288154364,0.002153253648430109
1783246410197705200,1.398705322265625,-0.0004953842144459486,0.0002974109956994653,-0.0009871458169072866
1783246410207717000,1.408717041015625,-0.00030833599157631397,-0.000005318433977663517,0.001690212171524763
1783246410217728300,1.418728271484375,-0.0006191269494593143,-0.0003294250927865505,0.0001658187247812748
1783246410227740200,1.428740234375,-0.0005267709493637085,0.0003003791207447648,0.00035562925040721893
1783246410237752300,1.43875244140625,0.0012942985631525517,0.0004082371015101671,-0.0004214807413518429
1783246410247763200,1.44876318359375,-0.00006200629286468029,-0.0010762987658381462,-0.000509616918861866
1783246410257775000,1.458775146484375,-0.0003637424670159817,-0.00013487134128808975,-0.0006161434575915337
1783246410267786200,1.4687861328125,0.0013581488747149706,-0.0002850559540092945,-0.00036478135734796524
1783246410277798100,1.478798095703125,-0.0003651827573776245,0.001527757733128965,-0.0004017995670437813
1783246410287809000,1.48880908203125,-0.0006360479164868593,-0.0007021017372608185,0.0008889259770512581
1783246410297821200,1.4988212890625,-0.000952963950112462,-0.0006254026666283607,-0.0005872640758752823
1783246410307833000,1.5088330078125,0.0006973978597670794,-0.0002021193504333496,-0.00020373566076159477
1783246410317844200,1.51884423828125,0.0007591831963509321,-0.0010372865945100784,0.0005174484103918076
1783246410327856000,1.528856201171875,0.00013425643555819988,-0.0013545441906899214,-0.0008702564518898726
1783246410337867300,1.5388671875,0.0009095026180148125,0.00008729123510420322,0.001226183958351612
1783246410347879200,1.548879150390625,-0.0007011378183960915,-0.0006533393170684576,0.000052778515964746475
1783246410357890000,1.55889013671875,0.0008874377235770226,-0.0007308372296392918,-0.000605554785579443
1783246410367902200,1.568902099609375,0.00006006401963531971,0.00034738134127110243,-0.000057598575949668884
1783246410377914000,1.5789140625,0.0004901646170765162,0.00001102406531572342,0.00038049137219786644
1783246410387925200,1.58892529296875,-0.0009337856899946928,0.00141859648283571,-0.001414571888744831
1783246410397937200,1.598937255859375,0.0001205597072839737,-0.0003931520041078329,-0.00012853136286139488
1783246410407948300,1.6089482421875,-0.00011291448026895523,0.0010447038803249598,-0.0006570448167622089
1783246410417960200,1.618960205078125,-0.0014040148817002773,0.000831118319183588,0.00033578183501958847
1783246410427971000,1.62897119140625,0.00023014540784060955,0.0003476241836324334,-0.00034327432513237
1783246410437983200,1.638983154296875,0.0008405419066548347,-0.0007874150760471821,-0.0002159751020371914
1783246410447995100,1.6489951171875,0.0007548462599515915,0.002210070611909032,-0.00011744396761059761
1783246410458006000,1.659006103515625,0.0010216948576271534,0.00033706938847899437,-0.0005733771249651909
1783246410468018200,1.66901806640625,-0.0004545843694359064,0.0010767824715003371,-0.0005488414317369461
1783246410478029300,1.679029296875,-0.0006671047303825617,-0.000053196679800748825,-0.000843387097120285
1783246410488041200,1.689041259765625,0.0004591618198901415,0.0024013682268559933,0.0003538159653544426
1783246410498052000,1.699052001953125,-0.0009134311694651842,0.0008572675287723541,0.0009988336823880672
1783246410508064300,1.709064208984375,0.00023758085444569588,-0.0008561615832149982,0.0008424804545938969
1783246410518076200,1.719076171875,-0.0007560444064438343,0.00005570473149418831,0.00032822368666529655
1783246410528087000,1.729087158203125,0.000777397770434618,-0.00026304926723241806,0.0012817694805562496
1783246410538099000,1.739098876953125,0.00004156632348895073,-0.00004839850589632988,0.0005709719844162464
1783246410548110300,1.7491103515625,0.0008859194349497557,-0.000746340025216341,0.00019617192447185516
1783246410558122200,1.759122314453125,0.0012662187218666077,-0.0002059845719486475,0.00019270973280072212
1783246410568133000,1.769133056640625,-0.0006616422906517982,-0.0003931610845029354,0.0010235938243567944
1783246410578145300,1.779145263671875,-0.0003524492494761944,-0.0006834457162767649,0.00013835914433002472
1783246410588157200,1.7891572265625,-0.0007666728924959898,-0.0001568412408232689,-0.0013669920153915882
1783246410598168300,1.799168212890625,-0.0006787886377424002,-0.00012994324788451195,-0.00026684021577239037
1783246410608180200,1.80918017578125,-0.00012012454681098461,-0.000914023257791996,0.0009423326700925827
1783246410618191400,1.81919140625,-0.00020481320098042488,-0.00130577408708632,-0.002014308935031295
1783246410628203500,1.82920361328125,-0.0005194908007979393,-0.0005827031563967466,0.000535410363227129
1783246410638215400,1.83921533203125,0.0006696104537695646,-0.0015640780329704285,-0.00017325673252344131
1783246410648226300,1.849226318359375,0.00018346565775573254,-0.00029881508089601994,-0.0006260457448661327
1783246410658238200,1.85923828125,-0.00039950013160705566,0.00040905317291617393,-0.0011480252724140882
1783246410668249300,1.869249267578125,-0.0002724374644458294,0.001859199022874236,-0.0002797003835439682
1783246410678261200,1.87926123046875,-0.00014700274914503098,0.0005574458045884967,-0.00031192461028695107
1783246410688272100,1.889272216796875,-0.0008810460567474365,-0.0005271253176033497,-0.000259587075561285
1783246410698284300,1.8992841796875,0.0008002077229321003,-0.00013404269702732563,-0.0012092702090740204
1783246410708295400,1.90929541015625,0.00027527124620974064,-0.000255900202319026,-0.00004738569259643555
1783246410718307300,1.919307373046875,0.000698181102052331,0.00026980775874108076,0.000371796078979969
1783246410728319500,1.929319580078125,-0.0007683811709284782,-0.0012093994300812483,0.0002361317165195942
1783246410738330400,1.939330322265625,0.0004082033410668373,-0.00039899954572319984,0.0010449336841702461
1783246410748342300,1.94934228515625,0.00017696362920105457,-0.0012981726322323084,0.002152150496840477
1783246410758353200,1.959353271484375,0.0011024121195077896,0.00003047846257686615,-0.0019312743097543716
1783246410768365300,1.969365234375,-0.0006543297786265612,-0.0003557379823178053,0.00015064142644405365
1783246410778376400,1.97937646484375,-0.0002205008640885353,-0.0002998115960508585,0.0007506515830755234
1783246410788388400,1.989388427734375,-0.00026683066971600056,-0.00036328029818832874,0.0003748098388314247
1783246410798400500,1.999400390625,-0.0003603077493607998,0.0007302135927602649,-0.0008102969732135534
1783246410808411400,2.009411376953125,-0.0004438564646989107,-0.00017796712927520275,-0.0009308077860623598
1783246410818423300,2.01942333984375,0.0007194122299551964,-0.0005010087043046951,0.0005664215423166752
1783246410828434200,2.02943408203125,0.0010234091896563768,-0.00043794955126941204,-0.0006379317492246628
1783246410838446300,2.0394462890625,0.0009001048747450113,-0.00021584192290902138,0.00033971434459090233
1783246410848458200,2.049458251953125,0.001655319589190185,-0.0015748098958283663,-0.0006635226309299469
1783246410858469000,2.05946923828125,0.0005256067961454391,-0.00014655664563179016,0.0003721807152032852
1783246410868481300,2.069481201171875,-0.00036977254785597324,0.00003922381438314915,0.0004457598552107811
1783246410878492400,2.079492431640625,-0.0006257023196667433,0.000803284696303308,-0.0003137737512588501
1783246410888504300,2.08950439453125,-0.0007333047688007355,0.0005157490959390998,0.0005886801518499851
1783246410898515200,2.09951513671875,-0.0017703394405543804,0.0010433212155476213,0.0010888217948377132
1783246410908527400,2.10952734375,-0.0015708727296441793,0.0005048128077760339,-0.00023827049881219864
1783246410918539300,2.119539306640625,-0.0020518393721431494,-0.0007937445770949125,0.0013785343617200851
1783246410928550100,2.129550048828125,0.0006049321964383125,-0.000041119055822491646,0.00021166307851672173
1783246410938562300,2.139562255859375,0.0012179919285699725,-0.0008115714881569147,-0.0002109808847308159
1783246410948573400,2.149573486328125,-0.0012192768044769764,0.00007275701500475407,0.000387510284781456
1783246410958585300,2.15958544921875,-0.0013966429978609085,-0.00005214521661400795,0.00035129161551594734
1783246410968596200,2.16959619140625,0.0006769495084881783,-0.00006118440069258213,0.0012360415421426296
1783246410978608400,2.1796083984375,0.00027827429585158825,0.00012337265070527792,0.0006770440377295017
1783246410988620300,2.189620361328125,0.0009737533982843161,0.00019313336815685034,0.0001047835685312748
1783246410998631200,2.199631103515625,0.00031089247204363346,-0.0004542809911072254,-0.00009282305836677551
1783246411008643300,2.209643310546875,-0.00007880642078816891,-0.00006217393092811108,-0.00001694401726126671
1783246411018654500,2.219654541015625,-0.0008790863212198019,-0.0008592579979449511,-0.0000800606794655323
1783246411028666400,2.229666259765625,0.0005620364099740982,0.00043653754983097315,-0.0013226342853158712
1783246411038677200,2.23967724609375,0.00000543566420674324,-0.0006998332682996988,0.00015142560005187988
1783246411048689400,2.249689453125,-0.0004640468396246433,-0.00018568336963653564,0.0009710523299872875
1783246411058701300,2.259701416015625,0.0004419607575982809,-0.0000711674802005291,-0.0008633329998701811
1783246411068712200,2.269712158203125,-0.0009493210818618536,-0.0004081050865352154,0.001035870984196663
1783246411078724400,2.279724365234375,0.000943121500313282,0.00011920090764760971,-0.00034124962985515594
1783246411088735200,2.2897353515625,-0.0012091391254216433,0.0009011494694277644,0.0017700307071208954
1783246411098747100,2.2997470703125,-0.00031884433701634407,-0.0000645127147436142,-0.000008162111043930054
1783246411108758300,2.30975830078125,0.002264194656163454,0.000046345870941877365,0.002507450059056282
1783246411118770400,2.3197705078125,-0.000797375338152051,-0.0004676440730690956,0.000020856503397226334
1783246411128782300,2.3297822265625,-0.0004440771881490946,0.0006136773154139519,0.00033855438232421875
1783246411138793200,2.339793212890625,0.0001993423793464899,-0.0006625093519687653,0.00024907197803258896
1783246411148805400,2.349805419921875,0.0010417418088763952,0.00018738582730293274,0.0005841655656695366
1783246411158816300,2.359816162109375,-0.001536730444058776,-0.0003223433159291744,0.0005743121728301048
1783246411168828200,2.369828125,0.0016616169596090913,-0.0007891256827861071,-0.00005267094820737839
1783246411178839300,2.37983935546875,-0.0009757115039974451,0.0008260814938694239,0.000005119480192661285
1783246411188851500,2.3898515625,0.00037535163573920727,0.0010299942223355174,0.000544088426977396
1783246411198863400,2.39986328125,-0.0005570210050791502,0.0004148039733991027,-0.0002612513490021229
1783246411208874200,2.409874267578125,-0.000528405187651515,-0.00021799723617732525,0.0017245165072381496
1783246411218886400,2.419886474609375,0.0009272785391658545,-0.003989299759268761,0.00007788371294736862
1783246411228897300,2.429897216796875,0.0011466573923826218,0.00047437066677957773,0.000347895547747612
1783246411238909200,2.4399091796875,0.00006248452700674534,0.0005795655306428671,-0.0005999235436320305
1783246411248920300,2.44992041015625,-0.0016143559478223324,-0.0007544734980911016,0.00012765871360898018
1783246411258932500,2.459932373046875,-0.0008979653939604759,-0.00047670560888946056,0.00152528565376997
1783246411268944400,2.4699443359375,-0.00029255845583975315,0.00021955708507448435,-0.000016936566680669785
1783246411278955300,2.479955322265625,0.00141825620085001,-0.00015461700968444347,0.000291457399725914
1783246411288967400,2.489967529296875,-0.0005204512272030115,0.0006559561006724834,0.0004409113898873329
1783246411298978300,2.499978271484375,-0.0010669317562133074,-0.00010996893979609013,0.00038844719529151917
1783246411308990200,2.509990234375,-0.0008529915940016508,0.0006764804711565375,0.0004483293741941452
1783246411319001000,2.5200009765625,0.00003011268563568592,-0.0003922460600733757,-0.0010385136120021343
1783246411329013200,2.53001318359375,0.0004933497402817011,-0.0003934057895094156,-0.0022226267028599977
1783246411339025200,2.540025146484375,-0.0008179908618330956,0.00026040012016892433,-0.00003990018740296364
1783246411349036300,2.550036376953125,0.00030939397402107716,0.000050892820581793785,-0.00009351363405585289
1783246411359048400,2.56004833984375,0.0009549441747367382,-0.0006271479651331902,-0.0012807506136596203
1783246411369059300,2.570059326171875,-0.00088271196000278,0.00008650030940771103,0.0007737930864095688
1783246411379071200,2.5800712890625,0.000781231326982379,-0.0006850175559520721,-0.0003311522305011749
1783246411389082000,2.59008203125,0.000033774180337786674,0.0007258300902321935,0.00011599110439419746
1783246411399094300,2.60009423828125,-0.0003145672380924225,-0.0006883083842694759,-0.0009599262848496437
1783246411409106200,2.610106201171875,0.00008767331019043922,-0.00001889187842607498,-0.0008004731498658657
1783246411419117300,2.620117431640625,0.0008847573772072792,-0.0006652411539107561,-0.0001304219476878643
1783246411429129500,2.63012939453125,0.0000019047874957323074,-0.0007770382799208164,0.0001796931028366089
1783246411439140400,2.640140380859375,-0.0008601606823503971,-0.0010598660446703434,-0.0008493524510413408
1783246411449152300,2.65015234375,0.0018121172906830907,-0.0008221310563385487,-0.0004828735254704952
1783246411459163100,2.6601630859375,0.00027520698495209217,-0.0004109391011297703,-0.0005638338625431061
1783246411469175300,2.67017529296875,-0.00029692379757761955,0.00048539729323238134,-0.00013458449393510818
1783246411479187200,2.680187255859375,0.00101681356318295,0.0002774044405668974,-0.0021319554653018713
1783246411489198000,2.690197998046875,0.00003418466076254845,0.0000806640600785613,-0.0003386237658560276
1783246411499210200,2.700210205078125,-0.00045823375694453716,0.0009256851626560092,-0.00022384151816368103
1783246411509221400,2.710221435546875,-0.0005616769194602966,-0.00010978337377309799,0.0015402110293507576
1783246411519233300,2.7202333984375,0.0003557822201400995,0.00048516690731048584,0.00022327760234475136
1783246411529244200,2.730244140625,-0.0009711738675832748,-0.00017431937158107758,-0.0002447832375764847
1783246411539256300,2.74025634765625,0.0004991572350263596,-0.002179413102567196,-0.0002357284538447857
1783246411549268200,2.750268310546875,0.000024382956326007843,0.001129848649725318,0.001105909701436758
1783246411559279000,2.760279052734375,0.0005314487498253584,-0.0003276995848864317,-0.0009532463736832142
1783246411569291300,2.770291259765625,0.0011742666829377413,-0.0015471377409994602,-0.00011285673826932907
1783246411579302400,2.780302490234375,-0.00011470331810414791,0.00030509079806506634,0.0007822318002581596
1783246411589313800,2.790313720703125,-0.0006526624783873558,0.0007810094393789768,0.00009578652679920197
1783246411599324700,2.80032470703125,-0.00041537475772202015,-0.0005588268395513296,0.00047448789700865746
1783246411609336800,2.8103369140625,0.0004155067726969719,0.0003765540895983577,0.000323249027132988
1783246411619348700,2.8203486328125,0.00022375909611582756,-0.0011552961077541113,-0.0003523952327668667
1783246411629359600,2.830359619140625,0.00041776406578719616,0.0012993753189221025,0.00009826291352510452
1783246411639371800,2.840371826171875,-0.00041527277790009975,0.00048498064279556274,0.00017416290938854218
1783246411649383000,2.8503828125,-0.001272494439035654,0.00048820720985531807,0.0001497175544500351
1783246411659394800,2.860394775390625,-0.0003491765819489956,-0.00019702408462762833,0.0010570567101240158
1783246411669405700,2.87040576171875,-0.0004587550647556782,-0.0009018576238304377,0.0006008418276906013
1783246411679417900,2.88041796875,0.0002539069391787052,0.0003370448248460889,-0.00039384886622428894
1783246411689429800,2.8904296875,-0.0008774891030043364,0.00013706088066101074,-0.0006294744089245796
1783246411699440600,2.900440673828125,-0.00024365680292248726,0.0007836763979867101,-0.00026009418070316315
1783246411709452800,2.910452880859375,-0.00007932772859930992,-0.0008764087688177824,-0.0009506584610790014
1783246411719464000,2.9204638671875,-0.001902527641505003,0.0005571708315983415,0.0007811952382326126
1783246411729475800,2.930475830078125,-0.00030304165557026863,-0.0008413414470851421,-0.0007026153616607189
1783246411739486700,2.94048681640625,0.00021840515546500683,-0.0004439977928996086,-0.0005430919118225574
1783246411749499000,2.950498779296875,-0.0008492418564856052,0.00021244585514068604,0.000008921138942241669
1783246411759510800,2.9605107421875,-0.00011926935985684395,0.0003330870531499386,-0.0015322503168135881
1783246411769521700,2.970521728515625,0.0003393632359802723,-0.00048539740964770317,-0.0003408128395676613
1783246411779533800,2.980533935546875,-0.001432171557098627,-0.00003399164415895939,0.00038942601531744003
1783246411789544700,2.990544677734375,-0.000043269479647278786,-0.0011566670145839453,0.00024265702813863754
1783246411799556600,3.000556640625,0.0009929665829986334,-0.0006860864814370871,0.00016915379092097282
1783246411809567700,3.010567626953125,0.0005506416782736778,0.0009545731591060758,-0.0006816159002482891
1783246411819580000,3.020579833984375,-0.0012264857068657875,-0.0009618375916033983,-0.002257408108562231
1783246411829591800,3.030591796875,-0.00006970926187932491,-0.00010908441618084908,0.0003489009104669094
1783246411839602700,3.040602783203125,-0.000029229093343019485,0.0006054418627172709,-0.00006601959466934204
1783246411849614800,3.05061474609375,-0.0008042408153414726,0.0004319425206631422,-0.0013281877618283033
1783246411859625700,3.060625732421875,-0.00010276422835886478,0.0006196954054757953,0.00015146424993872643
1783246411869637600,3.0706376953125,0.0002530706115067005,0.00020302110351622105,-0.0004104697145521641
1783246411879648800,3.080648681640625,-0.0005003376863896847,0.0007154132472351193,-0.000024843961000442505
1783246411889661000,3.090660888671875,0.00007643038406968117,-0.001051353756338358,-0.0001721479929983616
1783246411899672800,3.1006728515625,0.0006572657730430365,-0.001408217241987586,0.0008161510340869427
1783246411909683700,3.11068359375,0.00002035079523921013,-0.00029588863253593445,-0.0010686574969440699
1783246411919696000,3.12069580078125,-0.00014982535503804684,-0.00040401285514235497,-0.00030725961551070213
1783246411929706800,3.130706787109375,-0.0015958992298692465,0.00037325278390198946,-0.0007162182591855526
1783246411939718700,3.14071875,0.00006431527435779572,-0.0005295588634908199,0.00024971039965748787
1783246411949729800,3.150729736328125,0.0002087308093905449,-0.0010589712765067816,0.0003915051929652691
1783246411959742000,3.160741943359375,-0.0011177898850291967,-0.000271740835160017,-0.001422373577952385
1783246411969753900,3.17075390625,-0.001029075589030981,-0.0008387654088437557,-0.00003832671791315079
1783246411979764700,3.1807646484375,-0.00012360070832073689,0.00010319461580365896,-0.0005477895028889179
1783246411989777000,3.19077685546875,0.0005472409538924694,-0.000749622005969286,-0.0012512465473264456
1783246411999787800,3.200787841796875,-0.000302307540550828,0.0002133770612999797,0.000844394788146019
1783246412009799700,3.210799560546875,0.00038354028947651386,-0.0005667777732014656,-0.0009995719883590937
1783246412019810600,3.220810546875,0.0004232213832437992,-0.0006975389551371336,0.0002132314257323742
1783246412029822700,3.23082275390625,0.002315976656973362,0.000797432498075068,0.000496662687510252
1783246412039834600,3.240834716796875,-0.002078505465760827,-0.0014524059370160103,0.0008716359734535217
1783246412049845800,3.250845703125,0.0000360230915248394,0.000463549280539155,-0.0025258183013647795
1783246412059858000,3.26085791015625,0.0000935473944991827,0.0003152112476527691,-0.0006506866775453091
1783246412069868800,3.270868896484375,0.00019206618890166283,-0.0010340253356844187,0.0005870810709893703
1783246412079880700,3.280880615234375,0.0012823642464354634,-0.0007503987289965153,0.0004296884872019291
1783246412089891600,3.2908916015625,0.00027213734574615955,-0.00008096056990325451,0.0010758144780993462
1783246412099903700,3.30090380859375,-0.0002610275987535715,0.00010040064807981253,0.0011099032126367092
1783246412109915600,3.31091552734375,0.00022153439931571484,0.0008661779575049877,-0.00005836831405758858
1783246412119926800,3.3209267578125,0.0004210053011775017,0.0013681838754564524,-0.0005752877332270145
1783246412129939000,3.33093896484375,0.0008370201103389263,0.0002762075746431947,-0.0005896049551665783
1783246412139949800,3.34094970703125,0.0005075871013104916,0.0004831352271139622,0.00119125097990036
1783246412149961700,3.350961669921875,-0.000011803116649389267,-0.0008878165390342474,0.000620510894805193
1783246412159972900,3.360972900390625,0.0011802277294918895,-0.0007847521919757128,0.00011211354285478592
1783246412169984800,3.37098486328125,0.001732812961563468,-0.001941857161000371,-0.0011040016543120146
1783246412179996700,3.38099658203125,-0.000908243702724576,0.00006510084494948387,-0.00019213510677218437
1783246412190007800,3.3910078125,-0.0013740533031523228,0.00024541979655623436,-0.00019905297085642815
1783246412200019700,3.401019775390625,0.000693092355504632,0.0013261305866762996,-0.0006342134438455105
1783246412210030800,3.41103076171875,0.0006355240475386381,0.0013442316558212042,-0.0009009491186589003
1783246412220042800,3.421042724609375,-0.0016686429735273123,-0.0011894998606294394,-0.0005566026084125042
1783246412230054000,3.431053955078125,0.00004755845293402672,-0.0005056578665971756,-0.000293610617518425
1783246412240065800,3.441065673828125,-0.0001801417674869299,0.00033163989428430796,0.0006595347076654434
1783246412250077700,3.45107763671875,0.0005154423415660858,-0.001016463153064251,0.0017054295167326927
1783246412260088600,3.461088623046875,0.0014494128990918398,0.0008251126855611801,0.0010007568635046482
1783246412270100700,3.471100830078125,-0.001020999625325203,0.000017680227756500244,-0.0007954142056405544
1783246412280111900,3.48111181640625,0.0002567849587649107,-0.00019191065803170204,0.00028902478516101837
1783246412290123800,3.491123779296875,0.00007488369010388851,-0.0007166049908846617,-0.00042245863005518913
1783246412300135000,3.501135009765625,3.150198608636856e-7,-0.0009520284365862608,0.000040664803236722946
1783246412310146800,3.511146728515625,0.0021526487544178963,0.0005103331059217453,-0.0014574720989912748
1783246412320158700,3.52115869140625,-0.000059905461966991425,0.00011432101018726826,0.001124995294958353
1783246412330169600,3.531169677734375,0.0011988094775006175,0.0008021541871130466,-0.000661761499941349
1783246412340181800,3.541181640625,-0.00034049758687615395,0.00014675024431198835,-0.0006593642756342888
1783246412350193000,3.55119287109375,-0.0004939604550600052,-0.0011574630625545979,-0.001291495282202959
1783246412360204800,3.561204833984375,0.00002029608003795147,0.00042951456271111965,-0.0004163803532719612
1783246412370216000,3.5712158203125,-0.0009856615215539932,0.0001026886748149991,-0.0012978606391698122
1783246412380227800,3.581227783203125,0.0003411250654608011,0.0003724668640643358,0.0007951175794005394
1783246412390239700,3.59123974609375,-0.00008765188977122307,-0.00008036359213292599,-0.00008220411837100983
1783246412400250600,3.601250732421875,-0.0004525049589574337,-0.00043642823584377766,0.0022131744772195816
1783246412410262800,3.6112626953125,-0.00006839493289589882,-0.0017098532989621162,0.0001107589341700077
1783246412420273700,3.621273681640625,-0.0017640292644500732,0.00022733001969754696,0.0006734849885106087
1783246412430285600,3.63128564453125,0.0004162804689258337,0.0008583609014749527,0.0007038768380880356
1783246412440297000,3.641296875,-0.000317153986543417,-0.003180322702974081,0.00109056755900383
1783246412450308900,3.651308837890625,0.00024151336401700974,0.0015580251347273588,0.0002283337526023388
1783246412460320800,3.66132080078125,-0.00041335797868669033,-0.002331255469471216,0.0009649642743170261
1783246412470332000,3.671331787109375,-0.0013284252490848303,0.0018011063802987337,0.0012621195055544376
1783246412480343800,3.68134375,-0.001432555029168725,-0.0007083902601152658,0.0013883532956242561
1783246412490354700,3.691354736328125,0.000456405570730567,0.0010922434739768505,-0.0010375003330409527
1783246412500366600,3.70136669921875,0.0002851644530892372,0.000781452632509172,0.0010189926251769066
1783246412510378000,3.7113779296875,0.0003150703851133585,0.0008396730991080403,0.0017844047397375107
1783246412520390000,3.721389892578125,0.0002588776405900717,-0.0024059214629232883,0.0005311211571097374
1783246412530401800,3.73140185546875,0.0004996892530471087,-0.0004677502438426018,0.0014381632208824158
1783246412540413000,3.741412841796875,-0.00042336247861385345,-0.0007377949077636003,0.0005891476757824421
1783246412550424800,3.7514248046875,0.000663877697661519,-0.0009737776126712561,0.0004643350839614868
1783246412560435700,3.761435791015625,-0.0006141732446849346,-0.0014414286706596613,0.0001383638009428978
1783246412570447600,3.771447509765625,0.0013847048394382,0.0014056782238185406,-0.000015232712030410767
1783246412580458800,3.781458740234375,-0.0001410201657563448,-0.00021378998644649982,-0.0002141711302101612
1783246412590471000,3.791470947265625,0.00008525466546416283,-0.00045370287261903286,0.0007516290061175823
1783246412600482800,3.80148291015625,-0.00029291422106325626,-0.0007836685981601477,-0.0007061853539198637
1783246412610494000,3.811493896484375,-0.0009818393737077713,0.00023803964722901583,0.0015496122650802135
1783246412620505900,3.821505859375,0.0009830407798290253,-0.0005449296440929174,0.00025744643062353134
1783246412630517000,3.83151708984375,0.0003434251993894577,-0.0015693360473960638,0.0010492620058357716
1783246412640529000,3.84152880859375,0.0007889720145612955,0.001863744924776256,0.00006788689643144608
1783246412650539800,3.851539794921875,-0.0007744801696389914,0.00023837247863411903,0.0004425905644893646
1783246412660552000,3.861552001953125,-0.0005547695327550173,0.001145711401477456,-0.0006274674087762833
1783246412670563800,3.871563720703125,0.0007041397038847208,-0.0002575733233243227,-0.0007878290489315987
1783246412680575000,3.881574951171875,-0.000525974202901125,-0.0004940619692206383,-0.0006184522062540054
1783246412690587000,3.8915869140625,-0.001520730322226882,-0.0009208051487803459,-0.0016521154902875423
1783246412700598000,3.901597900390625,0.00008968333713710308,-0.001162620261311531,-0.0002403738908469677
1783246412710610000,3.91160986328125,0.00018105236813426018,-0.0025058414321392775,0.0007035578601062298
1783246412720621800,3.921621826171875,0.00040848623029887676,-0.002346850698813796,-0.0006956672295928001
1783246412730633000,3.931633056640625,0.0007723853923380375,0.0024089280050247908,0.0013535437174141407
1783246412740644900,3.941644775390625,-0.0011831738520413637,0.0003961109323427081,0.0004187743179500103
1783246412750656000,3.951656005859375,-0.00008891243487596512,-0.000901377759873867,0.0003616637550294399
1783246412760668000,3.96166796875,0.0007750170771032572,-0.0010760810691863298,0.00022823968902230263
1783246412770679000,3.971678955078125,0.00008269259706139565,0.00021941959857940674,0.00033436063677072525
1783246412780691000,3.98169091796875,0.000008656643331050873,-0.001823224825784564,-0.0008398271165788174
1783246412790702800,3.991702880859375,-0.0006110037211328745,-0.0005512600764632225,0.0006907181814312935
1783246412800714000,4.0017138671875,0.002073728945106268,0.0007342478493228555,0.0012409272603690624
1783246412810726000,4.011725830078125,-0.0002696998417377472,0.00011387444101274014,0.0008610747754573822
1783246412820736800,4.02173681640625,0.0020203525200486183,0.0005189412040635943,-0.0011831677984446287
1783246412830749000,4.0317490234375,0.0010723420418798923,-0.0008915900252759457,-0.0008616133127361536
1783246412840760000,4.041760009765625,-0.0007244925945997238,-0.0002822587266564369,0.0005269590765237808
1783246412850772000,4.05177197265625,-0.0011148543562740088,-0.00000811135396361351,-0.000172516331076622
1783246412860782800,4.061782958984375,-0.0014125958550721407,-0.0003258264623582363,-0.000872395234182477
1783246412870795000,4.071794921875,0.00028322963044047356,-0.0014066242147237062,-0.0006338721141219139
1783246412880807000,4.081806884765625,-0.00037563638761639595,0.0002575850812718272,0.0004463060759007931
1783246412890817800,4.09181787109375,-0.001132340170443058,0.00005479517858475447,0.0016286862082779408
1783246412900830000,4.101829833984375,0.0004093637689948082,-0.0014192643575370312,-0.0012973288539797068
1783246412910841000,4.111841064453125,0.0007502075750380754,-0.00013623619452118874,0.00016305595636367798
1783246412920853000,4.12185302734375,0.0015512864338234067,0.0010568599682301283,0.00040300656110048294
1783246412930863900,4.13186376953125,-0.0008011437021195889,0.0010735162068158388,-0.0005365088582038879
1783246412940876000,4.1418759765625,0.001498495927080512,-0.0004154571797698736,-0.001414020312950015
1783246412950888000,4.151887939453125,0.0015434131491929293,-0.00001560593955218792,-0.00116572598926723
1783246412960898800,4.16189892578125,-0.00024117110297083855,-0.000052623916417360306,-0.0007433486171066761
1783246412970911000,4.171910888671875,-0.00021940609440207481,0.00037912128027528524,0.00016613677144050598
1783246412980921900,4.181921875,0.0005923255812376738,-0.0009007940534502268,-0.0002570399083197117
1783246412990934000,4.19193408203125,0.0014908438315615058,-0.0009568040259182453,0.000985933467745781
1783246413000946000,4.20194580078125,-0.0002620487939566374,0.0005681220209226012,0.0007960502989590168
1783246413010957000,4.21195703125,-0.00042975228279829025,-0.0016522067598998547,0.0013266419991850853
1783246413020969000,4.221968994140625,-0.0011328267864882946,0.00046740309335291386,-0.000495492946356535
1783246413030979800,4.231979736328125,-0.0007221444975584745,-0.00007875426672399044,-0.0003876020200550556
1783246413040992000,4.241991943359375,0.0012142398627474904,0.0002336343750357628,-0.0017141224816441536
1783246413051003000,4.2520029296875,0.0009316036012023687,-0.00003749039024114609,0.0015615569427609444
1783246413061014800,4.262014892578125,-0.000011954223737120628,-0.0003831686917692423,-0.0003370107151567936
1783246413071026700,4.272026611328125,-0.0011018980294466019,0.0004398359451442957,0.0010281167924404144
1783246413081038000,4.2820380859375,0.0005961335264146328,-0.0014539379626512527,-0.0002153133973479271
1783246413091050000,4.292050048828125,0.0012772622285410762,-0.001000299584120512,0.0007482324726879597
1783246413101060900,4.302060791015625,0.0005163971800357103,-0.0000817752443253994,0.0010925792157649994
1783246413111073000,4.312072998046875,-0.0008378415368497372,0.0005101260030642152,-0.00092724384739995
1783246413121084000,4.322083984375,-0.000601619016379118,0.0019682066049426794,-0.0006076646968722343
1783246413131095800,4.332095703125,-0.00028310599736869335,-0.000027963658794760704,0.0013568857684731483
1783246413141107700,4.342107666015625,0.0002468631137162447,-0.0010884343646466732,-0.0016543504316359758
1783246413151119000,4.352119140625,-0.0008577387779951096,0.0008381936931982636,0.0004987102001905441
1783246413161131000,4.362131103515625,-0.00007876427844166756,0.0005809323629364371,0.0000707404688000679
1783246413171142000,4.372141845703125,-0.00005293055437505245,0.0003551779082044959,-0.00033337995409965515
1783246413181154000,4.382154052734375,0.0010626676958054304,-0.00018278067000210285,-0.0005887770093977451
1783246413191165000,4.3921650390625,0.000512158963829279,0.00018541712779551744,0.0001940736547112465
1783246413201176800,4.4021767578125,-0.000586128793656826,-0.000550680560991168,0.0008931532502174377
1783246413211187700,4.412187744140625,-0.0009225120302289724,-0.0006014399696141481,-0.0016009151004254818
1783246413221200000,4.422199951171875,0.0009741911198943853,-0.00031994376331567764,-0.0000054151751101017
1783246413231211800,4.432211669921875,0.00018124934285879135,0.0009550426620990038,0.0018301070667803288
1783246413241223000,4.442222900390625,0.000014002667739987373,-0.0003648200072348118,0.000949932262301445
1783246413251235000,4.452235107421875,0.0009446947369724512,0.001254091039299965,0.00010385876521468163
1783246413261246000,4.462245849609375,-0.00017143599689006805,0.0005635333945974708,0.00035339733585715294
1783246413271257900,4.4722578125,-0.001588036771863699,-0.000011281110346317291,-0.0001968066208064556
1783246413281270000,4.48227001953125,-0.0008229105733335018,-0.0006613587029278278,-0.000337155070155859
1783246413291281000,4.492281005859375,0.0007932630833238363,0.0003060146700590849,-0.00115502392873168
1783246413301292800,4.502292724609375,-0.001595858484506607,0.001492985524237156,0.000013571232557296753
1783246413311304000,4.512303955078125,-0.0010050898417830467,-0.000869471812620759,0.0005683987401425838
1783246413321316000,4.522316162109375,0.0005725666414946318,0.0007430721307173371,0.0004520183429121971
1783246413331327000,4.532326904296875,0.0009498626459389925,-0.0009012140799313784,0.0003894534893333912
1783246413341339000,4.5423388671875,-0.0008200742304325104,-0.002756105735898018,0.000011284835636615753
1783246413351351000,4.55235107421875,-0.000694334739819169,0.0007711147191002965,0.00028525758534669876
1783246413361362000,4.56236181640625,-0.0006655727047473192,-0.0005383614916354418,-0.0007986489217728376
1783246413371373800,4.572373779296875,0.0007010416593402624,-0.0011933345813304186,0.0009847339242696762
1783246413381385000,4.582385009765625,-0.0015759612433612347,-0.0008388678543269634,-0.00015296880155801773
1783246413391397000,4.592397216796875,-0.0006336178630590439,0.0019070430425927043,0.0006570690311491489
1783246413401408000,4.602407958984375,0.000992774497717619,0.0008218049770221114,0.0016397754661738873
1783246413411420000,4.612419921875,0.0005040166433900595,-0.0009394392836838961,-0.0011708957608789206
1783246413421432000,4.62243212890625,-0.00016789906658232212,0.0011564684100449085,0.00067494111135602
1783246413431443000,4.63244287109375,0.0005069300532341003,0.00016265083104372025,0.0013324301689863205
1783246413441454800,4.642454833984375,-0.00016152323223650455,0.00022603408433496952,-0.0005392394959926605
1783246413451465700,4.6524658203125,0.00014431262388825417,-0.0010186219587922096,-0.0005871220491826534
1783246413461478000,4.662477783203125,-0.0005845946725457907,-0.0003323254641145468,0.0005250140093266964
1783246413471489000,4.672489013671875,-0.000460674287751317,0.0009811297059059143,-0.00033877603709697723
1783246413481501000,4.6825009765625,0.0001883378718048334,-0.000266028568148613,0.0015621883794665337
1783246413491513000,4.69251318359375,0.0012484875041991472,-0.001636974047869444,-0.00009214412420988083
1783246413501524000,4.70252392578125,0.001191762275993824,-0.0017546857707202435,-0.0010157281067222357
1783246413511535900,4.712535888671875,-0.0009776013903319836,0.001791841466911137,0.0011952677741646767
1783246413521546800,4.722546630859375,-0.00009716046042740345,0.0011486881412565708,-0.000029253773391246796
1783246413531559000,4.732558837890625,0.00003294879570603371,-0.00044368067756295204,0.0003024931065738201
1783246413541570000,4.742570068359375,-0.0003601335920393467,0.00034727819729596376,0.00043724896386265755
1783246413551582000,4.75258203125,0.001262019737623632,0.0015589655376970768,-0.0004203864373266697
1783246413561592800,4.7625927734375,0.000661743339151144,-0.0007031236309558153,0.001542629674077034
1783246413571605000,4.77260498046875,0.000650196336209774,-0.000908377580344677,-0.0023143254220485687
1783246413581617000,4.782616943359375,-0.000022518215700984,0.0023982031270861626,-0.000363027211278677
1783246413591628500,4.792628662109375,-0.0010234084911644459,0.001533562783151865,-0.0011703278869390488
1783246413601640400,4.802640380859375,0.0007478601764887571,0.00017721473705023527,-0.0007602011319249868
1783246413611651600,4.812651611328125,0.0015665639657527208,-0.0028581037186086178,-0.00019372254610061646
1783246413621663500,4.82266357421875,-0.00018526334315538406,0.0023276035208255053,0.002097128424793482
1783246413631674600,4.832674560546875,-0.00030904519371688366,0.0007461658678948879,0.0004039425402879715
1783246413641686500,4.8426865234375,-0.0006422067526727915,-0.0018778466619551182,-0.000006983056664466858
1783246413651698700,4.85269873046875,-0.0001527932472527027,0.0015741868410259485,0.00044232094660401344
1783246413661709600,4.86270947265625,-0.0004452082794159651,0.0005494025535881519,-0.00015822192654013634
1783246413671721500,4.872721435546875,-0.0007987925782799721,0.0005387553246691823,-0.00011133728548884392
1783246413681732600,4.882732666015625,-0.0005199597217142582,-0.0031912680715322495,0.002030376810580492
1783246413691744500,4.89274462890625,0.000055029988288879395,0.001042093033902347,0.00023003900423645973
1783246413701756400,4.90275634765625,0.0000805961899459362,-0.0002804326359182596,-0.0005305595695972443
1783246413711767600,4.912767578125,-0.00009541213512420654,0.0014536732342094183,0.0007556984201073647
1783246413721779700,4.92277978515625,0.001001544063910842,-0.0024686302058398724,0.0006150836125016212
1783246413731790600,4.93279052734375,0.00005618063732981682,0.0007416671141982079,-0.00042741699144244194
1783246413741802500,4.942802490234375,0.0002521893475204706,-0.00023038662038743496,0.00021413853392004967
1783246413751813600,4.952813720703125,0.001542598707601428,-0.00010580383241176605,0.00030324049293994904
1783246413761825500,4.962825439453125,0.000011281110346317291,-0.0012720020022243261,-0.0008986438624560833
1783246413771837400,4.97283740234375,0.00044717174023389816,-0.0007233612705022097,0.0005203182809054852
1783246413781848300,4.982848388671875,-0.00014564814046025276,0.0022527212277054787,0.0009671966545283794
1783246413791860500,4.992860595703125,0.0004730483051389456,-0.000008887611329555511,-0.0009238801430910826
1783246413801871600,5.00287158203125,0.0008432276081293821,-0.0011788143310695887,0.0004471149295568466
1783246413811883500,5.012883544921875,-0.00006700679659843445,-0.00004919758066534996,0.0004206267185509205
1783246413821894700,5.022894775390625,0.0017292953561991453,0.0017947752494364977,0.0008749621920287609
1783246413831906600,5.032906494140625,-0.0021115466952323914,-0.001591176027432084,0.0003973417915403843
1783246413841918500,5.04291845703125,0.0002493457868695259,-0.0008636005222797394,-0.0010117366909980774
1783246413851929300,5.052929443359375,-0.000493266386911273,0.0011211085366085172,-0.0015054442919790745
1783246413861941500,5.06294140625,-0.00021230289712548256,0.0017016776837408543,-0.0001309867948293686
1783246413871952600,5.07295263671875,-0.0007518930360674858,-0.0013673377688974142,-0.0008063884451985359
1783246413881964500,5.082964599609375,-0.0010506995022296906,0.0004934128373861313,-0.0005701659247279167
1783246413891975700,5.0929755859375,-0.0006607973482459784,-0.00006448780186474323,0.00006832834333181381
1783246413901987600,5.102987548828125,0.00016877730377018452,0.00037093914579600096,0.0005623446777462959
1783246413911999500,5.11299951171875,0.0009031323716044426,0.000385912018828094,0.0005438872613012791
1783246413922010600,5.1230107421875,0.0007433427963405848,-0.0014487395528703928,0.0006011449731886387
1783246413932022500,5.1330224609375,0.0005536328535526991,0.0013605101266875863,-0.001443631248548627
1783246413942033400,5.143033447265625,-0.000058361561968922615,-0.0013647025916725397,0.00036785099655389786
1783246413952045600,5.153045654296875,-0.0005606987979263067,0.00006650714203715324,-0.0014081276021897793
1783246413962056700,5.163056640625,0.0005093591753393412,-0.0011122077703475952,0.0015559704042971134
1783246413972068600,5.173068603515625,-0.0009947174694389105,-0.00007511815056204796,-0.0005441079847514629
1783246413982080500,5.18308056640625,0.0000732101034373045,-0.0026946032885462046,0.0004662955179810524
1783246413992091600,5.193091552734375,-0.0008575697429478168,-0.00035362783819437027,0.00007288902997970581
1783246414002103600,5.203103515625,0.00048572872765362263,-0.0015717577189207077,0.0005562528967857361
1783246414012114400,5.213114501953125,0.000018320279195904732,0.0008676646975800395,0.0004428001120686531
1783246414022126300,5.223126220703125,-0.0006895479746162891,0.00003702472895383835,0.0010968721471726894
1783246414032137700,5.2331376953125,0.000049408525228500366,-0.0010022036731243134,0.000021405518054962158
1783246414042149600,5.243149658203125,-0.0012355665676295757,-0.0002519912086427212,-0.0017410744912922382
1783246414052161500,5.25316162109375,-0.0011242420878261328,0.0003667002310976386,-0.0020681775640696287
1783246414062172700,5.263172607421875,-0.00016124313697218895,-0.0009225360117852688,-0.0008399276994168758
1783246414072184600,5.2731845703125,-0.0008690329268574715,-0.0005266871303319931,-0.0016035435255616903
1783246414082195500,5.283195556640625,0.0009467103518545628,0.0016706869937479496,-0.0012948832008987665
1783246414092207400,5.293207275390625,-0.0008112748619168997,0.000562674249522388,-0.000024085398763418198
1783246414102218800,5.30321875,-0.0003116659354418516,0.0011807938572019339,-0.0003580455668270588
1783246414112230700,5.313230712890625,0.0006027542985975742,-0.001506570726633072,-0.0007035885937511921
1783246414122242600,5.32324267578125,-0.0008619842119514942,0.0021515474654734135,0.00031427154317498207
1783246414132253700,5.333253662109375,-0.0005227539222687483,-0.0002765832468867302,-0.00023072632029652596
1783246414142265600,5.343265625,-0.0004995844792574644,0.0002730932319536805,0.0009581088088452816
1783246414152276500,5.3532763671875,0.00010600406676530838,-0.0002133364323526621,0.0008150008507072926
1783246414162288400,5.363288330078125,0.000735575333237648,-0.0005616778507828712,-0.000060912687331438065
1783246414172299500,5.373299560546875,0.0014788382686674595,0.0013156251516193151,-0.0010967941489070654
1783246414182311400,5.3833115234375,-0.0006961654871702194,-0.00009824708104133606,0.00005821883678436279
1783246414192323300,5.3933232421875,-0.00020118989050388336,-0.00042194221168756485,0.000372821930795908
1783246414202334700,5.403334716796875,0.0003159961197525263,0.0005375947803258896,0.0006953305564820766
1783246414212346600,5.4133466796875,0.0000718261580914259,-0.00033963099122047424,-0.0002592597156763077
1783246414222357500,5.423357421875,-0.001111682504415512,0.0007304270984604955,-0.0005002757534384727
1783246414232369400,5.433369384765625,-0.0007878486067056656,0.0006739835953339934,0.0004927343688905239
1783246414242380500,5.443380615234375,-0.00028317980468273163,-0.0008400233928114176,-0.0005629425868391991
1783246414252392400,5.453392333984375,-0.00011758645996451378,-0.0006464750040322542,-0.0012160134501755238
1783246414262403600,5.463403564453125,-0.0007423642091453075,0.0006883012829348445,0.0005999961867928505
1783246414272415700,5.473415771484375,0.00020199501886963844,0.0019490288104861975,0.0008854344487190247
1783246414282427600,5.483427734375,0.00098656234331429,-0.000185494776815176,0.0009040767326951027
1783246414292438500,5.4934384765625,0.00037445337511599064,-0.0003937298897653818,-0.0009541120380163193
1783246414302450700,5.50345068359375,-0.0004838835448026657,-0.0004163668490946293,0.0005923854187130928
1783246414312461600,5.513461669921875,-0.0005446765571832657,0.00011945271398872137,-0.0007914560846984386
1783246414322473500,5.523473388671875,0.00022204755805432796,-0.00024193827994167805,-0.0005805338732898235
1783246414332485400,5.5334853515625,0.0004757237620651722,0.0010550428414717317,-0.00042868033051490784
1783246414342496500,5.54349658203125,0.00019396119751036167,-0.001767108915373683,0.0004546903073787689
1783246414352508700,5.5535087890625,0.0007170981261879206,-0.00007027736864984035,-0.0009224163368344307
1783246414362519600,5.56351953125,0.00003985641524195671,0.00037367164622992277,-0.0006102938205003738
1783246414372531700,5.57353173828125,0.0014162790030241013,0.0006544438656419516,0.0002471921034157276
1783246414382542600,5.58354248046875,-0.00040452415123581886,0.00015376962255686522,0.0009201732464134693
1783246414392554500,5.593554443359375,0.00005713803693652153,-0.00021559488959610462,-0.00039288774132728577
1783246414402566400,5.60356640625,-0.0018859042320400476,0.0011338288895785809,-0.0004291064105927944
1783246414412577500,5.61357763671875,-0.00042338576167821884,0.0003380610141903162,-0.00013749301433563232
1783246414422589400,5.62358935546875,0.0008282999042421579,0.00019371765665709972,-0.0012885110918432474
1783246414432600600,5.6336005859375,0.0007255251985043287,0.0007425869116559625,0.0000713542103767395
1783246414442612700,5.64361279296875,-0.0003975299187004566,0.000012880656868219376,-0.0000772504135966301
1783246414452623600,5.65362353515625,0.0002891605254262686,-0.0006941007450222969,0.0021792715415358543
1783246414462635500,5.663635498046875,0.00034908181987702847,-0.00023150979541242123,0.0010234597139060497
1783246414472647400,5.6736474609375,-0.00031326361931860447,-0.00037413882091641426,0.00008418597280979156
1783246414482658600,5.683658447265625,-0.00044322595931589603,0.000052765943109989166,-0.00030889688059687614
1783246414492670500,5.69367041015625,0.001013800734654069,0.0009667093399912119,-0.0013378399889916182
1783246414502681600,5.703681640625,0.0005645253695547581,0.0016972143203020096,0.00029787328094244003
1783246414512693800,5.71369384765625,0.00041991029866039753,-0.0006907067727297544,-0.0003409944474697113
1783246414522704600,5.72370458984375,0.0007573328912258148,-0.00047445809468626976,0.0006196075119078159
1783246414532716500,5.733716552734375,-0.000242703128606081,0.0004630798939615488,-0.0006721471436321735
1783246414542728400,5.743728515625,0.0006228243000805378,0.0006023632595315576,0.00022560404613614082
1783246414552739600,5.753739501953125,-0.0003256534691900015,0.00010746670886874199,0.0008382005617022514
1783246414562751500,5.76375146484375,0.0011223070323467255,0.0005029462045058608,0.001213706098496914
1783246414572762400,5.773762451171875,-0.00045803352259099483,-0.0009316848590970039,-0.00042310403659939766
1783246414582774500,5.7837744140625,-0.0018599212635308504,0.0011538367252796888,-0.00035572610795497894
1783246414592785700,5.79378564453125,0.002100751269608736,0.0001531696179881692,0.0005728472024202347
1783246414602797600,5.803797607421875,0.0015726464334875345,-0.00030063302256166935,0.00046978285536170006
1783246414612808400,5.813808349609375,-0.0006868531927466393,-0.0010695240925997496,0.00007348926737904549
1783246414622820600,5.823820556640625,-0.00027912319637835026,0.00011185416951775551,0.0004239613190293312
1783246414632832500,5.83383251953125,-0.0005315651651471853,-0.0006168235559016466,0.000899589154869318
1783246414642843400,5.843843505859375,0.001298559014685452,0.0009818720864132047,-0.00013664690777659416
1783246414652855600,5.85385546875,-0.0017692639958113432,-0.001248078653588891,0.00042414385825395584
1783246414662866700,5.86386669921875,-0.0009210470598191023,0.0005607403581961989,-0.0001801270991563797
1783246414672878600,5.873878662109375,-0.0002348506823182106,-0.0011099101975560188,0.0014509554021060467
1783246414682889500,5.883889404296875,-0.0011576362885534763,-0.0008672962430864573,-0.0011086089070886374
1783246414692901600,5.893901611328125,-0.00012666266411542892,0.00040638295467942953,0.0003259144723415375
1783246414702913500,5.90391357421875,-0.00020788912661373615,-0.0009550249669700861,0.0010281899012625217
1783246414712924400,5.91392431640625,0.00020078616216778755,-0.0002962991129606962,0.0009664013050496578
1783246414722936600,5.9239365234375,-0.0002687291707843542,0.00009172363206744194,-0.0008458795491605997
1783246414732947700,5.93394775390625,0.0002492796629667282,0.0018356896471232176,0.0011071478947997093
1783246414742959600,5.943959716796875,0.00028816191479563713,-0.001212298171594739,0.0005100672133266926
1783246414752970500,5.953970458984375,-0.0019446189980953932,-0.00014716642908751965,0.0008012522011995316
1783246414762982700,5.963982666015625,0.0007379832677543163,0.0007745536277070642,-0.00036041857674717903
1783246414772994600,5.97399462890625,-0.000009136507287621498,0.0003559674369171262,-0.00016560731455683708
1783246414783005400,5.98400537109375,-0.0004690643399953842,-0.0002621521707624197,0.000394988339394331
1783246414793017600,5.994017578125,-0.0005536279641091824,0.00017262168694287539,-0.00004905089735984802
1783246414803028500,6.004028564453125,-0.0009677496273070574,-0.0007930404972285032,-0.0003041820600628853
1783246414813040400,6.014040283203125,-0.00033006398007273674,0.00020563439466059208,-0.0008191377855837345
1783246414823051500,6.024051513671875,0.0013229601318016648,0.00002906681038439274,-0.00100289611145854
1783246414833063700,6.034063720703125,-0.0008199822623282671,-0.0012666787952184677,0.0016142423264682293
1783246414843075600,6.04407568359375,-0.00016963831149041653,0.0003607789985835552,-0.00014157965779304504
1783246414853086500,6.05408642578125,-0.0007178024388849735,-0.0001539567019790411,0.00005721068009734154
1783246414863098600,6.0640986328125,0.00006490037776529789,0.001532623078674078,0.0018963897600769997
1783246414873109500,6.074109619140625,0.00044538872316479683,-0.0002490989863872528,0.000026700086891651154
1783246414883121400,6.084121337890625,-0.0004134806804358959,-0.00037107174284756184,-0.00015226425603032112
1783246414893132500,6.094132568359375,-0.0013894536532461643,-0.0016006652731448412,0.0010124132968485355
1783246414903144700,6.104144775390625,-0.0007953024469316006,0.0018039196729660034,-0.00012262631207704544
1783246414913156600,6.114156494140625,0.00006082281470298767,0.0005255574360489845,0.0012397030368447304
1783246414923167500,6.12416748046875,-0.0007546371780335903,-0.0005793881136924028,0.0008836383931338787
1783246414933179600,6.1341796875,-0.0006146859377622604,0.0004688226617872715,0.0010679843835532665
1783246414943190500,6.1441904296875,0.0012300857342779636,0.0003396592801436782,0.00011723581701517105
1783246414953202400,6.154202392578125,-0.0001930419821292162,0.00008212472312152386,-0.001148344948887825
1783246414963213600,6.164213623046875,0.000670354813337326,-0.0007985825650393963,0.0008543520234525204
1783246414973225500,6.1742255859375,0.0002982700243592262,0.00006263167597353458,0.0006243516691029072
1783246414983237600,6.184237548828125,-0.0006732512265443802,-0.00022019585594534874,0.0009380723349750042
1783246414993248500,6.19424853515625,0.00019616447389125824,-0.0008367537520825863,-0.0004899865016341209
1783246415003260700,6.2042607421875,-0.0003018465358763933,-0.0005062555428594351,0.0004953830502927303
1783246415013271600,6.214271484375,-0.0006276033818721771,-0.0006665189284831285,0.00012346357107162476
1783246415023283500,6.224283447265625,0.0003907894715666771,0.00032950344029814005,-0.0002131601795554161
1783246415033294300,6.23429443359375,0.0006542680785059929,0.00029884406831115484,0.0001672389917075634
1783246415043306500,6.244306396484375,0.0002164444886147976,0.00031002936884760857,-0.0012415731325745583
1783246415053318400,6.254318359375,0.0004305660258978605,0.0007049054838716984,-0.0006589586846530437
1783246415063329500,6.26432958984375,-0.00003362307325005531,-0.0012144346255809069,0.0005642310716211796
1783246415073341700,6.274341796875,0.0010305927135050297,-0.0019289359916001558,0.000008401460945606232
1783246415083352600,6.2843525390625,0.0007459006737917662,0.000182950752787292,0.0003167958930134773
1783246415093364500,6.294364501953125,0.00035464693792164326,0.00006578711327165365,-0.0007447842508554459
1783246415103375400,6.304375244140625,0.0006894061807543039,0.000024241860955953598,0.00047307927161455154
1783246415113387500,6.314387451171875,-0.000185070326551795,0.00030868209432810545,-0.0003589000552892685
1783246415123399400,6.3243994140625,0.00043118512257933617,-0.0005118378903716803,-0.0010068470146507025
1783246415133410600,6.33441064453125,-0.0008942058775573969,-0.000032803742215037346,0.000251618679612875
1783246415143422700,6.344422607421875,0.0006778582464903593,0.00027851981576532125,-0.0009768973104655743
1783246415153433600,6.35443359375,0.0007769479416310787,-0.000025484245270490646,0.00002124672755599022
1783246415163445500,6.364445556640625,0.00014631147496402264,0.0002901003463193774,0.000563998706638813
1783246415173456400,6.374456298828125,-5.653128027915955e-7,-0.000438690185546875,-0.00006654998287558556
1783246415183468500,6.384468505859375,0.0008433903567492962,0.0008726503001525998,-0.00008892035111784935
1783246415193480400,6.39448046875,-0.00021449662744998932,-0.00013960921205580235,-0.0014813311863690615
1783246415203491300,6.4044912109375,0.0012907220516353846,-0.00017529563046991825,0.00035545090213418007
1783246415213503500,6.41450341796875,-0.00036069448105990887,-0.0007674696389585733,-0.0006533986888825893
1783246415223514600,6.4245146484375,-0.00004803948104381561,0.0012988769449293613,0.0008243890479207039
1783246415233526500,6.434526611328125,0.0007201309781521559,-0.0008300221525132656,-0.00011204974725842476
1783246415243537400,6.444537353515625,-0.000821839552372694,-0.001009785570204258,-0.001084369607269764
1783246415253549600,6.454549560546875,0.0012170332483947277,0.00036287412513047457,0.000386260449886322
1783246415263561500,6.4645615234375,0.001013301545754075,0.000438507879152894,-0.0018318865913897753
1783246415273572400,6.474572265625,0.0010354537516832352,0.00009817990940064192,-0.0015157205052673817
1783246415283584500,6.48458447265625,0.00029749167151749134,-0.002040604827925563,0.0004848460666835308
1783246415293595600,6.494595703125,-0.0008218546863645315,0.00018269382417201996,-0.0002539246343076229
1783246415303607600,6.504607666015625,-0.0013976299669593573,-0.000885500106960535,0.0005407626740634441
1783246415313618700,6.51461865234375,0.0006648763082921505,0.0016777049750089645,-0.0009340564720332623
1783246415323630600,6.524630615234375,0.0014012404717504978,-0.0011566972825676203,-0.0003492264077067375
1783246415333642500,6.534642578125,-0.0009294876363128424,0.002145487582311034,-0.0009345815051347017
1783246415343653400,6.5446533203125,-0.0004652987699955702,0.00034758751280605793,-0.0006890380755066872
1783246415353665500,6.55466552734375,0.0009721149690449238,0.0002797625493258238,-0.0012168872635811567
1783246415363676700,6.5646767578125,-0.00007637147791683674,-0.000454737339168787,-0.0006403126753866673
1783246415373688600,6.5746884765625,0.000305352034047246,-0.00015680072829127312,-0.0006072702817618847
1783246415383699700,6.58469970703125,0.00016899826005101204,-0.000591162359341979,0.0005903532728552818
1783246415393711600,6.594711669921875,0.0005777725018560886,-0.0004893732257187366,-0.0012662033550441265
1783246415403723500,6.6047236328125,-0.0007234481163322926,-0.0004275878891348839,-0.001115468330681324
1783246415413734400,6.614734375,0.0006434947717934847,-0.00020789331756532192,0.0014175623655319214
1783246415423746600,6.62474658203125,0.002360967453569174,0.00035083782859146595,0.000001026783138513565
1783246415433757400,6.63475732421875,-0.00034143426455557346,-0.0009498100262135267,0.0002463310956954956
1783246415443769300,6.644769287109375,0.00027428846806287766,0.0006267813732847571,-0.0011960368137806654
1783246415453780700,6.65478076171875,-0.0001449817791581154,0.00046369817573577166,-0.00010017119348049164
1783246415463792600,6.664792724609375,-0.0009900026489049196,0.0007507869740948081,-0.0006258790381252766
1783246415473804500,6.674804443359375,-0.0007091572042554617,-0.0001568240113556385,-0.0005052536725997925
1783246415483815400,6.6848154296875,0.00017261551693081856,0.0006418578559532762,-0.00018913671374320984
1783246415493827600,6.69482763671875,-0.0000884451437741518,-0.00033213221468031406,-0.00007629580795764923
1783246415503838500,6.70483837890625,-0.0015009855851531029,0.0009933229302987456,0.00024141930043697357
1783246415513850400,6.714850341796875,-0.0011793689336627722,0.00004908430855721235,-0.000943048857152462
1783246415523861800,6.72486181640625,-0.0003844152670353651,-0.0010465402156114578,-0.0009859257843345404
1783246415533873700,6.734873779296875,0.0003187796100974083,-0.0012561238836497068,0.00018926197662949562
1783246415543885600,6.744885498046875,-0.00009374413639307022,0.0005673423875123262,-0.0007550949230790138
1783246415553896400,6.754896484375,0.00028225150890648365,0.0006515842396765947,0.0014021559618413448
1783246415563908600,6.76490869140625,-0.0002690230030566454,0.00005796563345938921,-0.0016540875658392906
1783246415573919500,6.77491943359375,0.0005909798201173544,-0.0013823648914694786,0.00030561909079551697
1783246415583931400,6.784931396484375,0.0007443777285516262,-0.0011783665977418423,-0.00008746329694986343
1783246415593942000,6.79494189453125,0.0008636198472231627,0.00004277646075934172,-0.000340435653924942
1783246415603954000,6.804953857421875,0.0008593588136136532,-0.0009404625743627548,-0.0004605441354215145
1783246415613966000,6.814966064453125,-0.00026310491375625134,-0.0006551984697580338,-0.0002682730555534363
1783246415623977000,6.82497705078125,-0.000734217930585146,0.0006460220320150256,0.0007794140838086605
1783246415633988900,6.83498876953125,0.0008231415413320065,0.0006036817794665694,0.00024747755378484726
1783246415643999700,6.844999755859375,-0.0002543732989579439,-0.0009667843114584684,-0.0011552092619240284
1783246415654012000,6.855011962890625,-0.0011948593892157078,-0.0007701942231506109,-0.001369959907606244
1783246415664023000,6.86502294921875,-0.0004837953019887209,-0.0007062784861773252,0.00003911880776286125
1783246415674035000,6.875034912109375,-0.0012407642789185047,-0.00041027553379535675,-0.00013479869812726974
1783246415684047000,6.885047119140625,-0.00004793447442352772,-0.0008805897086858749,-0.00021815532818436623
1783246415694058000,6.89505810546875,-0.0016137307975441217,-0.00039571942761540413,-0.00007595308125019073
1783246415704070000,6.90506982421875,0.0008970971684902906,-0.0009797506500035524,0.00012671342119574547
1783246415714080800,6.915080810546875,-0.0006421075668185949,-0.0008070715703070164,0.0007660314440727234
1783246415724093000,6.925093017578125,-0.0006016276311129332,0.0009644631063565612,-0.00016580848023295403
1783246415734103800,6.935103759765625,0.0006806987803429365,-0.0003487395588308573,0.00007356051355600357
1783246415744115700,6.94511572265625,0.0017611433286219835,0.00029334845021367073,0.001820860430598259
1783246415754128000,6.9551279296875,0.001370504149235785,0.0002198762958869338,0.0001477384939789772
1783246415764139000,6.965138916015625,0.0005758169572800398,-0.0006493793334811926,-0.0004466790705919266
1783246415774151000,6.97515087890625,0.00017980369739234447,-0.0009274417534470558,0.0025587077252566814
1783246415784161800,6.985161865234375,0.00010843086056411266,-0.0015884384047240019,-0.00015665125101804733
1783246415794174000,6.995174072265625,0.001305731013417244,-0.00020567607134580612,0.0006150896660983562
1783246415804184800,7.005184814453125,0.000508646946400404,-0.0008203336037695408,-0.0015567182563245296
1783246415814196700,7.01519677734375,-0.0005837222561240196,-0.00045968615449965,0.000014268327504396439
1783246415824209000,7.025208984375,0.00028047338128089905,0.0005083727883175015,-0.00006322981789708138
1783246415834220000,7.035219970703125,0.0010268124751746655,-0.00016629393212497234,0.00015158765017986298
1783246415844232000,7.04523193359375,-0.001443002838641405,-0.0002930604387074709,-0.0010668085888028145
1783246415854242800,7.055242919921875,-0.00036084745079278946,0.001213155803270638,-0.0007594753988087177
1783246415864255000,7.0652548828125,0.0002815069165080786,0.0013652222696691751,-0.0019083633087575436
1783246415874265900,7.075265869140625,-0.00007688486948609352,0.000979115255177021,-0.00047048600390553474
1783246415884277800,7.08527783203125,0.0004347083158791065,0.0001628564205020666,0.0001337849535048008
1783246415894290000,7.0952900390625,-0.00011805491521954536,-0.0010117588099092245,0.0005493536591529846
1783246415904301000,7.105301025390625,0.00013228226453065872,0.000447387108579278,-0.000813119113445282
1783246415914313000,7.11531298828125,0.0003889193758368492,0.0011036721989512444,-0.0009713242761790752
1783246415924323800,7.12532373046875,-0.0004936521872878075,0.0009167183889076114,0.00016904156655073166
1783246415934336000,7.1353359375,0.00034532533027231693,-0.0010352754034101963,0.0011428846046328545
1783246415944347000,7.145346923828125,0.000848396448418498,-0.0008568437770009041,0.00014153588563203812
1783246415954358800,7.15535888671875,0.0013724140590056777,0.00004999409429728985,0.0005730451084673405
1783246415964371000,7.165370849609375,0.00031780218705534935,-0.0017809290438890457,0.0005855616182088852
1783246415974381800,7.1753818359375,-0.0009579963516443968,-0.0015690831933170557,0.0000046514905989170074
1783246415984393700,7.185393798828125,0.00042285281233489513,-0.000024449778720736504,0.0008427482098340988
1783246415994405000,7.195405029296875,0.00022269412875175476,0.0001961959060281515,0.00029945699498057365
1783246416004417000,7.2054169921875,-0.0012718718498945236,-0.002043256303295493,0.000007308553904294968
1783246416014428000,7.215427978515625,-0.0005310834385454655,-0.0005832775495946407,0.0002238098531961441
1783246416024439800,7.225439697265625,0.0009544277563691139,-0.0015316291246563196,-0.00030216434970498085
1783246416034452000,7.235451904296875,0.0004673951771110296,-0.0011115467641502619,-0.0005570836365222931
1783246416044462800,7.245462890625,-0.0003307540901005268,-0.0004092713352292776,0.0005337470211088657
1783246416054474800,7.255474853515625,-0.00010209297761321068,0.00020930985920131207,-0.00021939491853117943
1783246416064486100,7.265486083984375,-0.0005082250572741032,-0.0004447624087333679,-0.0005317837931215763
1783246416074498000,7.275498046875,0.0004881187342107296,0.0012245133984833956,0.0008249296806752682
1783246416084509000,7.285509033203125,0.00006254552863538265,-0.0003017440903931856,-0.0006123785860836506
1783246416094520800,7.295520751953125,-0.0013190999161452055,-0.0005012019537389278,0.00025558145716786385
1783246416104533000,7.305532958984375,0.00041302014142274857,0.0006884320173412561,0.0003812825307250023
1783246416114543900,7.3155439453125,0.001837227144278586,0.001268031308427453,0.0020980634726583958
1783246416124555800,7.3255556640625,-0.000789981335401535,-0.0005106941098347306,-0.00042528146877884865
1783246416134567000,7.33556689453125,0.0004269448108971119,-0.0003046963829547167,0.0015975027345120907
1783246416144578800,7.345578857421875,0.0003297396469861269,0.0003070317907258868,-0.0010057373438030481
1783246416154590000,7.35558984375,0.0002312278375029564,0.000806751661002636,-0.0004384075291454792
1783246416164601900,7.365601806640625,0.00010765716433525085,0.000004074885509908199,-0.0007201698608696461
1783246416174614000,7.375614013671875,-0.003758565988391638,0.07523732632398605,0.03470359742641449
1783246416184625000,7.385625,-0.0030983686447143555,0.04992877319455147,0.0004462907090783119
1783246416194636800,7.39563671875,0.002583365421742201,-0.060348231345415115,-0.0019750474020838737
1783246416204648000,7.40564794921875,-0.002940563252195716,0.05255195498466492,0.010989752598106861
1783246416214659800,7.415659912109375,-0.0018662204965949059,0.03338924050331116,0.00408570934087038
1783246416224671000,7.4256708984375,0.0012765757273882627,-0.025398705154657364,-0.0016920184716582298
1783246416234683000,7.435682861328125,-0.0007602018304169178,0.01175419706851244,0.0012180428020656109
1783246416244695000,7.445695068359375,0.00022729835473001003,-0.006835732609033585,-0.004641976673156023
1783246416254706000,7.455705810546875,0.001585725462064147,-0.03143897280097008,-0.011209683492779732
1783246416264717800,7.4657177734375,0.003429964417591691,-0.023309409618377686,-0.010198481380939484
1783246416274729000,7.47572900390625,-0.00019807671196758747,-0.03266267850995064,-0.007321689277887344
1783246416284740900,7.485740966796875,-0.0006002141162753105,-0.052143968641757965,-0.011402184143662453
1783246416294752000,7.495751953125,-0.0015618044417351484,0.02712927758693695,0.005300578661262989
1783246416304764200,7.50576416015625,0.0009639374911785126,-0.003307722043246031,-0.00009871460497379303
