time,seconds_elapsed,z,y,x
1783246401062425900,0.06342578125,-0.0002787213306874037,0.0014826515689492226,0.00019688578322529793
1783246401072438000,0.07343798828125,0.000490932259708643,-0.0010675915982574224,0.0006765211001038551
1783246401082450000,0.083449951171875,-0.000210226746276021,0.0008536303648725152,0.0007300502620637417
1783246401092460800,0.093460693359375,0.000001760898157954216,0.0003849139902740717,0.0014312602579593658
1783246401102473000,0.103472900390625,-0.0006143911741673946,-0.0009436570107936859,-0.0005009290762245655
1783246401112484000,0.113484130859375,0.00008788448758423328,0.00047420989722013474,-0.0002929363399744034
1783246401122496000,0.12349609375,-0.0013149385340511799,-0.00037160003557801247,-0.0002977941185235977
1783246401132508200,0.133508056640625,-0.0000749705359339714,0.000012161443009972572,0.00006945570930838585
1783246401142519000,0.14351904296875,0.0011426815763115883,0.0002585208276286721,0.0009070178493857384
1783246401152531000,0.153531005859375,-0.0004871729761362076,-0.002151906257495284,-0.00030312221497297287
1783246401162541800,0.163541748046875,0.00009113550186157227,-0.0008523352444171906,-0.00007448811084032059
1783246401172554000,0.173553955078125,-0.00046972627751529217,-0.000758592039346695,0.00010687345638871193
1783246401182564900,0.18356494140625,-0.0008202225435525179,0.001231453032232821,-0.000982295023277402
1783246401192576800,0.19357666015625,-0.0008236845023930073,-0.00048815016634762287,0.0011194716207683086
1783246401202589000,0.2035888671875,-0.00032088602893054485,-0.000384774524718523,-0.00197012722492218
1783246401212600000,0.21360009765625,-0.00021649012342095375,0.0011769032571464777,0.0016507068648934364
1783246401222612000,0.223612060546875,0.0016457599122077227,-0.00034228828735649586,-0.0007611862383782864
1783246401232622800,0.233622802734375,-0.0014624155592173338,-0.0017582911532372236,-0.001215255120769143
1783246401242635000,0.243635009765625,0.0001568654552102089,0.0010236200178042054,-0.0013640595134347677
1783246401252646000,0.25364599609375,-0.0013100039213895798,-0.000381463672965765,-0.00034779729321599007
1783246401262657800,0.26365771484375,-0.0002454959321767092,-0.00018099695444107056,-0.0017462191171944141
1783246401272670000,0.273669921875,-0.0017035764176398516,0.00029544252902269363,0.0012410487979650497
1783246401282681000,0.28368115234375,0.000127855921164155,-0.0008620752487331629,0.00029655545949935913
1783246401292693000,0.29369287109375,0.003013390814885497,-0.00017418060451745987,-0.0006403448060154915
1783246401302703900,0.303703857421875,-0.0005408665165305138,0.0012064306065440178,0.0002854391932487488
1783246401312716000,0.313716064453125,0.0006024285685271025,-0.0006588473916053772,0.0004180646501481533
1783246401322728000,0.32372802734375,0.00020266743376851082,0.00025399343576282263,0.0001719854772090912
1783246401332738800,0.33373876953125,0.00009773881174623966,0.0001525270054116845,-0.000012837816029787064
1783246401342751000,0.3437509765625,-0.0004237464163452387,0.0008467509178444743,0.00032624928280711174
1783246401352761900,0.353761962890625,0.001675357110798359,0.00007576565258204937,-0.0006167762912809849
1783246401362774000,0.36377392578125,0.0012131128460168839,-0.00010535586625337601,0.0003066081553697586
1783246401372785000,0.373784912109375,0.0012495981063693762,-0.00026541203260421753,0.00031033623963594437
1783246401382797000,0.383797119140625,-0.0006814165972173214,0.0001432681456208229,0.001358091365545988
1783246401392809000,0.39380908203125,-0.0003871372900903225,0.0012854979140684009,0.00020307861268520355
1783246401402819800,0.40381982421875,0.00003445800393819809,-0.0003180361818522215,-0.0010887556709349155
1783246401412832000,0.41383203125,0.0005865313578397036,-0.0003681036178022623,0.0006433641538023949
1783246401422843000,0.4238427734375,-0.0007760783191770315,-0.0001528623979538679,-0.0002691582776606083
1783246401432854800,0.433854736328125,0.00021834601648151875,0.00014860753435641527,0.00045628659427165985
1783246401442867000,0.443866943359375,0.0006786608137190342,-0.00007426668889820576,0.0007742620073258877
1783246401452878000,0.453878173828125,-0.00037168990820646286,-0.00024817115627229214,0.0007454999722540379
1783246401462890000,0.463889892578125,0.0005793899763375521,0.00008420820813626051,0.00021233316510915756
1783246401472900900,0.47390087890625,0.00044170464389026165,-0.0012095554266124964,-0.00013920385390520096
1783246401482913000,0.4839130859375,-0.0005790505092591047,0.0007850630208849907,-0.0009409498888999224
1783246401492924000,0.493923828125,0.00029073795303702354,0.0014244879130274057,-0.0009635866153985262
1783246401502935800,0.503935791015625,0.0017418601782992482,-0.0021681550424546003,-0.0005657360889017582
1783246401512948000,0.513947998046875,0.0012728774454444647,-0.00011379248462617397,-0.0006517563015222549
1783246401522959000,0.523958984375,0.001247321953997016,0.0013127700658515096,0.0002126363106071949
1783246401532971000,0.533970947265625,-0.001024354249238968,-0.000748250400647521,-0.0013583623804152012
1783246401542982000,0.54398193359375,0.0008200188167393208,-0.0005370276048779488,0.0009812433272600174
1783246401552994000,0.553994140625,-0.001227951841428876,0.001146356575191021,0.0004834984429180622
1783246401563005000,0.5640048828125,0.001825924962759018,-0.002739167073741555,0.0020431820303201675
1783246401573017000,0.57401708984375,-0.0006654621101915836,0.0006105571519583464,-0.0008215804118663073
1783246401583029200,0.584029296875,-0.001034654676914215,0.0003915544366464019,-0.0014696628786623478
1783246401593040100,0.5940400390625,0.0007254285737872124,0.0005167230265215039,-0.00023422250524163246
1783246401603052000,0.604052001953125,-0.0006906394846737385,-0.001892024651169777,0.001804368570446968
1783246401613063200,0.614063232421875,0.00013866880908608437,0.0012648866977542639,-0.0005711712874472141
1783246401623075300,0.624075439453125,-0.0018493845127522945,-0.0009130523540079594,0.0010637082159519196
1783246401633087200,0.634087158203125,0.001112849684432149,-0.0008193091489374638,0.001196067314594984
1783246401643098000,0.64409814453125,0.00047589419409632683,-0.00009445426985621452,0.0008879881352186203
1783246401653110300,0.6541103515625,2.537854015827179e-7,0.0028784326277673244,-0.00004038959741592407
1783246401663121200,0.66412109375,0.0006335845682770014,-0.0027767072897404432,0.0005832021124660969
1783246401673133000,0.674133056640625,0.00030734739266335964,0.0022742438595741987,0.0003911885432898998
1783246401683144200,0.684144287109375,-0.00019243545830249786,-0.0023068825248628855,0.00006190920248627663
1783246401693156400,0.69415625,0.00040837377309799194,0.0009224666282534599,-0.000028638169169425964
1783246401703168300,0.704168212890625,0.00008851056918501854,-0.001293541630730033,-0.0009502596221864223
1783246401713179100,0.71417919921875,-0.00134693318977952,0.0005096847889944911,-0.00018886197358369827
1783246401723191300,0.72419140625,0.0020259814336895943,-0.0008915639482438564,0.0007334752008318901
1783246401733202200,0.7342021484375,0.0004248891491442919,-0.0015325869899243116,0.00030097784474492073
1783246401743214000,0.744214111328125,-0.0007680288981646299,0.001327651902101934,-0.0002762693911790848
1783246401753225200,0.75422509765625,-0.00012833764776587486,-0.0010782477911561728,-0.0005625593475997448
1783246401763237000,0.764237060546875,-0.00024020066484808922,-0.0008090147748589516,-0.0014698742888867855
1783246401773249000,0.7742490234375,-0.0005592473316937685,0.0008251009276136756,0.0007014009170234203
1783246401783260200,0.78426025390625,0.00002506817691028118,0.00105730548966676,-0.0009515061974525452
1783246401793272300,0.794272216796875,-0.0002159478608518839,-0.0011635045520961285,-0.0005733370780944824
1783246401803283200,0.804283203125,0.0006012795493006706,0.0011165118776261806,0.00008660275489091873
1783246401813295000,0.814295166015625,-0.00004533608444035053,-0.0010086905676871538,-0.0003578788600862026
1783246401823307300,0.824307373046875,0.0005208267830312252,-0.0006183311343193054,-0.0007873177528381348
1783246401833318100,0.834318115234375,-0.0006714705377817154,-0.0003882341552525759,-0.0004709344357252121
1783246401843330000,0.844330078125,-0.0013951738364994526,-0.00044622132554650307,-0.0011738366447389126
1783246401853341200,0.854341064453125,0.0013976829359307885,-0.0010933696758002043,0.0008352519944310188
1783246401863353300,0.864353271484375,0.0002052891068160534,0.0012025192845612764,-0.00007831817492842674
1783246401873364200,0.8743642578125,-0.0006714235059916973,-0.00006807479076087475,0.00217231921851635
1783246401883376000,0.884376220703125,0.001206706278026104,0.0008451325120404363,0.0006000003777444363
1783246401893388300,0.89438818359375,0.0006389203481376171,-0.0013056362513452768,-0.0007382379844784737
1783246401903399200,0.904399169921875,-0.001101854955777526,0.0006428215419873595,0.000356974545866251
1783246401913411000,0.9144111328125,0.00011734012514352798,0.00031445384956896305,0.00020357640460133553
1783246401923422200,0.924422119140625,-0.0015099828597158194,-0.0005758022889494896,0.0009938334114849567
1783246401933434400,0.934434326171875,0.0003310604952275753,-0.0005073591601103544,0.000864936038851738
1783246401943446300,0.9444462890625,0.0014225547201931477,-0.0005525480955839157,-0.00023664440959692
1783246401953457200,0.95445703125,0.00023505114950239658,0.00043095729779452085,-0.0003354479558765888
1783246401963469300,0.96446923828125,0.0008745747618377209,-0.00041382829658687115,0.00006209826096892357
1783246401973480200,0.974480224609375,0.0007395525462925434,0.0003819243283942342,-0.0005016932263970375
1783246401983492000,0.9844921875,0.0008948787581175566,0.0001094272593036294,0.00034087011590600014
1783246401993503000,0.9945029296875,0.0005763648077845573,-0.00029510678723454475,0.0012945476919412613
1783246402003515100,1.00451513671875,0.0011874665506184101,0.000023064669221639633,-0.00039197085425257683
1783246402013527000,1.014527099609375,-0.000019478145986795425,0.000031320611014962196,-0.0005333847366273403
1783246402023538200,1.0245380859375,-0.0004921886138617992,-0.000004584668204188347,0.0003740624524652958
1783246402033550300,1.03455029296875,0.000027127796784043312,0.001144569250755012,0.00048165395855903625
1783246402043561200,1.044561279296875,-0.0004477479960769415,-0.0013930599670857191,-0.00015360908582806587
1783246402053573000,1.054572998046875,-0.0012719964142888784,0.0002905904548242688,0.000195265281945467
1783246402063584000,1.064583984375,0.00011470401659607887,0.00009948678780347109,0.000038937199860811234
1783246402073596200,1.07459619140625,0.00036397576332092285,0.0008041592082008719,0.00018860679119825363
1783246402083608000,1.084608154296875,-0.0011581939179450274,-0.0005907062441110611,0.00007214676588773727
1783246402093619200,1.094619140625,-0.0006292902398854494,0.00040851172525435686,-0.0003848518244922161
1783246402103631400,1.10463134765625,0.0015020320424810052,-0.00030389544554054737,0.0011551198549568653
1783246402113642200,1.114642333984375,0.00000906386412680149,-0.0003683438990265131,0.0011684359051287174
1783246402123654100,1.124654052734375,-0.0015973118133842945,0.00008803722448647022,0.0007377732545137405
1783246402133666300,1.134666259765625,-0.00021566380746662617,0.0008715391159057617,0.00019076000899076462
1783246402143677200,1.14467724609375,-0.0009919044096022844,0.0005466215079650283,0.0006467658095061779
1783246402153689000,1.154689208984375,-0.0002978844568133354,-0.0004930766299366951,0.00003344006836414337
1783246402163700200,1.1647001953125,-0.0006588802207261324,0.0008923624409362674,-0.0010990460868924856
1783246402173712100,1.174712158203125,0.0010159816592931747,0.000578908366151154,0.0006890003569424152
1783246402183723300,1.18472314453125,0.0004910484421998262,-0.00046176603063941,0.00009092316031455994
1783246402193735200,1.194735107421875,0.0011051734909415245,-0.00027134991250932217,0.0004701572470366955
1783246402203747300,1.204747314453125,0.0001783131156116724,0.0006275337655097246,-0.0008389409631490707
1783246402213758200,1.21475830078125,-0.00029013678431510925,-0.00027288100682199,0.00008757272735238075
1783246402223770000,1.22477001953125,-0.0004517156630754471,0.0007184320129454136,0.00004131067544221878
1783246402233781000,1.234781005859375,-0.000326014356687665,-0.00022672396153211594,-0.0013461960479617119
1783246402243793200,1.244793212890625,-0.0004190828185528517,0.00003612064756453037,0.0002136891707777977
1783246402253804300,1.25480419921875,-0.0003972449339926243,0.00018259452190250158,0.0012123743072152138
1783246402263816200,1.264816162109375,0.0004207741003483534,-0.0004727321211248636,0.0009350827895104885
1783246402273828400,1.274828369140625,-0.0008634021505713463,-0.0004397088196128607,-0.0003072819672524929
1783246402283839200,1.284839111328125,-0.0004883019719272852,0.000555142411030829,-0.001460593892261386
1783246402293851100,1.29485107421875,0.00031703803688287735,0.0009037501877173781,-0.00016203662380576134
1783246402303862000,1.304862060546875,-0.0008993882220238447,-0.000734659843146801,-0.0004797177389264107
1783246402313874200,1.314874267578125,0.00032566580921411514,-0.00046568061225116253,0.00006516510620713234
1783246402323886000,1.324885986328125,0.0005594715476036072,-0.0016108641866594553,-0.0005728905089199543
1783246402333897200,1.334897216796875,-0.0013622655533254147,0.0004741246812045574,0.0005783936940133572
1783246402343909400,1.344909423828125,0.000005000503733754158,0.0005525575252249837,0.00016673002392053604
1783246402353920300,1.354920166015625,0.00046705896966159344,0.0008415104821324348,-0.0010737704578787088
1783246402363932200,1.36493212890625,-0.0016766742337495089,0.0006857883417978883,0.0005568815395236015
1783246402373943000,1.374943115234375,-0.000527253607288003,0.00008471286855638027,-0.000379219651222229
1783246402383955200,1.384955078125,0.0002234454732388258,-0.0005525494925677776,-0.000874638557434082
1783246402393967000,1.394967041015625,-0.0002447383012622595,0.0008165815379470587,-0.0009465441107749939
1783246402403978000,1.40497802734375,-0.0012851492501795292,-0.0015435181558132172,-0.0007861279882490635
1783246402413990100,1.414990234375,0.000017935410141944885,0.0002234891289845109,-0.000136583112180233
1783246402424001300,1.425001220703125,-0.0004857238382101059,0.000688315718434751,-0.0004905206151306629
1783246402434013200,1.43501318359375,-0.001388002885505557,-0.00020757154561579227,-0.0006383261643350124
1783246402444024000,1.445024169921875,0.0010519202332943678,-0.00034661125391721725,-0.0012126683723181486
1783246402454036200,1.4550361328125,0.0004614975769072771,0.0009466196643188596,-0.0013349074870347977
1783246402464048000,1.465048095703125,0.00036186096258461475,0.00008918158710002899,0.0008119083940982819
1783246402474059000,1.47505908203125,0.0009765184950083494,-0.0003329294268041849,-0.0011857287026941776
1783246402484071200,1.4850712890625,-0.0007927676197141409,0.00017877540085464716,-0.00034225406125187874
1783246402494082300,1.495082275390625,0.0001337460707873106,0.0007276529213413596,-0.0015558567829430103
1783246402504094200,1.50509423828125,-0.0010189281310886145,0.0005831262096762657,0.00047678546980023384
1783246402514106400,1.5151064453125,0.0005712455604225397,-0.0012778907548636198,0.000018721912056207657
1783246402524117200,1.5251171875,0.000054930103942751884,-0.0004906568210572004,-0.0005506621673703194
1783246402534129200,1.535129150390625,-0.00010006595402956009,-0.001432883320376277,0.0010735997930169106
1783246402544140000,1.54514013671875,-0.0002545875031501055,0.00034902000334113836,-0.0004646093584597111
1783246402554152200,1.555152099609375,-0.00005192100070416927,0.00001292908564209938,-0.00032079871743917465
1783246402564163300,1.565163330078125,-0.0006676805205643177,-0.0006351135671138763,-0.00001384783536195755
1783246402574175200,1.57517529296875,-0.0009931186214089394,-0.00012059090659022331,-0.00007376866415143013
1783246402584187400,1.5851875,0.00003181956708431244,0.00020770228002220392,-0.0012186348903924227
1783246402594198300,1.5951982421875,-0.0008177286945283413,-0.0006538303568959236,0.001959581393748522
1783246402604210200,1.605210205078125,-0.00039219739846885204,-0.0008352685254067183,0.0003514764830470085
1783246402614221000,1.615220947265625,-0.0014406838454306126,-0.00035803020000457764,-0.001348419114947319
1783246402624233200,1.625233154296875,0.00045003555715084076,0.0005569308996200562,0.0008149161003530025
1783246402634244000,1.635244140625,0.00017066998407244682,-0.000003664521500468254,-0.0005523506551980972
1783246402644256000,1.645256103515625,0.0001496791373938322,-0.000008243601769208908,0.0005829194560647011
1783246402654268200,1.65526806640625,0.0000559359323233366,0.0009457006817683578,-0.00025650858879089355
1783246402664279300,1.665279296875,-0.0001799019519239664,-0.00020249257795512676,-0.00005928380414843559
1783246402674291200,1.675291259765625,-0.0005045414436608553,0.0008747560204938054,-0.0003413129597902298
1783246402684302000,1.685302001953125,0.0008630170486867428,0.0004815072752535343,-0.0005713566206395626
1783246402694314200,1.695314208984375,-0.0010475348681211472,-0.0007635205984115601,-0.0009162358473986387
1783246402704326100,1.705326171875,-0.00010881712660193443,0.00037335860542953014,-0.0003270599991083145
1783246402714337000,1.7153369140625,0.0010211621411144733,0.0007808222435414791,-0.0001536882482469082
1783246402724349200,1.72534912109375,-0.00022052135318517685,-0.001554812304675579,0.000319658312946558
1783246402734360300,1.7353603515625,0.0011097275419160724,0.00010620115790516138,-0.000007377937436103821
1783246402744372200,1.745372314453125,-0.001470724819228053,0.0006086189532652497,0.0007200967520475388
1783246402754383000,1.755383056640625,-0.00019560335204005241,0.0012320650275796652,0.0011134459637105465
1783246402764395300,1.765395263671875,0.0005640650633722544,0.0009854495292529464,0.0005497420206665993
1783246402774407200,1.7754072265625,0.0011073499917984009,0.0012331234756857157,-0.0012974264100193977
1783246402784418000,1.78541796875,-0.0019485445227473974,-0.0003603056538850069,0.0006163893267512321
1783246402794430200,1.79543017578125,-0.0006957936566323042,-0.0008532567881047726,-0.0005293022841215134
1783246402804441000,1.805441162109375,0.00007277680560946465,0.0002631600946187973,-0.0004877517931163311
1783246402814453200,1.815453369140625,0.0012975645950064063,0.0002445179270580411,-0.0014805782120674849
1783246402824464100,1.825464111328125,0.00029685511253774166,-0.002386657055467367,-0.0002637370489537716
1783246402834476300,1.835476318359375,-0.00002645258791744709,-0.00031258724629879,-0.001302902353927493
1783246402844488200,1.84548828125,-0.0011908840388059616,-0.0003236355260014534,-0.0007701055146753788
1783246402854499000,1.8554990234375,0.0007668056059628725,-0.0002269628457725048,0.0006115427240729332
1783246402864511200,1.86551123046875,-0.0000353462528437376,-0.0002704043872654438,-0.0005630110390484333
1783246402874522000,1.875522216796875,0.00030527194030582905,0.0001996435457840562,0.0001853369176387787
1783246402884534000,1.885533935546875,-0.00017841695807874203,0.0006084875203669071,-0.0001258542761206627
1783246402894545400,1.89554541015625,-0.0013307668268680573,-0.00018966174684464931,-0.00208673975430429
1783246402904557300,1.905557373046875,-0.00017007882706820965,0.0005992858204990625,-0.000524573028087616
1783246402914569200,1.9155693359375,0.00037320610135793686,0.0006738543743267655,-0.0000028596259653568268
1783246402924580000,1.925580078125,0.0005408853758126497,0.000975574366748333,0.00011145928874611855
1783246402934592300,1.93559228515625,-0.0003803018480539322,-0.0018108910880982876,-0.0008075975347310305
1783246402944603100,1.94560302734375,0.0005144444294273853,-0.0004032095894217491,-0.000010472722351551056
1783246402954615000,1.955614990234375,-0.0013223378919064999,-0.0002905579749494791,0.0013970080763101578
1783246402964627200,1.965627197265625,-0.001256139948964119,-0.0007289426866918802,0.0003943829797208309
1783246402974638300,1.975638427734375,-0.00015518907457590103,0.0005184819456189871,-0.00073985755443573
1783246402984650200,1.985650146484375,0.0006216843612492085,-0.001100399298593402,-0.00008446257561445236
1783246402994661000,1.9956611328125,-0.00042307376861572266,0.0006346500013023615,0.0015200916677713394
1783246403004673300,2.00567333984375,0.0001648557372391224,0.00016036909073591232,-0.000421721488237381
1783246403014684200,2.01568408203125,-0.001032235100865364,-0.0002862431574612856,-0.001522938720881939
1783246403024696000,2.025696044921875,-0.00022415327839553356,0.0007732975063845515,-0.000773630803450942
1783246403034708200,2.035708251953125,-0.00003480236046016216,-0.00048318179324269295,0.0012245392426848412
1783246403044719000,2.045718994140625,-0.0004274051170796156,0.00018707592971622944,-0.00044415565207600594
1783246403054731000,2.05573095703125,-0.0020817609038203955,-0.0008331809658557177,-0.0008375043980777264
1783246403064742100,2.0657421875,0.0017620713915675879,-0.00041565834544599056,0.00002406630665063858
1783246403074754300,2.07575439453125,-0.0006387683097273111,0.0006450786022469401,-0.00018126331269741058
1783246403084766200,2.08576611328125,0.0013843916822224855,0.0003556623123586178,-0.0007202993147075176
1783246403094777000,2.095777099609375,-0.0003959315363317728,-0.00022703735157847404,0.00024269940331578255
1783246403104789200,2.105789306640625,-0.00017986749298870564,-0.0006456892006099224,-0.0004669744521379471
1783246403114800000,2.115800048828125,-0.0011290181428194046,-0.00020040851086378098,-0.00017509190365672112
1783246403124812000,2.12581201171875,0.0004013839643448591,-0.00045857089571654797,0.0003127013333141804
1783246403134823200,2.1358232421875,-0.00011500297114253044,0.00019470241386443377,0.0015774364583194256
1783246403144835300,2.14583544921875,-0.00015098671428859234,0.001282604644075036,0.0003392910584807396
1783246403154847200,2.15584716796875,0.001555034308694303,0.001145451795309782,0.000051137059926986694
1783246403164858000,2.165858154296875,-0.000008731847628951073,-0.00025592115707695484,-0.0017983631696552038
1783246403174870300,2.175870361328125,-0.000684109516441822,0.0014477029908448458,0.00002670101821422577
1783246403184881200,2.185881103515625,-0.00029579782858490944,0.000538112479262054,0.00016856426373124123
1783246403194893000,2.19589306640625,0.00047864927910268307,-0.0005939973052591085,-0.00019495747983455658
1783246403204904200,2.205904296875,-0.0007499174680560827,-0.0015850721392780542,0.0003763432614505291
1783246403214916400,2.215916259765625,-0.001337410882115364,-0.0012617644388228655,0.0008501196280121803
1783246403224928300,2.22592822265625,-0.0000847086776047945,0.00034786295145750046,-0.000929246423766017
1783246403234939100,2.235939208984375,0.001656998647376895,0.000005114125087857246,0.0010497486218810081
1783246403244951300,2.245951416015625,0.0006875093095004559,0.0005014955531805754,0.0005766605027019978
1783246403254962200,2.255962158203125,0.00006646011024713516,0.00001466972753405571,0.0008805268444120884
1783246403264974000,2.26597412109375,-0.0002026124857366085,-0.00020313612185418606,-0.00013186875730752945
1783246403274985200,2.275985107421875,-0.001122201792895794,-0.000014584511518478394,-0.0007526513654738665
1783246403284997000,2.2859970703125,0.0007455728482455015,-0.00010570185258984566,0.0009455420076847076
1783246403295009000,2.296009033203125,-0.0001761473249644041,-0.00043859705328941345,-0.001355428947135806
1783246403305020200,2.306020263671875,0.00019699707627296448,-0.000289589399471879,-0.0012054725084453821
1783246403315032300,2.3160322265625,-0.0001585350837558508,0.000290180672891438,-0.00048135919496417046
1783246403325043200,2.326043212890625,-0.000010821502655744553,-0.001529742032289505,-0.0012611118145287037
1783246403335055000,2.33605517578125,0.0002392493188381195,0.0015107890358194709,0.0002731354907155037
1783246403345067300,2.3460673828125,0.0009394458029419184,0.0009214933961629868,-0.0010060479398816824
1783246403355078100,2.356078125,0.00043184729292988777,0.0005433246260508895,0.00028292182832956314
1783246403365090000,2.366090087890625,0.00038946582935750484,-0.0009025922045111656,-0.0006849654018878937
1783246403375101200,2.37610107421875,-0.0005469014868140221,-0.00030231568962335587,0.0013893707655370235
1783246403385113300,2.38611328125,0.0011775814928114414,-0.0012949265073984861,-0.0008074657525867224
1783246403395124200,2.396124267578125,0.0004036668688058853,0.0003359932452440262,0.00013742363080382347
1783246403405136100,2.40613623046875,-0.0006973764393478632,0.00014999252744019032,-0.0007099844515323639
1783246403415148300,2.416148193359375,-0.000887526199221611,-0.0010819858871400356,0.0013355896808207035
1783246403425159200,2.4261591796875,-0.0008308128453791142,-0.00031197909265756607,-0.0001754886470735073
1783246403435171000,2.436171142578125,0.0010650916956365108,0.0002568722702562809,-0.00001969374716281891
1783246403445182200,2.44618212890625,-0.0001796279102563858,-0.0009762195404618979,0.0004734965041279793
1783246403455194000,2.456194091796875,-0.0007170538883656263,-0.0012838146649301052,0.00016563525423407555
1783246403465205200,2.466205322265625,-0.00010125595144927502,-0.002334801945835352,0.0011504748836159706
1783246403475217200,2.476217041015625,-0.00008873920887708664,-0.0008399696089327335,0.0004679067060351372
1783246403485229300,2.486229248046875,-0.00011572986841201782,0.0008271109545603395,-0.0007609424646943808
1783246403495240200,2.496240234375,0.0009151797275990248,0.00012536800932139158,-0.001074396539479494
1783246403505252000,2.506252197265625,-0.00027864985167980194,-0.0006166268140077591,0.0002645323984324932
1783246403515263200,2.51626318359375,0.0006183027289807796,0.00045529555063694715,0.00031300168484449387
1783246403525275100,2.526275146484375,-0.0015207452233880758,-0.0013483634684234858,-0.0015014046803116798
1783246403535287000,2.536287109375,0.0005296224262565374,-0.00023249885998666286,-0.0006830152124166489
1783246403545298200,2.546298095703125,0.00024858838878571987,-0.001203218474984169,-0.0003593405708670616
1783246403555310300,2.556310302734375,0.0003023841418325901,-0.0005819029174745083,0.0024553542025387287
1783246403565321200,2.5663212890625,0.000036113662645220757,-0.0012106280773878098,0.000922465231269598
1783246403575333000,2.5763330078125,0.001303778262808919,0.00008899450767785311,-0.000921773724257946
1783246403585344300,2.58634423828125,-0.00008347281254827976,-0.0008997516706585884,0.0008746315725147724
1783246403595356200,2.596356201171875,-0.000542335445061326,-0.0006334355566650629,0.00047675520181655884
1783246403605368000,2.6063681640625,0.0006181346252560616,-0.00105910818092525,0.0007870858535170555
1783246403615379200,2.616379150390625,0.0004056142643094063,0.0003901839954778552,0.00022728927433490753
1783246403625391400,2.626391357421875,-0.0006712819449603558,0.0005752753932029009,-0.0015805312432348728
1783246403635402200,2.63640234375,-0.0010614353232085705,0.0012961931060999632,-0.00045587820932269096
1783246403645414100,2.6464140625,-0.0002622143365442753,-0.0005793625023216009,-0.00023191049695014954
1783246403655425300,2.65642529296875,-0.0011775428429245949,-0.0009087955113500357,-0.00025028595700860023
1783246403665437200,2.666437255859375,0.0015043658204376698,0.00026676792185753584,-0.0003680777736008167
1783246403675449000,2.676448974609375,-0.0014054037164896727,0.0004939355421811342,0.001601063646376133
1783246403685460000,2.6864599609375,0.001022768672555685,0.0003167274408042431,0.0008362825028598309
1783246403695472000,2.69647216796875,0.00043048150837421417,-0.0006657126359641552,-0.0008164756000041962
1783246403705483300,2.706483154296875,-0.0009126428049057722,0.00012553983833640814,0.001354234293103218
1783246403715495200,2.7164951171875,0.0009411836508661509,0.00027361162938177586,-0.0004537859931588173
1783246403725506300,2.72650634765625,-0.00039920187555253506,-0.00005686888471245766,-0.000406140461564064
1783246403735518200,2.736518310546875,0.0016977711347863078,-0.0001964184921234846,0.00013421475887298584
1783246403745530000,2.746530029296875,-0.0006511870305985212,-0.001084060175344348,0.0007280106656253338
1783246403755541000,2.756541015625,-0.0012493329122662544,-0.0003333149943500757,-0.0002107531763613224
1783246403765553200,2.76655322265625,-0.0003902802709490061,-0.00113384029828012,0.000017044134438037872
1783246403775564300,2.776564208984375,-0.0004920130595564842,0.00048642687033861876,0.002147040329873562
1783246403785576200,2.786576171875,-0.0001676236279308796,-0.00015141512267291546,0.00048160459846258163
1783246403795588400,2.79658837890625,-0.0002789436839520931,0.00004326202906668186,-0.0015882044099271297
1783246403805599200,2.80659912109375,0.00023500318638980389,-0.001004461431875825,-0.0008374718017876148
1783246403815611100,2.816611083984375,-0.0012936510611325502,-0.001689426600933075,0.0010797381401062012
1783246403825622300,2.826622314453125,0.0008529352489858866,-0.00046916515566408634,0.00025075487792491913
1783246403835634200,2.83663427734375,-0.0005071409977972507,-0.0008803571108728647,0.0005719317123293877
1783246403845645300,2.846645263671875,-0.0016084080561995506,0.0005334073211997747,-0.00015758397057652473
1783246403855657200,2.8566572265625,0.0003745816648006439,0.000022879336029291153,-0.00028514908626675606
1783246403865669400,2.86666943359375,-0.0014128200709819794,-0.0006841830909252167,-0.000020570121705532074
1783246403875680300,2.87668017578125,-0.0007800529710948467,0.0006279562367126346,-0.0013572105672210455
1783246403885692200,2.886692138671875,0.0007498713675886393,-0.0008437712676823139,0.0005392879247665405
1783246403895703300,2.896703369140625,0.0007298975251615047,0.0002606416819617152,-0.0018783295527100563
1783246403905715200,2.906715087890625,0.00026479526422917843,-0.000950035871937871,0.00004149042069911957
1783246403915726000,2.91672607421875,-0.0005096518434584141,0.00038820249028503895,-0.0011350938584655523
1783246403925738000,2.926738037109375,0.0008162478916347027,0.0006141854682937264,-0.0004346529021859169
1783246403935750100,2.936750244140625,0.00007801968604326248,0.00011857121717184782,0.0001722811721265316
1783246403945761300,2.94676123046875,0.00024490593932569027,0.0011385385878384113,0.0003028963692486286
1783246403955773200,2.956773193359375,0.0004952431190758944,-0.001444994006305933,-0.0004784748889505863
1783246403965784300,2.966784423828125,0.0010725161992013454,0.0006622166838496923,-0.00027520302683115005
1783246403975796200,2.976796142578125,-0.000049473484978079796,-0.00015537370927631855,0.001551192719489336
1783246403985808100,2.98680810546875,-0.0007411940023303032,-0.0008261969778686762,-0.00027724262326955795
1783246403995819000,2.996819091796875,-0.0016077866312116385,-0.0005444346461445093,0.000553131103515625
1783246404005831200,3.0068310546875,0.0012904127361252904,0.00011595082469284534,-0.0017329608090221882
1783246404015842300,3.01684228515625,-0.0007746024057269096,0.0008224874036386609,-0.00014811381697654724
1783246404025854200,3.026854248046875,0.0008435563649982214,-0.000033091986551880836,0.0009398823603987694
1783246404035865300,3.036865234375,-0.0013631386682391167,-0.0013529546558856964,0.0005870135501027107
1783246404045877200,3.046877197265625,-0.00048682396300137043,0.00011539366096258163,-0.0012026175390928984
1783246404055889200,3.05688916015625,-0.00040826061740517616,0.0005670657847076654,-0.0002920827828347683
1783246404065900000,3.066900146484375,0.0007270597852766514,-0.00034897937439382076,0.00003008125349879265
1783246404075912200,3.076912109375,0.0004721952136605978,-0.00024964334443211555,-0.0008447673171758652
1783246404085923000,3.086923095703125,-0.0007081986404955387,0.0008437199285253882,-0.0005296366289258003
1783246404095935200,3.096935302734375,0.00023722369223833084,-0.0013824163470417261,0.0008304398506879807
1783246404105946400,3.1069462890625,-0.002177674090489745,-0.0003263545222580433,0.0011726864613592625
1783246404115958300,3.116958251953125,-0.001961692003533244,0.0002978903939947486,-0.00031708599999547005
1783246404125970200,3.12697021484375,-0.0004078829661011696,0.001113472506403923,-0.0008420646190643311
1783246404135981000,3.13698095703125,-0.00022199423983693123,-0.0001448711846023798,0.0005981726571917534
1783246404145993200,3.1469931640625,0.0003401711583137512,0.001544275670312345,0.00042294058948755264
1783246404156004000,3.157004150390625,0.00000967271625995636,0.0002529089106246829,0.0003981734625995159
1783246404166016000,3.16701611328125,-0.0006785851437598467,-0.0009624217636883259,0.000461080577224493
1783246404176028200,3.177028076171875,-0.0009635435417294502,0.0008250919636338949,-0.00045904144644737244
1783246404186039300,3.187039306640625,-0.000309694092720747,0.0007411655969917774,0.0012321560643613338
1783246404196051200,3.19705126953125,0.0005651542451232672,-0.0008434152696281672,0.00028247246518731117
1783246404206062300,3.207062255859375,0.0012751712929457426,0.0005773302400484681,0.00020944327116012573
1783246404216074200,3.21707421875,0.0002759532071650028,-0.0009481285233050585,-0.00035248370841145515
1783246404226085000,3.227085205078125,0.0007131039164960384,0.0004045511595904827,-0.0012588712852448225
1783246404236097000,3.237096923828125,0.00006036297418177128,0.0012690132716670632,-0.0009443520102649927
1783246404246109200,3.247109130859375,0.0007392028346657753,0.00017421762458980083,0.0007572071626782417
1783246404256120300,3.257120361328125,0.0002097664400935173,-0.0007930425927042961,-0.0005621230229735374
1783246404266132200,3.26713232421875,0.00027811434119939804,0.00040305766742676497,-0.0006435015238821507
1783246404276143400,3.277143310546875,0.0008688033558428288,0.0005306230159476399,-0.00044988933950662613
1783246404286155300,3.2871552734375,0.0003794257063418627,-0.0003357070963829756,0.0002153622917830944
1783246404296166100,3.297166259765625,0.0005567923653870821,-0.0001958911307156086,-0.00018357904627919197
1783246404306178000,3.307177978515625,0.00008364720270037651,-0.00022644316777586937,0.0005571497604250908
1783246404316190200,3.317190185546875,-0.0008021199610084295,-0.00041685905307531357,-0.0012657840270549059
1783246404326201000,3.327201171875,-0.0003114964347332716,-0.0007347380742430687,0.0008015125058591366
1783246404336213000,3.337212890625,0.0002429736778140068,-0.000670555979013443,-0.00004776986315846443
1783246404346224400,3.347224365234375,0.0007266197353601456,-0.0006250734440982342,0.0010899784974753857
1783246404356236300,3.357236328125,-0.0021482626907527447,-0.0009081673342734575,0.0005648033693432808
1783246404366248200,3.367248291015625,0.00034964061342179775,-0.0007797954604029655,-0.0005045793950557709
1783246404376259000,3.377259033203125,-0.0005811343435198069,-0.0015084363985806704,-0.001013243105262518
1783246404386271200,3.387271240234375,0.0016656543593853712,-0.00048074335791170597,-0.0005518635734915733
1783246404396282000,3.3972822265625,0.0009029251523315907,-0.00011881976388394833,0.001527532935142517
1783246404406294000,3.4072939453125,-0.0003822252620011568,-0.001127001829445362,0.0008017215877771378
1783246404416305400,3.417305419921875,0.0003597312606871128,0.0004250885685905814,-0.0007402487099170685
1783246404426317300,3.4273173828125,-0.001102587440982461,-0.0006732109468430281,-0.0006905118934810162
1783246404436329200,3.4373291015625,-0.00027327914722263813,-0.000840191263705492,0.0008887425065040588
1783246404446340000,3.447340087890625,0.0008683043997734785,0.0015630075940862298,-0.0011592709925025702
1783246404456352300,3.457352294921875,0.00005257828161120415,-0.0010620702523738146,-0.0004607238806784153
1783246404466363100,3.467363037109375,0.0022387781646102667,-0.0003660493530333042,-0.00033621862530708313
1783246404476375000,3.477375,0.0012866980396211147,-0.0010118659120053053,-0.00014979718253016472
1783246404486386200,3.48738623046875,-0.0001767666544765234,0.00026865059044212103,-0.00046166498214006424
1783246404496398300,3.4973984375,-0.0012217909097671509,0.00043243495747447014,-0.00040174368768930435
1783246404506410200,3.50741015625,0.00037691392935812473,-0.00007477821782231331,0.00033113639801740646
1783246404516421400,3.51742138671875,-0.0006204398814588785,-0.0006521516479551792,-0.0002704719081521034
1783246404526433300,3.527433349609375,0.0009567865636199713,0.0007407002849504352,0.00004397658631205559
1783246404536444200,3.537444091796875,-0.0006285931449383497,0.0007478909101337194,0.0005467813462018967
1783246404546456000,3.5474560546875,-0.001684695715084672,0.000016449950635433197,0.0002910587936639786
1783246404556468200,3.55746826171875,0.0005813881289213896,0.00042497890535742044,-0.00032093562185764313
1783246404566479000,3.56747900390625,-0.0018597403541207314,0.0005113217048346996,-0.0006084004417061806
1783246404576490800,3.57749072265625,0.0006255216430872679,-0.00011798320338129997,-0.0005138581618666649
1783246404586502000,3.587501953125,-0.0009336580988019705,0.00033962633460760117,-0.0000920998863875866
1783246404596514000,3.59751416015625,0.0011132475920021534,0.0006168613908812404,0.0006796838715672493
1783246404606525000,3.60752490234375,0.0011827636044472456,-0.0003313345368951559,0.0007311776280403137
1783246404616536800,3.617536865234375,0.000669572502374649,0.00036694633308798075,9.387731552124023e-7
1783246404626549000,3.627549072265625,-0.00044188322499394417,0.0008888622978702188,-0.0007297070696949959
1783246404636560000,3.637559814453125,0.00047211372293531895,0.00003052549436688423,0.0002894848585128784
1783246404646571800,3.64757177734375,0.001907781115733087,0.00082742003723979,0.0008086012676358223
1783246404656583000,3.6575830078125,-0.0011276898439973593,0.000806913711130619,-0.0000619860365986824
1783246404666595000,3.667594970703125,-0.001252512913197279,-0.0010774473194032907,-0.0007051695138216019
1783246404676606000,3.67760595703125,0.0003360623959451914,0.00013455748558044434,0.0013638399541378021
1783246404686617900,3.687617919921875,0.0002732772845774889,-0.00006649969145655632,0.001586057711392641
1783246404696630000,3.697630126953125,0.0012306836433708668,-0.0007605194114148617,-0.0007620514370501041
1783246404706641000,3.707640869140625,0.0006764261052012444,0.0006700027734041214,0.0002486216835677624
1783246404716652800,3.71765283203125,0.00019226339645683765,0.0010564274853095412,-0.001009189523756504
1783246404726664200,3.727664306640625,0.0003130510449409485,0.000346015440300107,-0.00037134625017642975
1783246404736676000,3.737676025390625,0.0003428785130381584,0.00005892664194107056,0.0022883526980876923
1783246404746688000,3.74768798828125,0.0012830877676606178,-0.0001684266608208418,-0.0006516976282000542
1783246404756699000,3.757698974609375,0.001976308412849903,-0.0005995924584567547,-0.00010947836562991142
1783246404766711000,3.7677109375,0.00030868081375956535,0.0007043883670121431,0.001113987062126398
1783246404776722000,3.777721923828125,0.0006508971564471722,0.0005698987515643239,0.00019599543884396553
1783246404786733800,3.78773388671875,-0.0005085519514977932,-0.0004649453330785036,-0.0006077107973396778
1783246404796745000,3.797744873046875,0.0008949339389801025,0.0014274968998506665,0.0010833963751792908
1783246404806756900,3.8077568359375,-0.000006815418601036072,-0.00023183715529739857,0.0005694194696843624
1783246404816768800,3.817768798828125,0.0010198333766311407,-0.0002699203323572874,-0.000337919220328331
1783246404826780000,3.82777978515625,0.00023224623873829842,-0.0013745336327701807,-0.0008132432121783495
1783246404836792000,3.8377919921875,-0.0007746948394924402,0.00020525348372757435,0.0006903777830302715
1783246404846803000,3.847802978515625,-0.0003504918422549963,-0.0010077112819999456,-0.0017476812936365604
1783246404856814800,3.85781494140625,0.00002101925201714039,-0.0004622959531843662,0.0007213354110717773
1783246404866826000,3.867825927734375,-0.0015958461444824934,-0.0008523990400135517,0.0015146294608712196
1783246404876838000,3.877837890625,0.00047316355630755424,-0.00025159004144370556,-0.0008475941140204668
1783246404886849800,3.887849853515625,0.0009228554554283619,0.0006621534703299403,-0.0007061264477670193
1783246404896861000,3.89786083984375,0.000030696624889969826,0.002166839549317956,-0.000737285241484642
1783246404906873000,3.907873046875,0.00024600070901215076,-0.0004829156678169966,0.00006440980359911919
1783246404916884000,3.917884033203125,0.000998876290395856,-0.00024456274695694447,-0.00013372907415032387
1783246404926895900,3.927895751953125,-0.0005372052546590567,0.0012465021573007107,-0.0011019774246960878
1783246404936907000,3.937906982421875,0.00005375035107135773,0.0013857854064553976,-0.0009355298243463039
1783246404946919000,3.9479189453125,0.00019792490638792515,-0.0010042034555226564,0.0005022953264415264
1783246404956930800,3.957930908203125,-0.000022052088752388954,-0.0007714433595538139,-0.0008308831602334976
1783246404966942000,3.96794189453125,0.001504173269495368,-0.0013487462420016527,-0.00040141772478818893
1783246404976953900,3.977953857421875,-0.0003565773367881775,-0.00007708673365414143,-0.000444827601313591
1783246404986965000,3.987965087890625,-0.0014901377726346254,0.00030153931584209204,-0.0012434411328285933
1783246404996977000,3.997976806640625,-0.0008813391905277967,-0.0007599967066198587,0.00047269975766539574
1783246405006989000,4.007989013671875,-0.00011492380872368813,-0.0010545197874307632,-0.00002552662044763565
1783246405017000000,4.018,0.001619859249331057,0.00030449137557297945,-0.0003312574699521065
1783246405027011800,4.02801171875,-0.00019488553516566753,-0.00015428010374307632,0.00074057187885046
1783246405037023000,4.03802294921875,0.001919398084282875,0.00043294683564454317,-0.00021763332188129425
1783246405047035000,4.048034912109375,0.0005278270691633224,0.0004777621943503618,-0.0007042801007628441
1783246405057046000,4.0580458984375,-0.00020800437778234482,0.00045965274330228567,0.0006241048686206341
1783246405067058000,4.068057861328125,-0.0010779092554003,-0.00038071186281740665,0.000383641105145216
1783246405077070000,4.078070068359375,0.00037883990444242954,-0.00012558093294501305,0.00019508926197886467
1783246405087081000,4.0880810546875,-0.0004793885163962841,-0.0003513868432492018,0.00013223523274064064
1783246405097092900,4.0980927734375,-0.0009009670466184616,0.0007024259539321065,-0.00013621104881167412
1783246405107104000,4.10810400390625,-0.00009916536509990692,0.0006313755875453353,-0.000797102227807045
1783246405117116000,4.118115966796875,0.0003663552924990654,0.00028037105221301317,0.000005574431270360947
1783246405127127000,4.128126953125,0.00023111491464078426,-0.0013837588485330343,-0.0006086421199142933
1783246405137139000,4.138138916015625,0.0008769314736127853,-0.00022421847097575665,-0.0018145216163247824
1783246405147151000,4.148151123046875,0.0009222121443599463,-0.001123729394748807,0.0005369833670556545
1783246405157162000,4.158161865234375,0.001751254079863429,0.0007335592526942492,-0.0008659700397402048
1783246405167174000,4.168173828125,0.0006566003430634737,-0.0004545249976217747,0.001090420875698328
1783246405177185000,4.17818505859375,-0.0016816549468785524,0.0011524263536557555,-0.00008962582796812057
1783246405187197000,4.188197021484375,-0.0008169496431946754,0.0009165878873318434,0.000606730580329895
1783246405197207800,4.198207763671875,-0.0016382685862481594,0.00039620616007596254,-0.0005956864915788174
1783246405207219700,4.2082197265625,-0.000060998136177659035,0.0008198480354622006,0.00004079518839716911
1783246405217232000,4.21823193359375,-0.0005057458765804768,0.001178043195977807,-0.0002963608130812645
1783246405227243000,4.228242919921875,0.0007676142267882824,0.0006622838554903865,-0.0009152980055660009
1783246405237255000,4.2382548828125,-0.0009346783626824617,-0.0001087011769413948,-0.000027399975806474686
1783246405247266000,4.24826611328125,0.0001883737277239561,-0.0008876193314790726,0.0000700005330145359
1783246405257278000,4.25827783203125,0.0005015614442527294,0.00006685755215585232,-0.0012424050364643335
1783246405267289900,4.268289794921875,-0.0007012463174760342,0.00030280579812824726,-0.0008796937763690948
1783246405277300700,4.27830078125,0.0006423185113817453,0.0003004089230671525,0.00017039058730006218
1783246405287313000,4.28831298828125,-0.0008333667647093534,0.0005553992232307792,0.0001515168696641922
1783246405297324000,4.298323974609375,-0.00045865983702242374,0.0007524731336161494,-0.0005209310911595821
1783246405307336000,4.3083359375,-0.0005147792398929596,-0.0002597966231405735,-0.0005797706544399261
1783246405317347000,4.31834716796875,0.0004676608368754387,0.0002491335617378354,-0.00023355940356850624
1783246405327359000,4.32835888671875,-0.0008104590233415365,-0.001557057723402977,0.0007254993543028831
1783246405337371000,4.338370849609375,-0.002506626071408391,-0.0010931349825114012,0.0010855584405362606
1783246405347382000,4.348382080078125,0.0005440074019134045,-0.000217365100979805,0.0004534553736448288
1783246405357394000,4.358393798828125,-0.0002978178672492504,0.0009829215705394745,0.0019738543778657913
1783246405367405000,4.368405029296875,-0.0011546090245246887,0.0006945879431441426,-0.0009706777054816484
1783246405377417000,4.3784169921875,0.0001474104356020689,0.0006288078147917986,-0.0012982466723769903
1783246405387428000,4.388427978515625,0.0005066304001957178,-0.00019102753140032291,0.0007557407952845097
1783246405397440000,4.39843994140625,-0.00037354440428316593,-0.001265613129362464,0.00035759806632995605
1783246405407452000,4.408451904296875,-0.00031557981856167316,-0.00031802826561033726,0.0005339337512850761
1783246405417463000,4.418463134765625,0.0002988113556057215,-0.00034359446726739407,-0.0013827434740960598
1783246405427475000,4.428474853515625,-0.00025351508520543575,0.00021971715614199638,-0.000055954791605472565
1783246405437485800,4.43848583984375,0.00048338156193494797,0.0014543586876243353,-0.0003086891956627369
1783246405447497700,4.448497802734375,-0.0015354948118329048,0.00044070673175156116,-0.0001488574780523777
1783246405457509000,4.458509033203125,-0.0011562607251107693,0.0011096927337348461,-0.0005629789084196091
1783246405467521000,4.46852099609375,0.0006989424582570791,-0.0010972521267831326,0.00029466627165675163
1783246405477533000,4.478532958984375,0.0011948231840506196,0.0002183492761105299,0.0016856351867318153
1783246405487544000,4.4885439453125,-0.0005973095539957285,-0.0005831194575875998,-0.00023580342531204224
1783246405497556000,4.498555908203125,-0.00023032608442008495,0.0005902693374082446,0.0006933733820915222
1783246405507566800,4.50856689453125,0.000007034046575427055,0.0010105851106345654,-0.00017463648691773415
1783246405517578800,4.518578857421875,-0.0010065650567412376,-0.00008716993033885956,-0.0008561394643038511
1783246405527591000,4.5285908203125,0.0002977559342980385,0.00041371758561581373,0.0014879168011248112
1783246405537602000,4.53860205078125,0.00039655901491642,-0.0005655266577377915,0.0006639347411692142
1783246405547614000,4.548614013671875,-0.000429611187428236,0.001018658047541976,0.00036054104566574097
1783246405557625000,4.558625,-0.00040218071080744267,-0.001129980431869626,-0.0014903559349477291
1783246405567637000,4.568636962890625,-0.0006426363252103329,-0.00039981200825423,-0.00011322228237986565
1783246405577648600,4.578648681640625,0.0004343460313975811,-0.0001191148767247796,-0.0000690137967467308
1783246405587660500,4.58866064453125,0.0008376836776733398,-0.00029221735894680023,0.000040704384446144104
1783246405597672400,4.59867236328125,-0.0005903032142668962,-0.00007437076419591904,0.0004212702624499798
1783246405607683600,4.60868359375,-0.0008987465407699347,-0.00145838619209826,0.0011659404262900352
1783246405617695500,4.618695556640625,0.00044668233022093773,-0.00020350469276309013,-0.00012968759983778
1783246405627706600,4.62870654296875,-0.000016130274161696434,-0.0005271830596029758,-0.00035767722874879837
1783246405637718800,4.63871875,0.0005753578152507544,-0.0009729962330311537,-0.0009707368444651365
1783246405647729700,4.648729736328125,0.000876112375408411,0.000877932645380497,-0.0015639925841242075
1783246405657741600,4.658741455078125,-0.00006265193223953247,0.0012185509549453855,0.00021446635946631432
1783246405667753500,4.66875341796875,0.0008215145207941532,-0.0004423963837325573,-0.00035419734194874763
1783246405677764600,4.6787646484375,-0.0005191208329051733,-0.0002868678420782089,-0.0005576629191637039
1783246405687776500,4.688776611328125,0.00042175687849521637,0.0011077049421146512,0.000025702640414237976
1783246405697787600,4.69878759765625,0.00048514013178646564,-0.0008891333127394319,0.000838765874505043
1783246405707799600,4.708799560546875,0.0009458290878683329,0.00021385017316788435,-0.0007705145981162786
1783246405717811700,4.718811767578125,-0.000048062531277537346,0.0017534235958009958,0.00008302833884954453
1783246405727822600,4.728822509765625,-0.002090240828692913,0.00006833602674305439,0.0007504005916416645
1783246405737834800,4.738834716796875,0.0013164746342226863,-0.000797990127466619,-0.0011979681439697742
1783246405747845600,4.748845703125,-0.001624666852876544,-0.00001655728556215763,0.0001787790097296238
1783246405757857500,4.758857421875,-0.0015447719488292933,-0.0007334802066907287,-0.0006260282825678587
1783246405767868400,4.768868408203125,0.00046591763384640217,0.0011045313440263271,-0.0014472135808318853
1783246405777880600,4.778880615234375,-0.0009072080720216036,-0.0007618118543177843,-0.000333213247358799
1783246405787892500,4.788892578125,-0.00009923707693815231,-0.0007771932287141681,-0.00004692329093813896
1783246405797903600,4.798903564453125,-0.0003357257228344679,-0.00007944495882838964,-0.0005095144733786583
1783246405807915800,4.808915771484375,-0.00011294079013168812,0.00010044104419648647,-0.0005532903596758842
1783246405817926700,4.8189267578125,-0.0007044288795441389,-0.001183202606625855,0.0011399472132325172
1783246405827938600,4.8289384765625,0.0012489145155996084,-0.00026657513808459044,0.0010804925113916397
1783246405837949400,4.838949462890625,-0.0002973168157041073,-0.00011797074694186449,0.0009518619626760483
1783246405847961600,4.848961669921875,0.0010178959928452969,-0.0009262573439627886,0.0013649184256792068
1783246405857973500,4.858973388671875,-0.0004018351901322603,0.0002721651690080762,0.00025544548407197
1783246405867984600,4.868984619140625,0.00003531528636813164,0.0006093520205467939,0.0011432869359850883
1783246405877996800,4.878996826171875,-0.0004709516651928425,0.0001773872645571828,-0.00023170281201601028
1783246405888007700,4.889007568359375,0.0002612820826470852,0.00015934649854898453,-0.0008243958000093699
1783246405898019600,4.89901953125,-0.001163775334134698,-0.0009416043758392334,0.00006723031401634216
1783246405908031500,4.909031494140625,0.0009542668703943491,0.000803561182692647,0.0014172447845339775
1783246405918042600,4.919042724609375,0.0005193725228309631,-0.0006902058375999331,-0.000049890484660863876
1783246405928054500,4.929054443359375,0.000004579313099384308,0.00006488896906375885,0.00014924490824341774
1783246405938065400,4.9390654296875,-0.00023537129163742065,-0.0009772059274837375,0.0006893337704241276
1783246405948077600,4.94907763671875,-0.0006061526946723461,-0.0003959899768233299,0.001107610296458006
1783246405958088700,4.959088623046875,-0.00024263141676783562,-0.000500119524076581,0.0004133237525820732
1783246405968100600,4.9691005859375,-0.00023994897492229939,-0.0007158811204135418,0.001564269419759512
1783246405978112500,4.979112548828125,-0.00012330245226621628,-0.0013678229879587889,-0.00009088544175028801
1783246405988123600,4.98912353515625,0.00012043234892189503,0.00017734523862600327,-0.00022098980844020844
1783246405998135600,4.999135498046875,-7.413327693939209e-7,0.0006037174025550485,-0.0006228608544915915
1783246406008146400,5.009146484375,0.00229040440171957,-0.00047494424507021904,0.000057481229305267334
1783246406018158600,5.01915869140625,-0.0005077789537608624,-0.000044577522203326225,-0.00020883465185761452
1783246406028169700,5.029169677734375,0.0005424707196652889,-0.0007550937589257956,-0.000270879827439785
1783246406038181600,5.039181640625,0.0013486096868291497,-0.0007726706098765135,-0.000757971778512001
1783246406048193800,5.04919384765625,0.0005962343420833349,0.00071952142752707,0.0013483613729476929
1783246406058204700,5.05920458984375,0.0006391112692654133,-0.000034153228625655174,0.00008176220580935478
1783246406068216600,5.069216552734375,-0.00029203551821410656,-0.0011357481125742197,-0.0007286923937499523
1783246406078227500,5.0792275390625,-0.0016103002708405256,0.001195050310343504,-0.0007113819010555744
1783246406088239600,5.089239501953125,0.000885888235643506,0.0001968692522495985,0.00013587065041065216
1783246406098250800,5.099250732421875,-0.0006864420138299465,-0.0004603988490998745,0.0013041994534432888
1783246406108262700,5.1092626953125,-0.0009223020169883966,0.0006887629861012101,0.0005690855905413628
1783246406118274800,5.11927490234375,-0.0021308448631316423,-0.000546677503734827,-0.00047673750668764114
1783246406128285700,5.12928564453125,0.0008345143869519234,0.00017619749996811152,0.0001359814777970314
1783246406138297600,5.139297607421875,0.00030614319257438183,-0.00004564388655126095,0.0004742029123008251
1783246406148308500,5.14930859375,0.0003410263452678919,0.0003080926835536957,0.0010835099965333939
1783246406158320600,5.159320556640625,-0.00041477871127426624,0.000021003885194659233,0.0003245091065764427
1783246406168332500,5.16933251953125,0.00003679981455206871,-0.000901044812053442,-0.0012247937265783548
1783246406178343400,5.179343505859375,0.001302600372582674,0.0012031187070533633,0.0003432757221162319
1783246406188355600,5.18935546875,-0.000044798944145441055,0.0003954261774197221,0.00023652520030736923
1783246406198366700,5.19936669921875,-0.0005649144295603037,0.0003368365578353405,-0.00020023295655846596
1783246406208378600,5.209378662109375,-0.00011173286475241184,-0.0018368789460510015,0.000986449420452118
1783246406218389500,5.219389404296875,0.000045659951865673065,-0.00105311069637537,-0.000342467799782753
1783246406228401700,5.229401611328125,0.0007247254252433777,-0.000043759820982813835,-0.0010745285544544458
1783246406238413600,5.23941357421875,-0.00018714088946580887,-0.0018829386681318283,-0.0007802492473274469
1783246406248424400,5.249424560546875,0.00006387499161064625,-0.0005243716295808554,0.000024164095520973206
1783246406258436600,5.2594365234375,0.0004561585374176502,0.0003195840399712324,-0.00020726444199681282
1783246406268447700,5.26944775390625,0.001342590432614088,-0.0008703132625669241,-0.0003978838212788105
1783246406278459600,5.279459716796875,0.00013964064419269562,-0.0001856144517660141,0.000025292392820119858
1783246406288470500,5.289470458984375,0.0009657829068601131,-0.0011529338080435991,0.0010400707833468914
1783246406298482700,5.299482666015625,0.0006472687236964703,0.00046653440222144127,-0.0004981709644198418
1783246406308494600,5.30949462890625,-0.0006150382105261087,0.00018843694124370813,-0.00044348789379000664
1783246406318505500,5.31950537109375,0.00006433413363993168,0.0009160124463960528,-0.0004123291000723839
1783246406328517600,5.329517578125,0.0003052856773138046,0.0003907212521880865,0.0011331834830343723
1783246406338528500,5.339528564453125,-0.0007186997681856155,-0.001872166758403182,0.0016927137039601803
1783246406348540700,5.349540771484375,-0.0001918543130159378,-0.00046288222074508667,-0.0008011430036276579
1783246406358551600,5.359551513671875,0.001548521569930017,0.0011549883056432009,0.00034721195697784424
1783246406368563700,5.369563720703125,0.0009663992095738649,-0.0003431092482060194,-0.0006570096593350172
1783246406378575600,5.37957568359375,0.00031898473389446735,-0.00019423849880695343,0.0005432767793536186
1783246406388586500,5.38958642578125,0.000803621020168066,0.000587072572670877,0.0008867494761943817
1783246406398598700,5.3995986328125,-0.0004493964370340109,0.00034365965984761715,-0.0009313905611634254
1783246406408609500,5.409609619140625,-0.0007575701456516981,0.0010311175137758255,-0.000902912812307477
1783246406418621400,5.419621337890625,0.0008832036983221769,-0.0026850574649870396,0.000009485986083745956
1783246406428632600,5.429632568359375,0.0007711746729910374,0.0005221175961196423,0.0006495085544884205
1783246406438644700,5.439644775390625,0.00018714345060288906,0.0005958870751783252,-0.0007001813501119614
1783246406448656600,5.44965673828125,-0.0004449982661753893,0.0005530628841370344,0.0003855125978589058
1783246406458667500,5.45966748046875,0.0007939040660858154,-0.0017907849978655577,0.0005903099663555622
1783246406468679700,5.4696796875,0.0008174916729331017,0.0009397809626534581,-0.000569603405892849
1783246406478690600,5.479690673828125,0.0004086964763700962,0.00045455293729901314,0.000014428049325942993
1783246406488702500,5.489702392578125,0.0006038125138729811,-0.00019921339116990566,0.000024217646569013596
1783246406498714600,5.499714599609375,0.00029754918068647385,-0.0021334670018404722,0.00041969725862145424
1783246406508725800,5.509725830078125,0.00018095225095748901,0.0008194006513804197,0.0012642331421375275
1783246406518737700,5.519737548828125,-0.0009668704587966204,0.00019861781038343906,-0.00019944040104746819
1783246406528748500,5.52974853515625,0.0008787624537944794,-0.00013815704733133316,0.0015995549038052559
1783246406538760700,5.5397607421875,0.0005296219605952501,0.0004136499483138323,0.00039953459054231644
1783246406548771600,5.549771484375,0.00013103079982101917,0.0009586007799953222,0.00038596009835600853
1783246406558783500,5.559783447265625,-0.0012937604915350676,0.000987629289738834,0.00002163974568247795
1783246406568795600,5.569795654296875,0.0003375320229679346,-0.0020283120684325695,-0.0008279259782284498
1783246406578806300,5.57980615234375,0.0004371341783553362,0.0003126063384115696,-0.0001216554082930088
1783246406588818400,5.589818359375,0.0009686870034784079,-0.0004624444991350174,0.0009439974091947079
1783246406598829300,5.599829345703125,-0.0004667567554861307,0.0015024358872324228,0.00011974899098277092
1783246406608841200,5.60984130859375,0.0007732356898486614,-0.0008146215695887804,-0.0002710670232772827
1783246406618852000,5.61985205078125,-0.0005160004366189241,-0.0006415161769837141,0.000002705957740545273
1783246406628864300,5.6298642578125,-0.00038173189386725426,0.000745779019780457,-0.0009485373739153147
1783246406638876200,5.639876220703125,-0.0011963930446654558,-0.0001980452798306942,0.00026373378932476044
1783246406648887000,5.649886962890625,0.0005246168002486229,0.000014166347682476044,0.0006624851375818253
1783246406658899200,5.659899169921875,-0.00017153355292975903,-0.00013204128481447697,-0.00003925757482647896
1783246406668910300,5.669910400390625,-0.0003281014505773783,-0.0011588458437472582,0.0003245137631893158
1783246406678922200,5.679922119140625,-0.0001592568587511778,0.001031337771564722,-0.0003354176878929138
1783246406688934400,5.689934326171875,0.0005249730311334133,-0.00027007143944501877,-0.0004930640570819378
1783246406698945300,5.6999453125,-0.0009280473459511995,0.001154719851911068,-0.0004544481635093689
1783246406708957200,5.709957275390625,-0.000019986415281891823,0.00009622960351407528,-0.0005888435989618301
1783246406718968000,5.719968017578125,0.00012861797586083412,0.00032978877425193787,0.0005800179205834866
1783246406728980200,5.729980224609375,-0.0013373480178415775,-0.0005399163346737623,-0.0003579789772629738
1783246406738991400,5.739991455078125,0.0013170248130336404,0.0006039113504812121,0.0011525661684572697
1783246406749003300,5.750003173828125,-0.000041768187656998634,0.00023058615624904633,0.0005235215649008751
1783246406759015400,5.760015380859375,0.00034465640783309937,-0.0004314756952226162,0.0007946314290165901
1783246406769026300,5.7700263671875,-0.0002052325289696455,0.00037109560798853636,0.0004503033123910427
1783246406779038200,5.7800380859375,-0.000060889171436429024,0.00019639241509139538,0.0012990529648959637
1783246406789049000,5.790049072265625,-0.0011986179742962122,-0.0009117312729358673,-0.00001560105010867119
1783246406799061200,5.800061279296875,0.0007620009128004313,0.0005495452787727118,0.0003274143673479557
1783246406809072400,5.810072265625,-0.0011920297984033823,-0.00035716453567147255,0.0004171072505414486
1783246406819084300,5.820084228515625,-0.000003461027517914772,0.0006891915109008551,-0.00034508947283029556
1783246406829096200,5.83009619140625,0.0018492880044505,0.00047619605902582407,-0.00027943914756178856
1783246406839107300,5.840107421875,0.0020024196710437536,-0.0004356703720986843,-0.0004874318838119507
1783246406849119200,5.850119140625,-0.00012639234773814678,0.0002745281672105193,0.00012001628056168556
1783246406859130000,5.860130126953125,-0.0003583538345992565,0.0015943908365443349,0.001627631951123476
1783246406869142300,5.870142333984375,0.00036643585190176964,-0.00046452321112155914,0.0003925897181034088
1783246406879153200,5.880153076171875,-0.001276734285056591,-0.001040564849972725,-0.0003251321613788605
1783246406889165000,5.8901650390625,0.0003721120301634073,-0.00011243205517530441,-0.00008739763870835304
1783246406899177200,5.90017724609375,-0.0010446896776556969,-0.0011603860184550285,-0.0007947331760078669
1783246406909188400,5.910188232421875,-0.00029969937168061733,-0.0004992617759853601,-0.00038362573832273483
1783246406919200300,5.9202001953125,0.0006276133935898542,-0.00038368068635463715,-0.0005207783542573452
1783246406929211100,5.930211181640625,-0.0007595964707434177,-0.00018679280765354633,0.00014552148059010506
1783246406939223300,5.940223388671875,-0.0027308682911098003,0.0000925727654248476,-0.000025719869881868362
1783246406949234200,5.950234130859375,0.0014920280082151294,0.0019380233716219664,0.0008463733829557896
1783246406959246000,5.96024609375,0.00025179400108754635,-0.0005778649356216192,-0.000025012996047735214
1783246406969258200,5.97025830078125,0.00014890450984239578,-0.0014855486806482077,0.00023484975099563599
1783246406979269400,5.980269287109375,0.0014453312614932656,-0.00043626315891742706,0.00024683400988578796
1783246406989281300,5.99028125,-0.00005571870133280754,-0.0009476651903241873,-0.0003603976219892502
1783246406999292200,6.000292236328125,0.0005133990198373795,0.0010252045467495918,0.0001618480309844017
1783246407009304300,6.01030419921875,-0.0011019951198250055,-0.00018685241229832172,-0.0006882883608341217
1783246407019316200,6.020316162109375,-0.00009638560004532337,0.00009331223554909229,0.0007189260795712471
1783246407029327000,6.0303271484375,0.0000931385438889265,0.0007222160929813981,0.0009478237479925156
1783246407039339300,6.04033935546875,-0.0004024757072329521,0.0006545718060806394,-0.0016215941868722439
1783246407049350100,6.05035009765625,-0.000052426476031541824,0.000876228092238307,0.0015238742344081402
1783246407059362000,6.060362060546875,-0.00029131188057363033,0.0013095245230942965,0.001022933516651392
1783246407069373200,6.070373291015625,-0.00026283529587090015,-0.0010650784242898226,0.0010930630378425121
1783246407079385300,6.08038525390625,0.00004183035343885422,0.0004414718132466078,0.0006065033376216888
1783246407089397200,6.090397216796875,0.0011831496376544237,0.0003248387947678566,-0.001087317941710353
1783246407099408100,6.100408203125,-0.0004368510562926531,-0.000020040664821863174,-0.0014052994083613157
1783246407109420300,6.110420166015625,0.0008796975016593933,0.00048143602907657623,-0.00020225765183568
1783246407119431200,6.12043115234375,0.00008634175173938274,-0.0000503971241414547,-0.000006249174475669861
1783246407129443000,6.130443115234375,0.00003353063948452473,0.00038296752609312534,0.0004623555578291416
1783246407139454200,6.1404541015625,0.0011448676232248545,-0.0005643188487738371,-0.00014644302427768707
1783246407149466400,6.15046630859375,0.0009124425705522299,-0.0006720321252942085,-0.000702717574313283
1783246407159478300,6.160478271484375,-0.0007099548820406199,-0.0003319464158266783,0.0003074193373322487
1783246407169489200,6.1704892578125,0.0005956725217401981,0.0004965701373293996,-0.0009300259407609701
1783246407179501300,6.180501220703125,0.00008248141966760159,-0.000639268197119236,-0.001074635423719883
1783246407189512200,6.19051220703125,0.00005669984966516495,0.0005363122327253222,-0.0022236055228859186
1783246407199524000,6.200524169921875,0.00011289259418845177,0.001758170546963811,0.00143025116994977
1783246407209535500,6.210535400390625,-0.0007515789475291967,0.000181743991561234,0.0002613356336951256
1783246407219547400,6.22054736328125,-0.0011015182826668024,-0.0003788513131439686,0.000014194287359714508
1783246407229559300,6.230559326171875,-0.00035726558417081833,0.00025407830253243446,0.00097681675106287
1783246407239570200,6.240570068359375,-0.0016733997035771608,0.0005246554501354694,-0.0007584989070892334
1783246407249582300,6.250582275390625,0.0005659034941345453,0.0009384265867993236,0.00016493769362568855
1783246407259593200,6.26059326171875,-0.0024328159634023905,0.0010332351084798574,-0.0018473470117896795
1783246407269605000,6.270605224609375,0.000622566556558013,-0.0005398367065936327,0.00013667065650224686
1783246407279616300,6.2806162109375,-0.0010102177038788795,0.00021650095004588366,-0.00018184352666139603
1783246407289628200,6.290628173828125,0.001850698608905077,-0.00047339661978185177,-0.0014363524969667196
1783246407299640000,6.30064013671875,0.00029834196902811527,0.00022488413378596306,0.0002912399359047413
1783246407309651200,6.310651123046875,0.0007166687864810228,0.0009198978077620268,-0.00008621253073215485
1783246407319663400,6.320663330078125,0.00012997444719076157,0.0004908625269308686,-0.0015821103006601334
1783246407329674200,6.33067431640625,0.0005622629541903734,-0.0004989388398826122,-0.0007668239995837212
1783246407339686100,6.34068603515625,0.0009257844649255276,-0.00018122373148798943,-0.0009681589435786009
1783246407349697300,6.350697265625,-0.0009730684105306864,-0.00005767191760241985,-0.0011004062835127115
1783246407359709200,6.360709228515625,0.0006085827481001616,0.0004619108512997627,0.001513219904154539
1783246407369721000,6.37072119140625,-0.00025297747924923897,-0.00005406094714999199,0.00035517336800694466
1783246407379732200,6.380732177734375,0.0009592934511601925,0.00040000793524086475,0.00033147120848298073
1783246407389744400,6.390744384765625,0.0005257376469671726,-0.0008716201409697533,0.0004995963536202908
1783246407399755300,6.40075537109375,-0.0007198229432106018,-0.0002532342914491892,-0.00018030870705842972
1783246407409767200,6.41076708984375,0.0019755237735807896,0.00022856099531054497,0.000669628381729126
1783246407419779300,6.420779296875,0.0001640415284782648,0.0005867561558261514,0.001199331134557724
1783246407429790200,6.430790283203125,0.0022259457036852837,0.0005641656462103128,-0.00017169956117868423
1783246407439802000,6.440802001953125,0.001078922301530838,0.0010776231065392494,-0.00043641775846481323
1783246407449813200,6.450813232421875,-0.00047768279910087585,0.000632219947874546,0.00014596711844205856
1783246407459825200,6.4608251953125,-0.0007807505317032337,-0.000025580869987607002,0.00010735122486948967
1783246407469836300,6.470836181640625,-0.0005031386390328407,0.0010066673858091235,-0.00041327299550175667
1783246407479848200,6.48084814453125,-0.0003856932744383812,0.00016670639161020517,0.00034865736961364746
1783246407489860400,6.4908603515625,-0.00013845087960362434,0.00233864295296371,0.004720199387520552
1783246407499871200,6.500871337890625,-0.0017712346743792295,0.05141138285398483,0.01507403701543808
1783246407509883100,6.510883056640625,0.0009897684212774038,-0.022711969912052155,-0.004740759264677763
1783246407519894300,6.520894287109375,0.0014430383453145623,-0.019059443846344948,-0.003409178927540779
1783246407529906200,6.53090625,-0.001297015929594636,0.03487387299537659,0.006860171444714069
1783246407539917300,6.540917236328125,0.0022116987966001034,-0.011632375419139862,-0.0012574095744639635
1783246407549929200,6.55092919921875,0.0009073719847947359,-0.004729512147605419,-0.0016084054950624704
1783246407559941400,6.56094140625,-0.0003432484809309244,0.009637443348765373,0.0012856516987085342
1783246407569952300,6.5709521484375,0.0012309984304010868,-0.01036070380359888,-0.0013786402996629477
1783246407579964200,6.580964111328125,0.0007697390392422676,0.001354009611532092,0.000437901820987463
1783246407589975000,6.59097509765625,0.0008454956114292145,-0.0004675602540373802,-0.001851092092692852
1783246407599987000,6.600987060546875,0.000463598407804966,-0.012238466180860996,-0.0059270597994327545
1783246407609998000,6.610998046875,-0.00031399819999933243,-0.01142209768295288,-0.005545557476580143
1783246407620010200,6.62101025390625,-0.0009417051915079355,-0.010709702037274837,-0.001973459729924798
1783246407630022100,6.631022216796875,0.0010556895285844803,0.00396741833537817,0.001519402489066124
1783246407640033000,6.641032958984375,0.0005928322207182646,-0.0011101644486188889,-0.0002878187224268913
