time,seconds_elapsed,z,y,x
1783246483114350300,0.051350341796875,0.0005178814753890038,-0.0007832590490579605,0.000542852096259594
1783246483124362500,0.061362548828125,0.0014151005307212472,0.00012514519039541483,-0.00013678660616278648
1783246483134374400,0.07137451171875,0.002304826630279422,-0.000565793365240097,-0.0006443839520215988
1783246483144385300,0.08138525390625,-0.0008278496097773314,-0.0005889630410820246,-0.0002880529500544071
1783246483154397400,0.0913974609375,-0.0005774609744548798,-0.0022286123130470514,-0.00020556757226586342
1783246483164409300,0.101409423828125,0.00020231259986758232,0.0009019332937896252,-0.0007350039668381214
1783246483174420500,0.11142041015625,0.0005493664648383856,-0.0004476702306419611,-0.00042891083285212517
1783246483184432400,0.121432373046875,0.0005307241808623075,-0.0014064081478863955,0.000592411495745182
1783246483194443500,0.131443603515625,0.0007185132708400488,-0.0001985479611903429,0.00007762433961033821
1783246483204455400,0.141455322265625,-0.0007507526315748692,-0.0001801720354706049,0.0008707134984433651
1783246483214467600,0.151467529296875,0.000021559186279773712,0.0005780714564025402,-0.0006202608346939087
1783246483224478500,0.161478515625,0.0008753684815019369,0.00018285843543708324,0.0005651121027767658
1783246483234490400,0.171490478515625,0.0001409333199262619,0.000525861862115562,0.000053411815315485
1783246483244502500,0.18150244140625,0.0004357451107352972,-0.0008667050860822201,0.0005239923484623432
1783246483254513400,0.191513427734375,0.000178920803591609,-0.00013288459740579128,-0.0010883095674216747
1783246483264525300,0.201525390625,0.00002738693729043007,0.0007954933680593967,-0.0013631477486342192
1783246483274537200,0.211537109375,0.00044301082380115986,-0.0004898933693766594,0.00016654888167977333
1783246483284548600,0.221548583984375,0.0006355573423206806,0.0003290286986157298,0.00010343175381422043
1783246483294560500,0.231560546875,0.001104917610064149,-0.001652539474889636,-0.00003749597817659378
1783246483304572400,0.241572509765625,-0.0005323938094079494,0.00038264819886535406,0.0013955510221421719
1783246483314583600,0.25158349609375,0.00042208307422697544,0.00003270874731242657,-0.0009584170766174793
1783246483324595500,0.261595458984375,0.0013890768168494105,-0.0001446576789021492,-0.00045268284156918526
1783246483334607400,0.271607421875,-0.0009679514914751053,0.00011410051956772804,-0.00017911521717905998
1783246483344618200,0.2816181640625,0.0015748345758765936,0.0003772206837311387,-0.00016340240836143494
1783246483354630400,0.29163037109375,-0.001437080791220069,-0.0005040473770350218,-0.00023477477952837944
1783246483364642300,0.301642333984375,0.000047897687181830406,-0.0002390630543231964,0.0009002643637359142
1783246483374653400,0.3116533203125,0.0009073629043996334,-0.00014559761621057987,0.0017993184737861156
1783246483384665600,0.32166552734375,-0.0010977310594171286,0.0003164608497172594,0.00004509417340159416
1783246483394677500,0.331677490234375,-0.0010363291949033737,0.0008227931102737784,-0.0005492544732987881
1783246483404688400,0.3416884765625,0.001166637521237135,-0.0011990787461400032,-0.0008800188079476357
1783246483414700500,0.351700439453125,0.0005783219821751118,0.001159299397841096,-0.0010329503566026688
1783246483424712400,0.36171240234375,-0.0006499278824776411,-0.00044099404476583004,-0.0009626429527997971
1783246483434723300,0.371723388671875,-0.0027764381375163794,0.0006177921313792467,-0.0004083537496626377
1783246483444735500,0.381735595703125,0.0005937921814620495,-0.000773176783695817,-0.0005471045151352882
1783246483454747400,0.391747314453125,0.0008442774415016174,-0.0009615845046937466,-0.0007171588949859142
1783246483464758300,0.40175830078125,-0.0006601421628147364,-0.00008620345033705235,0.00010629044845700264
1783246483474770400,0.4117705078125,0.00033784075640141964,-0.0014672735705971718,-0.0002858806401491165
1783246483484782300,0.4217822265625,0.001029197359457612,-0.00020999531261622906,0.0010707336477935314
1783246483494793500,0.43179345703125,-0.00029788888059556484,0.000408593681640923,-0.0007228264585137367
1783246483504805400,0.441805419921875,-0.0011695416178554296,-0.0011613399256020784,-0.00008766259998083115
1783246483514817500,0.451817626953125,-0.001609012484550476,0.001030560815706849,-0.00026246393099427223
1783246483524828400,0.461828369140625,-0.00020206463523209095,0.0009216375183314085,0.0002845493145287037
1783246483534840300,0.47184033203125,-0.000345845241099596,0.0005689577665179968,0.0018186727538704872
1783246483544851500,0.4818515625,0.00082621187902987,-0.0002584864851087332,0.00014727283269166946
1783246483554863400,0.49186328125,-0.0014171150978654623,-0.00008936459198594093,-0.0002032201737165451
1783246483564875300,0.501875244140625,-0.0003153651487082243,0.0006882783491164446,0.0010410086251795292
1783246483574886400,0.511886474609375,-0.0004912298172712326,0.0005616857670247555,0.00011539971455931664
1783246483584898600,0.521898681640625,0.0007908160332590342,0.0012647602707147598,0.00009755650535225868
1783246483594910500,0.531910400390625,0.0004726939368993044,-0.00017151585780084133,0.0010407022200524807
1783246483604921300,0.54192138671875,-0.0006500948220491409,0.0001728308852761984,-0.002448038663715124
1783246483614933500,0.55193359375,-0.000497033353894949,0.0005616043927147985,0.001076964195817709
1783246483624945400,0.5619453125,0.000573823694139719,-0.0007204413414001465,0.00020904000848531723
1783246483634956300,0.571956298828125,0.0006264697294682264,-0.00023973267525434494,0.000818649772554636
1783246483644968400,0.581968505859375,-0.0002835323102772236,0.0010883858194574714,-0.000009859446436166763
1783246483654979800,0.591979736328125,0.00036579067818820477,0.001390539575368166,-0.0005039279349148273
1783246483664991200,0.6019912109375,0.0005346352700144053,0.00045443850103765726,-0.0005510654300451279
1783246483675003100,0.612003173828125,0.0004915944300591946,-0.0011631741654127836,0.0010368600487709045
1783246483685015000,0.62201513671875,0.0014964049914851785,0.0016347428318113089,0.001144451554864645
1783246483695026200,0.632026123046875,0.0015712768072262406,-0.00007692514918744564,-0.00040847621858119965
1783246483705038000,0.6420380859375,0.000051943352445960045,-0.00020156102254986763,0.00022695399820804596
1783246483715050000,0.652050048828125,0.0002474465873092413,-0.00027013663202524185,-0.0004148031584918499
1783246483725060900,0.662060791015625,-0.0005445773713290691,-0.000011543510481715202,0.0005527231842279434
1783246483735073000,0.672072998046875,-0.0004744709003716707,0.00008872430771589279,0.00011739786714315414
1783246483745085000,0.6820849609375,-0.000705633545294404,0.0005041772965341806,-0.00008074147626757622
1783246483755096000,0.692095947265625,-0.0006032800301909447,0.00014157290570437908,0.00012361817061901093
1783246483765108200,0.702108154296875,0.000425499165430665,0.0004582226974889636,-0.00016640033572912216
1783246483775120100,0.7121201171875,0.0008553208317607641,0.00043403333984315395,0.0007367967627942562
1783246483785131000,0.722131103515625,-0.001109559554606676,-0.001204875996336341,0.0005122926086187363
1783246483795143200,0.73214306640625,0.0005309907719492912,-0.0004202884156256914,-0.00012092245742678642
1783246483805155000,0.742155029296875,-0.0006719592493027449,-0.00040377676486968994,-0.000017591752111911774
1783246483815166000,0.752166015625,0.0010880897752940655,0.00020631635561585426,-0.00013646623119711876
1783246483825178000,0.76217822265625,-0.0012472360394895077,-0.00019768532365560532,-0.00045418133959174156
1783246483835190000,0.77218994140625,0.00009329617023468018,-0.0005279721226543188,-0.0016011218540370464
1783246483845201000,0.782200927734375,-0.0010382807813584805,0.00034927320666611195,-0.00016754213720560074
1783246483855213000,0.792213134765625,0.0015123758930712938,0.0004835588624700904,0.001609988510608673
1783246483865224200,0.80222412109375,-0.0013111073058098555,0.0001967365387827158,0.0006725555285811424
1783246483875236000,0.812236083984375,-0.0003570578992366791,-0.000999667914584279,-0.00046754302456974983
1783246483885248000,0.822248046875,-0.0017943659331649542,-0.00013014581054449081,0.00021742191165685654
1783246483895259100,0.832259033203125,0.0011408727150410414,-0.0005966091994196177,0.0003758571110665798
1783246483905271000,0.84227099609375,-0.0005169450305402279,-0.00010605505667626858,-0.00009365798905491829
1783246483915283000,0.852282958984375,-0.00011435174383223057,-0.0004661558195948601,-0.00037226034328341484
1783246483925294000,0.862294189453125,0.0014904690906405449,-0.0012584461364895105,-0.0007919748313724995
1783246483935306000,0.872305908203125,-0.0003039613366127014,0.00021983589977025986,0.00047783181071281433
1783246483945318000,0.88231787109375,-0.0002493665087968111,-0.00025154370814561844,0.0006863572634756565
1783246483955329000,0.8923291015625,-0.0006432242225855589,-0.0018069944344460964,0.00005378527566790581
1783246483965341200,0.902341064453125,0.000445209676399827,-0.0014581200666725636,-0.0007411681581288576
1783246483975353000,0.91235302734375,-0.0015965159982442856,0.0009885833133012056,-0.0006217244081199169
1783246483985364000,0.922364013671875,0.00036623398773372173,0.0012303984258323908,0.00014979299157857895
1783246483995376000,0.932376220703125,0.00007483852095901966,0.00048137654084712267,0.0001420103944838047
1783246484005388000,0.942387939453125,0.0006141285412013531,0.00039988383650779724,-0.0015027578920125961
1783246484015399000,0.95239892578125,0.00009270221926271915,-0.0003544043283909559,0.0016571669839322567
1783246484025411000,0.9624111328125,0.00016593909822404385,0.00003947713412344456,-0.0008193063549697399
1783246484035423000,0.972423095703125,0.000769775127992034,-0.0004746634513139725,-0.00022744666785001755
1783246484045434000,0.98243408203125,0.0008182446472346783,-0.0010309978388249874,-0.0007054840680211782
1783246484055446300,0.9924462890625,-0.0004103120882064104,0.0009696000488474965,0.0007992084138095379
1783246484065458200,1.002458251953125,-0.000028947368264198303,0.00018423376604914665,-0.001245300518348813
1783246484075469000,1.012468994140625,-0.00025438424199819565,-0.00028783013112843037,0.00038321176543831825
1783246484085481200,1.022481201171875,0.0009935731068253517,-0.001479594735428691,0.00026496732607483864
1783246484095493000,1.0324931640625,0.0012921243906021118,0.00047964160330593586,0.0005935793742537498
1783246484105504000,1.04250390625,0.00014563370496034622,0.00033316772896796465,0.0004881182685494423
1783246484115516000,1.052515869140625,0.000678082462400198,0.0007028221152722836,-0.0010031249839812517
1783246484125528000,1.062528076171875,-0.00025961664505302906,0.000802690745331347,0.0001755901612341404
1783246484135539000,1.0725390625,-0.00040602567605674267,0.00043322506826370955,-0.000032709911465644836
1783246484145550800,1.08255078125,0.000884542241692543,-0.0007793121039867401,0.00015530921518802643
1783246484155563000,1.09256298828125,0.001566666760481894,0.00016083195805549622,0.0006095748394727707
1783246484165574100,1.10257421875,-0.0021388554014265537,0.0005262175109237432,0.00048467284068465233
1783246484175586000,1.1125859375,-0.00018828408792614937,0.00004652165807783604,-0.00040172599256038666
1783246484185597000,1.122596923828125,-0.0007012088317424059,0.000313902972266078,-0.0003228960558772087
1783246484195609000,1.132609130859375,-0.0008502244018018246,0.00021822459530085325,0.0005820924416184425
1783246484205621000,1.14262109375,-0.001210549846291542,-0.0010190801694989204,-0.000022178981453180313
1783246484215632000,1.1526318359375,-0.00029739667661488056,-0.0004979122895747423,0.0004905387759208679
1783246484225644000,1.16264404296875,-0.0010116565972566605,0.00025389809161424637,0.0008226349018514156
1783246484235656000,1.172656005859375,0.0019495344022288918,-0.00012004189193248749,-0.0004435223527252674
1783246484245667000,1.1826669921875,0.0012083766050636768,0.0007510780123993754,0.00008245185017585754
1783246484255679200,1.19267919921875,-0.00041649327613413334,0.00039743573870509863,-0.0013873933348804712
1783246484265691100,1.202691162109375,-0.0004905292298644781,-0.0016731719952076674,-0.000536247156560421
1783246484275702000,1.212701904296875,0.0009114714339375496,-0.001468299189582467,0.0013281432911753654
1783246484285714200,1.222714111328125,0.0007940260693430901,-0.00019823783077299595,0.0006186771206557751
1783246484295726000,1.23272607421875,-0.000037141842767596245,0.0015523715410381556,0.0002944949083030224
1783246484305737000,1.242737060546875,-0.00036391173489391804,-0.000047655776143074036,0.00001859152689576149
1783246484315749000,1.2527490234375,0.00029017659835517406,0.0012721398379653692,-0.0005574389360845089
1783246484325761000,1.262760986328125,-0.00016682175919413567,0.0001426932867616415,0.0002782610245049
1783246484335772200,1.272772216796875,0.0008134227246046066,-0.0005131370853632689,-0.0003419993445277214
1783246484345784000,1.2827841796875,0.0005332583095878363,0.000527359894476831,0.000599428080022335
1783246484355796200,1.292796142578125,-0.0009743450209498405,-0.0005246028304100037,-0.0015556847210973501
1783246484365807000,1.30280712890625,0.0015316896606236696,-0.00019543594680726528,0.00022437190636992455
1783246484375819000,1.312819091796875,-0.0006049501243978739,0.0006452370434999466,-0.0006812973879277706
1783246484385831200,1.3228310546875,-0.0006443650927394629,0.00041780318133533,-0.000015773344784975052
1783246484395842000,1.332842041015625,0.0012692720629274845,0.0002796261105686426,0.00038120150566101074
1783246484405854000,1.34285400390625,0.00029215821996331215,0.0002687071682885289,-0.00010429276153445244
1783246484415866000,1.3528662109375,0.0005102267023175955,0.0004770748782902956,-0.00030882470309734344
1783246484425877000,1.362876953125,-0.0006812717765569687,-0.0005431822501122952,-0.0002206740900874138
1783246484435889000,1.372888916015625,0.0009313139598816633,-0.00010403245687484741,-0.0006770361214876175
1783246484445901000,1.382901123046875,-0.00013661361299455166,-0.0003370591439306736,0.0012076827697455883
1783246484455912200,1.392912109375,0.00098432507365942,0.000746937352232635,-0.00027678441256284714
1783246484465924000,1.402924072265625,0.0007236015517264605,0.00037223054096102715,0.0005535893142223358
1783246484475935000,1.41293505859375,0.0007919655181467533,0.0015788073651492596,0.00010142941027879715
1783246484485947100,1.422947021484375,-0.00028208736330270767,-0.001344544580206275,-0.0007289440836757421
1783246484495959000,1.432958984375,-0.00006230827420949936,0.0004424559883773327,-0.001191818853840232
1783246484505970000,1.442969970703125,-0.000010110205039381981,-0.0007391886319965124,0.00024042930454015732
1783246484515982000,1.452982177734375,-0.0005520163103938103,0.00009836908429861069,0.0007897675968706608
1783246484525994000,1.462993896484375,-0.00022924132645130157,0.00015056715346872807,-0.0003229011781513691
1783246484536005000,1.473005126953125,0.001017760019749403,0.00023131468333303928,-0.0002497648820281029
1783246484546017300,1.483017333984375,-0.00015456345863640308,-0.0010227677412331104,0.0010378733277320862
1783246484556029200,1.493029296875,0.0011944635771214962,-0.00025239959359169006,0.0005151638761162758
1783246484566040000,1.5030400390625,-0.0005581625737249851,-0.00045426725409924984,-0.00012985384091734886
1783246484576052000,1.513052001953125,0.0009886529296636581,0.0008645583875477314,0.0012083034962415695
1783246484586064100,1.523064208984375,-0.0001471852883696556,-0.00012187636457383633,-0.0007946600671857595
1783246484596075000,1.533074951171875,-0.00039042113348841667,0.00028253020718693733,-0.000019935425370931625
1783246484606087000,1.5430869140625,0.00010253000073134899,0.002134492387995124,-0.0004023653455078602
1783246484616099000,1.55309912109375,0.00035648373886942863,0.0009141648188233376,0.00026867911219596863
1783246484626110000,1.56310986328125,0.00041613844223320484,-0.0005226104985922575,-0.0001001688651740551
1783246484636122000,1.5731220703125,0.0009388814214617014,-0.0007357196882367134,0.0005165762268006802
1783246484646134000,1.583134033203125,0.0010257004760205746,-0.0005663426127284765,-0.0002131299115717411
1783246484656146000,1.59314599609375,0.0006519600283354521,-0.00019822712056338787,0.00013823481276631355
1783246484666157800,1.60315771484375,0.0014791378052905202,-0.00016387226060032845,0.00024129915982484818
1783246484676170000,1.613169921875,-0.0001507592387497425,0.0005442667752504349,0.00047702481970191
1783246484686180900,1.623180908203125,0.00034884968772530556,-8.82195308804512e-7,-0.0003040805459022522
1783246484696192800,1.63319287109375,0.0002325698733329773,0.0006031529046595097,-0.0011258895974606276
1783246484706205000,1.643204833984375,-0.00023934245109558105,0.000016192207112908363,0.0003231363371014595
1783246484716215800,1.6532158203125,-0.0010943852830678225,-0.0008999230340123177,0.000699204858392477
1783246484726227700,1.663227783203125,-0.0011100980918854475,-0.0015164448413997889,-0.0005370345897972584
1783246484736238600,1.673238525390625,-0.0006676344200968742,0.00039326585829257965,-0.0006034779362380505
1783246484746250800,1.683250732421875,0.002099389908835292,-0.0007771933451294899,-0.0010468943510204554
1783246484756262700,1.6932626953125,0.0005877597723156214,0.00020471541211009026,0.0005967700853943825
1783246484766273800,1.703273681640625,-0.0011337075848132372,0.00003880052827298641,0.000055349431931972504
1783246484776286000,1.713285888671875,-0.0003170871641486883,0.0000998564064502716,-0.0009090860839933157
1783246484786297900,1.7232978515625,-0.0007573075126856565,-0.00037418631836771965,-0.00012824730947613716
1783246484796308700,1.733308837890625,-0.00028861803002655506,0.0013807578943669796,-0.0013159343507140875
1783246484806321000,1.74332080078125,0.00010552979074418545,0.0002579691354185343,-0.00022270670160651207
1783246484816332800,1.753332763671875,0.0013176496140658855,0.0007607795996591449,0.0012756488285958767
1783246484826343700,1.76334375,0.001824715523980558,-0.0011029005981981754,0.0010540741495788097
1783246484836355800,1.77335595703125,0.0019907131791114807,-0.0004222877323627472,0.00003448920324444771
1783246484846367700,1.78336767578125,0.00009187916293740273,0.0004690721398219466,0.0009343712590634823
1783246484856379000,1.79337890625,-0.0013649279717355967,-0.000020483043044805527,-0.00012267660349607468
1783246484866390800,1.803390869140625,0.0008399030193686485,0.0009877895936369896,-0.001259846379980445
1783246484876403000,1.81340283203125,0.000045116525143384933,0.0001245676539838314,-0.0003401394933462143
1783246484886413800,1.823413818359375,0.000556709710508585,0.00017330353148281574,0.0012508328072726727
1783246484896425700,1.83342578125,-0.00044325110502541065,-0.00007363897748291492,-0.00035704439505934715
1783246484906438000,1.84343798828125,0.0012222898658365011,0.0011982866562902927,-0.0004329443909227848
1783246484916448800,1.85344873046875,-0.0009441145230084658,0.0001072147861123085,-0.00011928146705031395
1783246484926460700,1.863460693359375,-0.0006975054275244474,-0.0010398086160421371,-0.00009877514094114304
1783246484936472800,1.873472900390625,-0.000060102203860878944,0.0001906056422740221,-0.0009647265542298555
1783246484946484000,1.88348388671875,-0.000571429030969739,-0.0005268498789519072,-0.0009085338097065687
1783246484956496000,1.893495849609375,-0.0006301014218479395,0.00016661430709064007,-0.00009187497198581696
1783246484966508000,1.903508056640625,0.00027484074234962463,0.001552789704874158,0.0007270472124218941
1783246484976519000,1.913518798828125,0.0002476833760738373,-0.00031811301596462727,-0.0005797725170850754
1783246484986530800,1.92353076171875,-0.0007430124096572399,0.0014172026421874762,-0.0007512802258133888
1783246484996541700,1.933541748046875,-0.0000673048198223114,0.00036439334508031607,0.0006604655645787716
1783246485006553900,1.943553955078125,-0.0001360143069177866,0.0011095458175987005,0.000813597347587347
1783246485016565800,1.953565673828125,0.0013627620646730065,-0.0009437601547688246,0.0008062724955379963
1783246485026576600,1.96357666015625,0.00008630892261862755,-0.00032537407241761684,-0.0006973482668399811
1783246485036588800,1.9735888671875,0.00027825823053717613,0.0009940379532054067,-0.0004688827320933342
1783246485046600700,1.9836005859375,0.0009267379064112902,0.0010848516831174493,-0.0010076400358229876
1783246485056611800,1.99361181640625,0.00017255707643926144,0.00042557832784950733,-0.0014886055141687393
1783246485066624000,2.0036240234375,-0.00012944545596837997,-0.00107777607627213,-0.0005844621919095516
1783246485076636000,2.013635986328125,-0.000034051015973091125,0.0004287466872483492,0.0002955682575702667
1783246485086646800,2.023646728515625,-0.000604500062763691,-0.00009083608165383339,-0.000605379231274128
1783246485096658700,2.03365869140625,-0.0015101940371096134,0.0004144011763855815,0.0007867305539548397
1783246485106670800,2.0436708984375,-0.0009812903590500355,0.0002948252949863672,-0.00004550721496343613
1783246485116681700,2.053681640625,0.0005625418853014708,0.0009018228156492114,-0.0006955389399081469
1783246485126693600,2.063693603515625,-0.0010225714650005102,-0.00039114197716116905,-0.00008274568244814873
1783246485136705800,2.073705810546875,-0.0021214615553617477,0.0013275945093482733,0.0007614851929247379
1783246485146717000,2.083717041015625,0.0003661974333226681,0.00007031625136733055,0.0010829288512468338
1783246485156728800,2.093728759765625,-0.00044793495908379555,0.00009208382107317448,0.0008023986592888832
1783246485166741000,2.103740966796875,-0.0001954671461135149,0.0009184627560898662,-0.0006554154679179192
1783246485176751900,2.113751953125,-0.0007064912933856249,0.0009024646133184433,-0.000528181903064251
1783246485186763800,2.123763671875,-0.0004849163815379143,-3.4691765904426575e-7,0.00037622731178998947
1783246485196776000,2.13377587890625,0.00010129017755389214,0.00016655703075230122,-0.00009969202801585197
1783246485206786800,2.143786865234375,0.0013061041245236993,0.00044858583714812994,-0.0012275406625121832
1783246485216798700,2.153798828125,0.0016911018174141645,0.0007638027891516685,-0.0004908302798867226
1783246485226810600,2.163810546875,0.000022098654881119728,0.001279923366382718,0.000029284972697496414
1783246485236822000,2.173822021484375,-0.0006118190940469503,-0.001487222034484148,0.00020921370014548302
1783246485246834000,2.183833984375,-0.0002536238171160221,-0.0009860149584710598,0.00025528622791171074
1783246485256844800,2.1938447265625,0.0014295981964096427,0.0008582303998991847,0.0004364694468677044
1783246485266857000,2.20385693359375,0.0007417036686092615,0.0008875251514837146,0.0008697658777236938
1783246485276868900,2.213868896484375,-0.0015338370576500893,0.0005273862043395638,-0.0013920178171247244
1783246485286879700,2.223879638671875,-0.0003684377297759056,-0.0003237600903958082,0.0006192014552652836
1783246485296891600,2.2338916015625,0.0020012445747852325,0.0017408214043825865,-0.0009468903299421072
1783246485306903800,2.24390380859375,-0.0019231894984841347,-0.0002589460927993059,0.0001604519784450531
1783246485316914700,2.253914794921875,-0.00026829098351299763,0.0006216056644916534,0.00018517905846238136
1783246485326926600,2.263926513671875,0.00003184727393090725,0.00029297161381691694,0.0008989060297608376
1783246485336938800,2.273938720703125,0.0007844055071473122,0.0002795046893879771,0.0015343604609370232
1783246485346950000,2.283949951171875,-0.0007796692661941051,0.0007247852627187967,-0.00002811616286635399
1783246485356961800,2.2939619140625,-0.0001552598550915718,0.0014610441867262125,0.00035115424543619156
1783246485366974000,2.303973876953125,-0.001096953870728612,0.0004024376394227147,0.001085654366761446
1783246485376984800,2.31398486328125,-0.0007783372420817614,-0.0003925797063857317,0.00023528141900897026
1783246485386996700,2.323996826171875,-0.00004836497828364372,-0.00013691606000065804,-0.0009540861938148737
1783246485397009000,2.3340087890625,-0.00012937863357365131,-0.00006397580727934837,-0.0006493278779089451
1783246485407019800,2.344019775390625,0.00047009880654513836,-0.0015010177157819271,0.0012886547483503819
1783246485417031700,2.35403173828125,-0.0006729376036673784,0.0009248513961210847,-0.000690497225150466
1783246485427043800,2.3640439453125,-0.0008809303399175406,0.0008817081106826663,0.0005582589656114578
1783246485437055000,2.374054931640625,0.0016488025430589914,-0.00017860042862594128,-0.0005795792676508427
1783246485447067000,2.38406689453125,-0.0002668092492967844,-0.000028131762519478798,-0.0008360415231436491
1783246485457078800,2.394078857421875,0.0002196796704083681,0.00006680050864815712,-0.00010832305997610092
1783246485467090000,2.40408984375,0.0003238092176616192,0.0005738664185628295,0.0014568166807293892
1783246485477101800,2.414101806640625,-0.00044890656135976315,-0.0005041901022195816,0.0005076839588582516
1783246485487112700,2.42411279296875,0.0018414120422676206,0.0010183389531448483,0.000687980093061924
1783246485497124900,2.434124755859375,-0.0006336318328976631,-0.00025264150463044643,0.000023734290152788162
1783246485507136800,2.44413671875,-0.0006967487279325724,0.0011543065775185823,0.0004804665222764015
1783246485517148000,2.45414794921875,0.001108815660700202,0.000121330376714468,0.0015344261191785336
1783246485527159800,2.464159912109375,-0.0003130459226667881,-0.000022213906049728394,0.0007439996115863323
1783246485537172000,2.474171875,0.00033191987313330173,-0.00005030701868236065,0.00038985395804047585
1783246485547182800,2.484182861328125,-0.0010052535217255354,-0.00012620724737644196,0.001405583694577217
1783246485557194800,2.49419482421875,-0.0021193274296820164,-0.0003953143022954464,0.000826345756649971
1783246485567207000,2.50420703125,-0.0013720444403588772,0.0004414507420733571,-0.000530534889549017
1783246485577217800,2.5142177734375,0.0014054670464247465,0.0004451674176380038,0.00011444743722677231
1783246485587229700,2.524229736328125,0.0010211728513240814,-0.00006509432569146156,-0.0008914284408092499
1783246485597241900,2.534241943359375,0.0002348709385842085,-0.0022285436280071735,-0.0015875978861004114
1783246485607252700,2.544252685546875,0.00022768042981624603,0.0008889526361599565,-0.0007324567995965481
1783246485617264600,2.5542646484375,0.0002369165886193514,-0.0017509351018816233,-0.0006123571656644344
1783246485627276800,2.56427685546875,-0.0006235507316887379,-0.0003871303051710129,-0.0010650944896042347
1783246485637288000,2.574287841796875,0.00018429686315357685,-0.0008514714427292347,0.0014022206887602806
1783246485647299800,2.5842998046875,0.0006178596522659063,-0.00023734639398753643,-0.0011181947775185108
1783246485657311200,2.594311279296875,0.000015961239114403725,0.0012187229003757238,0.000527440570294857
1783246485667322000,2.604322021484375,0.00038773869164288044,-0.0012247273698449135,0.000292816199362278
1783246485677334000,2.614333984375,-0.0010853912681341171,0.0009192998986691236,0.00006775977090001106
1783246485687346000,2.624345947265625,0.000175348948687315,-0.0012804712168872356,-0.000003080349415540695
1783246485697357000,2.634357177734375,0.0016004589851945639,-0.001157060032710433,0.0006583668291568756
1783246485707369200,2.644369140625,-0.00042886962182819843,-0.00045238761231303215,-0.00008385581895709038
1783246485717381000,2.654381103515625,0.0001868293620646,-0.0002409033477306366,-0.0004026968963444233
1783246485727392300,2.664392333984375,0.00037032109685242176,0.0008962665451690555,0.0005938583053648472
1783246485737404200,2.674404052734375,-0.0004027548711746931,-0.00026546488516032696,-0.0008636147249490023
1783246485747415000,2.6844150390625,-0.0006520268507301807,0.00003707013092935085,0.00011589610949158669
1783246485757427200,2.69442724609375,-0.00041607674211263657,0.0005147996125742793,0.00001892959699034691
1783246485767439000,2.704439208984375,0.00013067014515399933,0.0005563449813053012,-0.00010703783482313156
1783246485777450000,2.714449951171875,-0.0003547836095094681,0.00010127550922334194,0.0012466851621866226
1783246485787462000,2.7244619140625,-0.0002711603883653879,0.00047518336214125156,0.0007316297851502895
1783246485797474000,2.73447412109375,0.0003090540412813425,-0.0011931848712265491,-6.440095603466034e-7
1783246485807485200,2.744485107421875,-0.0004672575742006302,0.0007272204384207726,0.0013229469768702984
1783246485817497000,2.7544970703125,0.0007367564830929041,-0.0015544607304036617,-0.0005127070471644402
1783246485827509200,2.76450927734375,-0.000028369715437293053,0.00039950059726834297,-0.0011364195961505175
1783246485837520100,2.77452001953125,0.0014463408151641488,0.0003110343823209405,0.0005882126279175282
1783246485847532000,2.784531982421875,0.0005541818682104349,0.0008577812695875764,0.00032669026404619217
1783246485857544200,2.794544189453125,0.001261052442714572,-0.0011096224188804626,-0.0008475712966173887
1783246485867555000,2.80455517578125,-0.00048811174929142,0.000388671993277967,0.00040704384446144104
1783246485877567000,2.81456689453125,0.0004563939291983843,0.0004593179328367114,0.00028014183044433594
1783246485887579100,2.8245791015625,-0.0013963670935481787,0.0006372170755639672,0.0011195703409612179
1783246485897590300,2.83459033203125,0.0005304208025336266,-0.00010702945291996002,0.0009618569165468216
1783246485907602200,2.844602294921875,-0.001868820982053876,-0.00016908114776015282,0.0007370864041149616
1783246485917614000,2.854614013671875,-0.00037119118496775627,0.0008408533176407218,0.0002000732347369194
1783246485927625200,2.864625244140625,0.0006677079945802689,-0.00039139133878052235,-0.001814341638237238
1783246485937637000,2.87463720703125,0.0005886396393179893,-0.0003265365958213806,-0.00008928775787353516
1783246485947649000,2.88464892578125,-0.00019432976841926575,-0.0013406681828200817,-0.0016589546576142311
1783246485957660200,2.89466015625,0.0006228808779269457,-0.00005366886034607887,-0.0018833670765161514
1783246485967672000,2.904672119140625,0.0006095650605857372,-0.0003293061163276434,-0.00013020820915699005
1783246485977683000,2.914682861328125,0.0014715060824528337,-0.0008562356233596802,-0.0007561694364994764
1783246485987695000,2.924695068359375,0.00027095316909253597,-0.0004024328663945198,-0.0010539107024669647
1783246485997707000,2.93470703125,-0.0007898099720478058,0.0006680019432678819,0.00014938833191990852
1783246486007718100,2.94471826171875,0.0015013073571026325,-0.0008670440874993801,-0.0001440919004380703
1783246486017730000,2.95472998046875,0.0006061142776161432,0.0006088308291509748,0.00021519837900996208
1783246486027742200,2.9647421875,-0.000013603363186120987,0.000061018625274300575,-0.0005054529756307602
1783246486037753000,2.974753173828125,0.0001668452750891447,0.00020560307893902063,0.0009076925925910473
1783246486047765000,2.984764892578125,0.000193743035197258,0.00018243351951241493,0.00043098675087094307
1783246486057777200,2.994777099609375,0.0001572056207805872,0.0006339653627946973,0.0000734603963792324
1783246486067788000,3.0047880859375,0.0004283154848963022,-0.00010000169277191162,0.0009448463097214699
1783246486077800000,3.014800048828125,0.00035477709025144577,-0.0006102388724684715,-0.0005962741561233997
1783246486087812000,3.02481201171875,0.00028793164528906345,0.000020397594198584557,-0.0006452761590480804
1783246486097823200,3.0348232421875,-0.0003381341230124235,0.00018325622659176588,0.0010620038956403732
1783246486107835100,3.044835205078125,-0.0009549220558255911,-0.001658319728448987,-0.0001561259850859642
1783246486117847300,3.054847412109375,-0.00014702696353197098,0.0006240640068426728,0.0008786520920693874
1783246486127858200,3.064858154296875,-0.0013853968121111393,-0.0007549207657575607,-0.0003386787138879299
1783246486137870000,3.0748701171875,0.0016237152740359306,-0.0008353667799383402,0.0006941067986190319
1783246486147882000,3.084882080078125,-0.0003824438899755478,-0.0006396244280040264,0.000640310812741518
1783246486157893000,3.09489306640625,0.0003535263240337372,0.0008793098386377096,0.0006584892980754375
1783246486167905000,3.104905029296875,0.00026883790269494057,-0.0006698509678244591,0.0017549130134284496
1783246486177917000,3.1149169921875,-0.0005983361043035984,-0.0006268736906349659,0.0013794484548270702
1783246486187928300,3.12492822265625,0.0010741290170699358,0.00114625901915133,-0.0013039528857916594
1783246486197940200,3.134940185546875,0.000523565337061882,0.0012896729167550802,-0.00033423397690057755
1783246486207951000,3.144951171875,0.000824769027531147,0.000822021858766675,0.000501731876283884
1783246486217963000,3.154962890625,0.0004087642300873995,0.00040368514601141214,0.0019375737756490707
1783246486227975200,3.16497509765625,-0.000038114143535494804,0.00022578600328415632,0.0012408904731273651
1783246486237986000,3.174986083984375,-0.0004436974413692951,-0.00007930607534945011,-0.00016789045184850693
1783246486247998000,3.184998046875,-0.0008354487363249063,-0.00104976212605834,-0.00031569600105285645
1783246486258010000,3.195010009765625,0.0010741520673036575,0.0007656934903934598,0.0001696213148534298
1783246486268021000,3.20502099609375,0.0011196921113878489,0.0009531800169497728,0.0009978641755878925
1783246486278033000,3.215032958984375,0.000018266262486577034,-0.0007445535156875849,-0.0005421401001513004
1783246486288045000,3.225045166015625,-0.0014198408462107182,0.001337239402346313,-0.0002707638777792454
1783246486298056200,3.23505615234375,0.0009237723425030708,0.000599644030444324,0.00009988201782107353
1783246486308068000,3.245068115234375,-0.0001401605550199747,0.0004976449999958277,0.0005563478916883469
1783246486318080300,3.255080322265625,-0.00034732534550130367,0.0005044151330366731,-0.0005163121968507767
1783246486328091100,3.265091064453125,0.00008091097697615623,0.0019393262919038534,-0.0011389595456421375
1783246486338103000,3.27510302734375,0.00011055241338908672,0.0005258939927443862,-0.0004721209406852722
1783246486348115200,3.285115234375,0.000715889036655426,-0.00008769822306931019,0.00031164754182100296
1783246486358126000,3.2951259765625,0.001537915552034974,-0.0001892847940325737,0.00038197822868824005
1783246486368138000,3.305137939453125,0.0002548045013099909,-0.0005077989771962166,0.00036147190257906914
1783246486378150000,3.31514990234375,0.0009229122661054134,0.00008693733252584934,0.0004959516227245331
1783246486388161300,3.325161376953125,0.0005029316525906324,-0.0007828511297702789,-0.0001168414019048214
1783246486398173200,3.335173095703125,0.0008731444831937551,-0.0010625652503222227,-0.0004369467496871948
1783246486408184000,3.34518408203125,0.00020389212295413017,0.001271162647753954,0.0001630634069442749
1783246486418196200,3.3551962890625,0.0006210405845195055,0.0007414217106997967,0.0005730418488383293
1783246486428208000,3.3652080078125,0.0005214381963014603,-0.0012658026535063982,0.0009876959957182407
1783246486438219000,3.375218994140625,-0.0009056124836206436,-0.0010446605738252401,0.0002877581864595413
1783246486448231000,3.38523095703125,0.0012094699777662754,-0.0008446571882814169,-0.0005133203230798244
1783246486458243000,3.3952431640625,0.00009468849748373032,-0.00044781225733458996,-0.00015786383301019669
1783246486468254200,3.405254150390625,0.00018496951088309288,-0.0006704526022076607,-0.0011158029083162546
1783246486478266000,3.41526611328125,-0.0013772179372608662,-0.00037985784001648426,0.00034505315124988556
1783246486488278300,3.4252783203125,-0.001749528106302023,-0.001078138593584299,0.0012539899908006191
1783246486498289200,3.4352890625,-0.00014416873455047607,0.0005670589162036777,-0.0017877428326755762
1783246486508301000,3.445301025390625,0.00041189929470419884,-0.00028435373678803444,-0.0000929068773984909
1783246486518313200,3.455313232421875,-0.0003952109254896641,0.001340885879471898,-0.0017593728844076395
1783246486528324000,3.465323974609375,0.001090566860511899,0.001063917181454599,-0.00019263522699475288
1783246486538336000,3.4753359375,-0.00048678950406610966,0.00023957598023116589,0.000606311485171318
1783246486548348200,3.48534814453125,0.0006802075076848269,-0.0004275459796190262,0.0008119074627757072
1783246486558359000,3.495359130859375,-0.0005774383898824453,0.0004247761098667979,0.0008302475325763226
1783246486568371000,3.505370849609375,-0.00018648640252649784,0.0019323916640132666,-0.0005964078009128571
1783246486578383000,3.515383056640625,-0.0007275009993463755,-0.0002794703468680382,-0.00037016812711954117
1783246486588394200,3.525394287109375,0.0011212651152163744,-0.00025709974579513073,-0.00043887784704566
1783246486598406100,3.53540625,-0.0011408862192183733,-0.000824696384370327,0.0010628048330545425
1783246486608418000,3.54541796875,0.0011289259418845177,0.0020512512419372797,-0.0007436173036694527
1783246486618429200,3.55542919921875,-0.0009026289917528629,-0.00005687144584953785,-0.0006971850525587797
1783246486628441000,3.565441162109375,0.0004595781210809946,0.00023261411115527153,0.0011278791353106499
1783246486638452000,3.575451904296875,0.0006982211489230394,-0.00011439179070293903,-0.0016533550806343555
1783246486648464100,3.585464111328125,-0.0005995372775942087,0.000016635749489068985,0.00137412641197443
1783246486658476500,3.5954765625,-0.00037383660674095154,-0.0008438890799880028,-0.0012280289083719254
1783246486668487400,3.6054873046875,-0.0005653179250657558,0.0014855779008939862,-0.0008378757629543543
1783246486678499600,3.61549951171875,-0.0019203231204301119,0.0005905545549467206,-0.0015137488953769207
1783246486688511500,3.625511474609375,0.00013244152069091797,-0.00011651474051177502,0.00001543806865811348
1783246486698522600,3.635522705078125,0.0005144844762980938,0.0004125755513086915,-0.0008255285210907459
1783246486708534800,3.64553466796875,0.0011834704782813787,0.0004461314529180527,-0.0005016881041228771
1783246486718546700,3.655546630859375,0.0006331510376185179,-0.00003302539698779583,-0.002076082630082965
1783246486728557600,3.6655576171875,0.0008083870634436607,0.00003701564855873585,0.0002986579202115536
1783246486738569500,3.675569580078125,0.0003146000672131777,-0.00043789693154394627,-0.0008027465082705021
1783246486748581600,3.68558154296875,0.0001904966775327921,0.00056291907094419,-0.001609151717275381
1783246486758592500,3.695592529296875,0.000194549560546875,0.0009308388689532876,0.00005860254168510437
1783246486768604400,3.7056044921875,-0.0006536671426147223,0.00023069384042173624,0.0008924384601414204
1783246486778616600,3.715616455078125,0.00013954611495137215,-0.0008996995165944099,0.001640163827687502
1783246486788627700,3.725627685546875,0.0016186657594516873,-0.001435261219739914,-0.00004854658618569374
1783246486798639600,3.7356396484375,0.00038289139047265053,0.00008970836643129587,-0.0003666374832391739
1783246486808651800,3.74565185546875,-0.0017617521807551384,0.00013444945216178894,0.000016857869923114777
1783246486818662700,3.75566259765625,-0.0006672129966318607,-0.0006072211544960737,0.0008012237958610058
1783246486828674600,3.765674560546875,-0.0007170140743255615,-0.0005259946919977665,-0.0006912117823958397
1783246486838685400,3.775685546875,0.0008147035259753466,0.0012542488984763622,0.0005497089587152004
1783246486848697600,3.785697509765625,0.0009185667149722576,0.0007623630808666348,0.00025250017642974854
1783246486858709500,3.79570947265625,0.00017681694589555264,0.0003239777870476246,0.00028763292357325554
1783246486868720600,3.805720703125,0.00025378214195370674,-0.00019294163212180138,0.0003765826113522053
1783246486878732800,3.81573291015625,-0.000006195623427629471,-0.0009813073556870222,-0.001674275379627943
1783246486888744700,3.82574462890625,-0.000037620775401592255,-0.000635895412415266,0.0001161675900220871
1783246486898755600,3.835755615234375,0.00026319618336856365,-0.0002427415456622839,-0.0008669351227581501
1783246486908767700,3.845767822265625,-0.0003200359642505646,-0.0020803227089345455,-0.0010453667491674423
1783246486918779600,3.855779541015625,0.0002819367218762636,0.00021374726202338934,-0.001315799541771412
1783246486928790500,3.86579052734375,0.000583939254283905,-0.00037055020220577717,0.0011249873787164688
1783246486938802400,3.875802490234375,0.0005929579492658377,-0.00007930281572043896,0.00009253807365894318
1783246486948814600,3.885814697265625,0.0007993530016392469,-0.0010066153481602669,0.0005849567241966724
1783246486958825500,3.895825439453125,-0.0002227085642516613,-0.0005786186084151268,0.000733597669750452
1783246486968837400,3.90583740234375,0.000342680374160409,-0.0003405320458114147,-0.00018892157822847366
1783246486978849500,3.915849609375,-0.0013094439636915922,-0.0004924342501908541,-0.0007205740548670292
1783246486988860700,3.925860595703125,-0.00017467094585299492,-0.0002588750794529915,-0.0007512003649026155
1783246486998872600,3.93587255859375,-0.001604229211807251,-0.000595529330894351,-0.0013987421989440918
1783246487008884700,3.945884765625,-0.0006881016306579113,-0.0006168344989418983,0.0005909055471420288
1783246487018895600,3.9558955078125,-0.0003702123649418354,0.0002973463851958513,-0.0004064743407070637
1783246487028907500,3.965907470703125,0.00037387479096651077,-0.0010590015444904566,-0.00011299410834908485
1783246487038918400,3.97591845703125,0.0008446623105555773,-0.0002443355042487383,0.00031081540510058403
1783246487048930600,3.9859306640625,-0.00013697892427444458,-0.0005537949036806822,-0.00025617191568017006
1783246487058942500,3.9959423828125,-0.00021548708900809288,0.0013938487973064184,-0.00018621422350406647
1783246487068953600,4.00595361328125,-0.0017105857841670513,0.0002148674102500081,0.0003978172317147255
1783246487078965800,4.0159658203125,-0.0003786403685808182,0.00036809826269745827,-0.00008184323087334633
1783246487088977700,4.025977783203125,-0.0017930450849235058,-0.00017358874902129173,0.0005037859082221985
1783246487098988500,4.035988525390625,-0.00038731819950044155,-0.0006533346604555845,-0.000355512835085392
1783246487109000700,4.046000732421875,0.0014007281279191375,0.0014175393152981997,-0.0001009148545563221
1783246487119012600,4.0560126953125,0.00018675043247640133,-0.0012265774421393871,-0.0014406591653823853
1783246487129023500,4.0660234375,0.0008024733979254961,-0.00010804971680045128,0.00019558705389499664
1783246487139035600,4.07603564453125,-0.00003151921555399895,0.0013658541720360518,-0.0002451040782034397
1783246487149047600,4.086047607421875,-0.0001343174371868372,-0.0006743934936821461,0.0001256079412996769
1783246487159058700,4.09605859375,-0.00045107281766831875,-0.000427949707955122,-0.0003970405086874962
1783246487169070600,4.106070556640625,0.0003811649512499571,-0.00017228606157004833,0.0007332051172852516
1783246487179082800,4.116082763671875,-0.000030614668503403664,-0.0008773438166826963,-0.0008472776971757412
1783246487189093600,4.12609375,-0.0005738993640989065,-0.0006424528546631336,-0.0005561942234635353
1783246487199105500,4.13610546875,0.0015165616059675813,-0.00107877841219306,0.0012950459495186806
1783246487209117700,4.14611767578125,-0.0011178373824805021,-0.0007291052024811506,0.000020190607756376266
1783246487219128600,4.156128662109375,0.00010801549069583416,0.0008885440183803439,-0.0014768047258257866
1783246487229140500,4.166140380859375,-0.0008736257441341877,-0.0010547644924372435,0.00024306494742631912
1783246487239151600,4.176151611328125,0.0006811488419771194,-0.0006595535669475794,0.00043945200741291046
1783246487249163500,4.18616357421875,-0.0009556300938129425,0.0004794804845005274,0.001402184832841158
1783246487259175400,4.196175537109375,-0.0004871997516602278,0.0014868336729705334,-0.0004919525235891342
1783246487269186600,4.2061865234375,-0.0001841320190578699,-0.00017444603145122528,-0.00002323649823665619
1783246487279198700,4.21619873046875,0.001186148263514042,-9.743962436914444e-7,0.0007300912402570248
1783246487289210600,4.226210693359375,-0.0005734022706747055,0.00003950577229261398,-0.0007495610043406487
1783246487299221500,4.236221435546875,-0.00019497470930218697,0.0011882619000971317,-0.0008628766518086195
1783246487309233700,4.246233642578125,-0.00014064623974263668,0.000554962083697319,0.0007747011259198189
1783246487319245600,4.25624560546875,0.001580585609190166,0.000346749322488904,-0.00033248821273446083
1783246487329256400,4.26625634765625,-0.00060294009745121,0.0009904352482408285,-0.0015775160863995552
1783246487339268600,4.2762685546875,-0.0008006584830582142,-0.00001655775122344494,-0.0008669223170727491
1783246487349280500,4.286280517578125,-0.00024006306193768978,-0.00025278027169406414,-0.0008373612072318792
1783246487359291600,4.296291748046875,-0.0005848819855600595,-0.000014127697795629501,0.0010503488592803478
1783246487369303800,4.3063037109375,0.0009975682478398085,-0.00006206450052559376,-0.0008972210343927145
1783246487379315700,4.316315673828125,-0.0003402312286198139,0.0010402619373053312,0.0001369742676615715
1783246487389326600,4.32632666015625,0.0016859016614034772,-0.00029691122472286224,-0.001002858392894268
1783246487399338500,4.33633837890625,0.00032670190557837486,-0.0003646977711468935,-0.00019677076488733292
1783246487409350700,4.3463505859375,-0.00002004159614443779,-0.0007031853310763836,-0.0002963729202747345
1783246487419361500,4.356361572265625,0.0018832427449524403,0.0009731717873364687,0.0007891161367297173
1783246487429373400,4.36637353515625,-0.00041852728463709354,-0.0003722570836544037,-0.0005720257759094238
1783246487439384600,4.376384521484375,0.0007611862383782864,0.0001950159203261137,-0.0008083581924438477
1783246487449396700,4.386396728515625,0.0006589209660887718,0.0018014346715062857,0.0010441364720463753
1783246487459408600,4.39640869140625,0.000047679292038083076,0.0006655433680862188,0.00010167993605136871
1783246487469419800,4.406419677734375,0.000619193771854043,-0.0010106503032147884,0.00020794011652469635
1783246487479431700,4.416431640625,-0.0004264530725777149,-0.00045953202061355114,-0.00040659261867403984
1783246487489443600,4.426443603515625,-0.0008717335294932127,0.000010516028851270676,-0.0011264451313763857
1783246487499454500,4.436454345703125,0.0011954093351960182,-0.00032658781856298447,0.00006247218698263168
1783246487509466600,4.446466552734375,-0.0007463013753294945,0.00004758639261126518,-0.00012634601444005966
1783246487519478500,4.456478515625,-0.00024682958610355854,0.00011767609976232052,-0.0011647297069430351
1783246487529489400,4.466489501953125,0.00017581414431333542,-0.0010866052471101284,0.001458483748137951
1783246487539501600,4.47650146484375,0.00034484826028347015,0.00010890653356909752,0.00047875242307782173
1783246487549513500,4.486513427734375,-0.0008719498291611671,-0.00018510641530156136,-0.00038757361471652985
1783246487559524600,4.496524658203125,-0.0021900676656514406,0.00007551326416432858,-0.0008088017348200083
1783246487569536800,4.506536865234375,-0.0001615376677364111,-0.00043421564623713493,0.0004753745160996914
1783246487579548700,4.516548583984375,0.00020697945728898048,-0.0006396512035280466,0.0006710230372846127
1783246487589559600,4.5265595703125,-0.0011448408477008343,0.00027061719447374344,-0.00008984189480543137
1783246487599571700,4.53657177734375,-0.00012165773659944534,-0.0012138390447944403,0.0002502789720892906
1783246487609583600,4.54658349609375,0.00004558870568871498,0.0008258760208263993,-0.00016916915774345398
1783246487619594500,4.556594482421875,-0.0006322676781564951,0.0011181979207322001,-0.0010085217654705048
1783246487629606400,4.5666064453125,0.0012796155642718077,-0.0011865017004311085,-0.0005712308920919895
1783246487639617800,4.57661767578125,0.0015056229894980788,0.00013333209790289402,0.00006232503801584244
1783246487649629700,4.586629638671875,-0.0009652578737586737,-0.00013351673260331154,0.0006439597345888615
1783246487659641600,4.5966416015625,0.00011748354882001877,-0.0002700719051063061,-0.0018211074639111757
1783246487669652500,4.606652587890625,-0.00006813881918787956,0.0022503435611724854,-0.00004477892071008682
1783246487679664400,4.616664306640625,-0.0006067468784749508,0.001187378540635109,-0.0009647640399634838
1783246487689676500,4.626676513671875,0.0002569162752479315,-0.0009399545378983021,0.0006757429800927639
1783246487699687400,4.6366875,-0.0006785173900425434,-0.00041611376218497753,0.0001421072520315647
1783246487709699300,4.64669921875,0.00019633094780147076,0.00023582810536026955,-0.0010765553452074528
1783246487719711500,4.65671142578125,-0.0008713887073099613,0.0003950363025069237,-0.0015862404834479094
1783246487729722600,4.66672265625,-0.0008857697248458862,0.0004813227569684386,-0.0011705209035426378
1783246487739734500,4.676734619140625,0.00033203233033418655,0.0002636588178575039,0.000169356819242239
1783246487749746400,4.686746337890625,-0.0004037991166114807,0.0013515600003302097,-0.0006317216902971268
1783246487759757600,4.696757568359375,0.0008034731727093458,-0.0010176864452660084,-0.0013792864046990871
1783246487769769500,4.70676953125,0.0008649921510368586,-0.00028078979812562466,0.0001352531835436821
1783246487779781400,4.716781494140625,0.00027852156199514866,0.0008374725002795458,-0.00034213345497846603
1783246487789792500,4.72679248046875,-0.0007052500732243061,-0.0009391221683472395,0.0001164628192782402
1783246487799804400,4.736804443359375,0.0005838195793330669,0.00006247474811971188,-0.00036251265555620193
1783246487809816300,4.74681640625,0.0003649077843874693,-0.0006224901881068945,-0.0006812931969761848
1783246487819827200,4.7568271484375,0.000759597634896636,-0.0004447929095476866,0.0004383833147585392
1783246487829839400,4.76683935546875,-0.00019381404854357243,-0.00007274933159351349,0.0007265373133122921
1783246487839850500,4.7768505859375,0.0002734872978180647,0.0005528833717107773,-0.0004611439071595669
1783246487849862400,4.7868623046875,0.0001366008073091507,0.00012278277426958084,0.0007681711576879025
1783246487859874600,4.79687451171875,-0.0006053708493709564,-0.0009200901258736849,0.0011651227250695229
1783246487869885400,4.806885498046875,0.0019323552260175347,0.001316166133619845,0.0006015975959599018
1783246487879897300,4.8168974609375,-0.0006560466717928648,-0.00010382873006165028,-0.0008377847261726856
1783246487889909500,4.826909423828125,-0.0014845561236143112,-0.00040343450382351875,0.0009100479073822498
1783246487899920400,4.83692041015625,-0.0006558448076248169,-0.0007330698426812887,0.00004340801388025284
1783246487909932300,4.846932373046875,0.0004589543677866459,0.0005082294810563326,-0.0002697799354791641
1783246487919944400,4.8569443359375,0.00021922471933066845,0.001120207249186933,0.0004828479140996933
1783246487929955600,4.86695556640625,0.001182223903015256,0.0001912966836243868,0.00012518512085080147
1783246487939967500,4.876967529296875,0.0007198054809123278,-0.0010062544606626034,0.0002100546844303608
1783246487949979600,4.886979736328125,0.000658552860841155,-0.0004259515553712845,0.0005432162433862686
1783246487959990500,4.896990478515625,-0.0006005293689668179,0.0006616304162889719,0.00022619403898715973
1783246487970002400,4.90700244140625,0.00010094721801578999,-0.0003988402895629406,-0.0004561077803373337
1783246487980014300,4.917014404296875,-0.00008111121132969856,0.00034895120188593864,-0.0006182258948683739
1783246487990025500,4.927025390625,0.00022222287952899933,0.0017026360146701336,0.00017592869699001312
1783246488000037400,4.937037353515625,0.0009148165117949247,-0.00041069439612329006,-0.0003059832379221916
1783246488010049300,4.94704931640625,-0.00011209840886294842,-0.00006980984471738338,0.0003369036130607128
1783246488020060400,4.957060302734375,-0.0005401486996561289,-0.0009438348934054375,-0.0011578123085200787
1783246488030072600,4.967072509765625,0.00008169957436621189,-0.0009536887519061565,0.0002589891664683819
1783246488040083500,4.97708349609375,-0.00025321729481220245,-0.0010923764202743769,0.00044929375872015953
1783246488050095400,4.987095458984375,0.00004798616282641888,0.00028634199406951666,0.00006872788071632385
1783246488060107500,4.997107421875,0.00048267655074596405,0.0014112067874521017,0.0003942004404962063
1783246488070118400,5.007118408203125,-0.000153818866237998,0.00037656864151358604,-0.0009602834470570087
1783246488080130300,5.01713037109375,-0.00029733055271208286,-0.0003331198822706938,0.00047315564006567
1783246488090142500,5.027142578125,0.0005447608418762684,0.00010736705735325813,0.00023453636094927788
1783246488100153300,5.0371533203125,-0.0001246302854269743,-0.00005493150092661381,0.0005908627063035965
1783246488110165200,5.047165283203125,0.0012010913342237473,0.0001386802177876234,-0.00032792752608656883
1783246488120177400,5.057177490234375,-0.00028116023167967796,-0.00016724993474781513,0.00002087373286485672
1783246488130188500,5.0671884765625,0.000023771775886416435,0.0011747170938178897,-0.0015037860721349716
1783246488140200400,5.077200439453125,0.0009077179711312056,0.0008593879174441099,-0.0010549055878072977
1783246488150212600,5.087212646484375,-0.0004672722425311804,0.00208524102345109,0.00023512961342930794
1783246488160223500,5.097223388671875,0.0004817303270101547,-0.00044120149686932564,-0.0005916445516049862
1783246488170235400,5.1072353515625,-0.0003537032753229141,0.00017904862761497498,-0.0005943076685070992
1783246488180247600,5.11724755859375,-0.0002324022352695465,-0.0008965588640421629,0.00012747710570693016
1783246488190258400,5.127258544921875,0.0013607008149847388,0.0005801640218123794,0.0011474681086838245
1783246488200270300,5.137270263671875,-0.000009938143193721771,-0.0013548287097364664,-0.0007523542735725641
1783246488210281500,5.147281494140625,-0.0010363203473389149,-0.0007905047386884689,-0.002189129590988159
1783246488220293600,5.157293701171875,0.00012625684030354023,-0.0008359299972653389,0.0015105651691555977
1783246488230305500,5.167305419921875,0.0004357162397354841,0.001076485961675644,0.000005878973752260208
1783246488240316400,5.17731640625,-0.0011257075238972902,0.0013195881620049477,0.0002083578146994114
1783246488250328600,5.18732861328125,-0.0002894748467952013,-0.00037018745206296444,-0.0004747430793941021
1783246488260340500,5.197340576171875,0.0007343166507780552,0.0002676828298717737,-0.0009332883637398481
1783246488270351400,5.207351318359375,-0.001044142059981823,0.000265818671323359,0.0003599426709115505
1783246488280363300,5.21736328125,0.001218045363202691,-0.0003283298574388027,0.000018030405044555664
1783246488290375400,5.22737548828125,0.0010047261603176594,0.0008019157685339451,-0.00006292993202805519
1783246488300386300,5.23738623046875,-0.00001727207563817501,0.0002630149247124791,-0.00020785769447684288
1783246488310398500,5.2473984375,0.000009892042726278305,0.00035862240474671125,-0.0014371729921549559
1783246488320410400,5.257410400390625,0.000042386120185256004,-0.0008918764069676399,-0.00006777141243219376
1783246488330421500,5.26742138671875,-0.0012199522461742163,-0.0001579092349857092,-0.0001548565924167633
1783246488340433400,5.277433349609375,-0.0009390900377184153,0.0008849307196214795,-0.0008384468965232372
1783246488350445600,5.287445556640625,0.0010572155006229877,0.00008864561095833778,0.0009658448398113251
1783246488360456400,5.29745654296875,-0.00006474670954048634,0.0003854952519759536,0.0002104095183312893
1783246488370468400,5.30746826171875,0.000039383070543408394,-0.0003998710308223963,0.0006975014694035053
1783246488380480500,5.31748046875,-0.0007898572366684675,-0.0007914949674159288,0.00003105541691184044
1783246488390491400,5.327491455078125,0.0005457180086523294,-0.00024048681370913982,0.0005503720603883266
1783246488400503300,5.33750341796875,-0.0005565194878727198,-0.0006540999747812748,-0.0008585287723690271
1783246488410514400,5.347514404296875,0.00029702368192374706,-0.00042133964598178864,0.00039102649316191673
1783246488420526600,5.357526611328125,-0.0011859866790473461,0.0007165648275986314,-0.00045055849477648735
1783246488430538500,5.36753857421875,0.0008254989515990019,0.00048220669850707054,0.0006629088893532753
1783246488440549400,5.37754931640625,0.0000634174793958664,-0.00026227859780192375,0.0001405058428645134
1783246488450561500,5.3875615234375,0.00012733344919979572,-0.0002489627804607153,-0.0003553749993443489
1783246488460573400,5.397573486328125,-0.00010724319145083427,-0.0004332431126385927,-0.0002364562824368477
1783246488470584300,5.407584228515625,-0.00007368740625679493,0.0007846204098314047,-0.0001376532018184662
1783246488480596500,5.417596435546875,0.000547471921890974,-0.0014292779378592968,0.00017366046085953712
1783246488490608400,5.4276083984375,0.0005605213809758425,-0.0010604301933199167,-0.0011906768195331097
1783246488500619500,5.43761962890625,0.00009132968261837959,0.0014061820693314075,-0.001720956526696682
1783246488510631400,5.44763134765625,0.0006202333606779575,-0.0004617590457201004,-0.00026953406631946564
1783246488520643600,5.4576435546875,-0.0007544527761638165,0.001267291372641921,0.0006688116118311882
1783246488530654500,5.467654541015625,-0.0009898762218654156,-0.0005021127872169018,0.0013274112716317177
1783246488540666400,5.477666259765625,-0.00015707360580563545,-0.0000471451785415411,0.00017046136781573296
1783246488550678500,5.487678466796875,0.00013960269279778004,-0.0005661952309310436,-0.0003139679320156574
1783246488560689400,5.497689453125,0.0011348751140758395,0.0008403850952163339,0.0019575264304876328
1783246488570701300,5.507701416015625,0.0015178376343101263,0.0013988499995321035,-0.00044224783778190613
1783246488580712200,5.517712158203125,-0.001467275433242321,0.0009625834645703435,0.0004969220608472824
1783246488590724400,5.527724365234375,0.0004291615914553404,-0.0009005640167742968,0.00042608194053173065
1783246488600736300,5.537736328125,-0.0009669288992881775,0.00007991807069629431,-0.0006022765301167965
1783246488610747400,5.547747314453125,-0.00023828796111047268,0.0001358444569632411,-0.0009551451075822115
1783246488620759600,5.557759521484375,0.0001706690527498722,-0.0005967358592897654,-0.00036559905856847763
1783246488630771500,5.567771484375,-0.0015974037814885378,-0.0006750328466296196,0.0011982088908553123
1783246488640782300,5.5777822265625,-0.00031253881752491,0.0010764806065708399,-0.000135776586830616
1783246488650794500,5.58779443359375,0.00011623022146522999,-0.0007405942305922508,0.000018953345715999603
1783246488660806000,5.597805908203125,-0.0002593349199742079,0.00014865328557789326,-0.00042107515037059784
1783246488670817000,5.607817138671875,-0.00047611608169972897,0.0005076474044471979,0.0004953183233737946
1783246488680829000,5.617828857421875,-0.000853764358907938,-0.000560753745958209,-0.001711902441456914
1783246488690840800,5.6278408203125,0.00036037084646523,0.0008240899769589305,-0.00046128174290060997
1783246488700852000,5.63785205078125,0.0010440542828291655,-0.00009221956133842468,0.00002948800101876259
1783246488710864000,5.64786376953125,-0.00018739141523838043,-0.0012200684286653996,0.0008457466028630733
1783246488720876000,5.6578759765625,0.0019757114350795746,0.0007697062101215124,0.0002465108409523964
1783246488730887000,5.667886962890625,-0.0006360504776239395,-0.00008223904296755791,0.00022493908181786537
1783246488740898800,5.67789892578125,0.0008016142528504133,-0.0006123853381723166,-0.0004138690419495106
1783246488750910000,5.687909912109375,-0.0005174495745450258,-0.0007993392646312714,-0.00045514805242419243
1783246488760921900,5.697921875,0.0009520214516669512,-0.0004926284309476614,-0.00026381341740489006
1783246488770933800,5.707933837890625,-0.00014733150601387024,0.0020328473765403032,0.0014310223050415516
1783246488780945000,5.71794482421875,-0.0007657022215425968,0.0015050661750137806,0.0006176745519042015
1783246488790957000,5.72795703125,-0.0013649135362356901,-0.00007685134187340736,0.00015721376985311508
1783246488800969000,5.737968994140625,-0.0013245728332549334,-0.00023963185958564281,0.000997911673039198
1783246488810979800,5.747979736328125,0.0008062224369496107,-0.0009259285870939493,-0.000060428399592638016
1783246488820992000,5.757991943359375,0.001192424213513732,0.000002061016857624054,0.0008425009436905384
1783246488831004000,5.76800390625,-0.00042651151306927204,0.0002041948027908802,-0.000393472146242857
1783246488841014800,5.778014892578125,-0.00026634405367076397,0.0006798793328925967,-0.0005729012191295624
1783246488851027000,5.78802685546875,-0.0007204129360616207,0.0000926522770896554,0.0009091482497751713
1783246488861038800,5.798038818359375,0.0006199921481311321,0.001018026378005743,-0.0011615941766649485
1783246488871050000,5.808050048828125,0.0006700595840811729,0.001928294776007533,-0.0011450827587395906
1783246488881062100,5.818062255859375,-0.00015282840467989445,0.0001689336495473981,0.000790267251431942
1783246488891074000,5.828073974609375,0.000396049115806818,-0.0008047181181609631,-0.0013426581863313913
1783246488901085000,5.8380849609375,0.0005353358574211597,0.0004179214593023062,0.0007031052373349667
1783246488911097000,5.84809716796875,0.001563049852848053,0.000804612529464066,-0.000167215708643198
1783246488921108000,5.85810791015625,0.00047462969087064266,0.00008208176586776972,-0.00043853791430592537
1783246488931119900,5.868119873046875,0.0012506748316809535,-0.00043936516158282757,-0.0003708936274051666
1783246488941131800,5.8781318359375,-0.00008866633288562298,-0.0006666406989097595,-0.0005709221586585045
1783246488951143000,5.888142822265625,0.0007249293848872185,0.00025587831623852253,-0.00120635237544775
1783246488961154800,5.89815478515625,0.000548813259229064,0.000035032397136092186,-0.00203412096016109
1783246488971167000,5.9081669921875,0.00021671713329851627,0.00027871166821569204,0.00022237515076994896
1783246488981178000,5.91817822265625,0.00004296167753636837,-0.00004916614852845669,0.0002678097225725651
1783246488991190000,5.92818994140625,0.0004938349593430758,0.00028452789410948753,-0.0006046420894563198
1783246489001202000,5.938201904296875,-0.0014605659525841475,-0.00031808833591639996,-0.0009254403412342072
1783246489011212800,5.948212890625,0.00018500140868127346,-0.0002690861001610756,-0.0014386314433068037
1783246489021225000,5.958224853515625,0.0003019161522388458,0.0005878835218027234,-0.0008508116006851196
1783246489031236900,5.96823681640625,0.0013581258244812489,0.00008001865353435278,0.0002685151994228363
1783246489041247700,5.978247802734375,0.0012571039842441678,-0.0007607871666550636,-0.0007476077880710363
1783246489051260000,5.988260009765625,-0.0011418713256716728,0.000045884400606155396,0.0011925050057470798
1783246489061271800,5.998271728515625,-0.0005164947360754013,-0.001511797308921814,0.0014084018766880035
1783246489071283000,6.008282958984375,0.001772225950844586,0.001111682504415512,0.0004888125695288181
1783246489081295000,6.018295166015625,-0.0008203079923987389,0.0028852825053036213,0.001034522894769907
1783246489091306000,6.028305908203125,0.0003312428016215563,0.0006807177560403943,0.00010454701259732246
1783246489101318000,6.03831787109375,-0.00036301789805293083,-0.0008604463655501604,0.0003450727090239525
1783246489111330000,6.048330078125,-0.00039763888344168663,-0.00027588242664933205,-0.0004299068823456764
1783246489121341000,6.0583408203125,-0.0019716417882591486,-0.00020638550631701946,-0.000959520461037755
1783246489131352800,6.068352783203125,-0.000575879355892539,-0.0007427462842315435,-0.00003513740375638008
1783246489141365000,6.078364990234375,-0.0008852167520672083,-0.00003731134347617626,0.0005753380246460438
1783246489151376100,6.088376220703125,-0.0002471234183758497,-0.0012383970897644758,-0.00019484804943203926
1783246489161388000,6.098387939453125,0.0007560672238469124,-0.001016475260257721,-0.00011178664863109589
1783246489171400000,6.10839990234375,-0.0004114625044167042,-0.0004042144864797592,0.000763594638556242
1783246489181411000,6.1184111328125,-0.0004036331083625555,0.00012017891276627779,0.00028716959059238434
