time,seconds_elapsed,z,y,x
1783246360216612900,0.05461279296875,-0.04789104746580124,0.019139803951606152,0.0018207308874465524
1783246360226625000,0.064625,-0.009283961173892021,-0.0037548955541104076,0.011150579312967602
1783246360236636000,0.074635986328125,-0.020655250015854835,0.009085406394489109,0.009195611603581346
1783246360246647800,0.084647705078125,-0.030681553989648818,0.006997457671910524,0.006459560536080971
1783246360256659000,0.094658935546875,-0.009134908092021941,0.011976780454441904,0.0015753504247870294
1783246360266670800,0.1046708984375,-0.011528525230288505,0.002980440582893789,0.004613158634549472
1783246360276682800,0.114682861328125,-0.01617079807817936,0.014897709402441978,0.020070127621258142
1783246360286694100,0.124694091796875,-0.030987843459844587,0.017361578765325247,0.010361563810147344
1783246360296706000,0.1347060546875,-0.0264952082157135,0.007857837360911071,0.015964900242537258
1783246360306717000,0.144717041015625,-0.011234510719776153,-0.0006201411923393606,-0.0052410333254840225
1783246360316728800,0.154728759765625,-0.018419453787803648,0.00033792671747505664,0.004444398488500155
1783246360326741000,0.164740966796875,-0.014679098215699194,0.006036686348356306,0.007593836679460946
1783246360336751900,0.174751953125,-0.03517652732133865,-0.00465480353590101,0.0026479458090732802
1783246360346763800,0.184763671875,-0.020813070926070213,0.005405439240112901,0.003980244725605007
1783246360356775200,0.194775146484375,-0.008391396248340606,0.02137972836550325,0.010249120978196151
1783246360366787000,0.204787109375,-0.015273556977510452,-0.0014102321241050958,-0.0007569033315056003
1783246360376799000,0.214799072265625,-0.009138415223360062,-0.003507788925245404,0.0035440110160969195
1783246360386809900,0.224809814453125,-0.020960370442271233,0.016423055806197226,0.022576027761271687
1783246360396822000,0.234822021484375,-0.02590133397579193,0.004077295908890664,0.008513145764754154
1783246360406833000,0.2448330078125,-0.024102760121226308,0.017615480461157858,0.009065573749435134
1783246360416844800,0.2548447265625,-0.019014497071504592,0.008761471669748425,0.005749880180053878
1783246360426857000,0.26485693359375,-0.015272972455620764,0.006060651745833456,0.004746676220570225
1783246360436867800,0.274867919921875,-0.01961187844276428,0.015616269467957317,0.0009770100723020731
1783246360446879700,0.284879638671875,-0.021706220373511314,0.006629391544498503,0.008206123358907642
1783246360456891000,0.294890869140625,-0.013476736688613891,0.011744177274964749,0.0036042396036209535
1783246360466903000,0.304903076171875,-0.02903846295773983,0.001543758843280375,0.010159723378403577
1783246360476915000,0.3149150390625,-0.015868015739321707,0.00029839842468500137,0.0083883092421107
1783246360486925800,0.32492578125,-0.013324176475405692,0.007318067928403615,-0.0017690920317545533
1783246360496938000,0.33493798828125,-0.01990823104083538,0.007165288519486785,0.004718411390599794
1783246360506948900,0.344948974609375,-0.0031470658540725706,0.015959822208620605,0.026850255031348205
1783246360516960800,0.354960693359375,-0.019756255349516867,0.004861358958669007,-0.0013338584026671013
1783246360526973000,0.364972900390625,-0.021103578305244446,0.01907265699952841,-0.0062162259000353515
1783246360536984000,0.374984130859375,-0.02305003619790077,0.004285568364709616,0.02400114692725474
1783246360546996000,0.384995849609375,-0.005990180325508117,-0.01039225120935589,0.021394512659392784
1783246360557006800,0.3950068359375,-0.028587796580791473,0.008503843646869062,-0.011656348294462077
1783246360567019000,0.40501904296875,-0.033974165794253344,0.005043839386105537,0.0030844740628148425
1783246360577030000,0.41502978515625,-0.019760347002744674,0.007343713826313615,0.008020615290745627
1783246360587041800,0.425041748046875,-0.005245499438047409,0.002400777531415224,0.00564572568583535
1783246360597054000,0.435053955078125,-0.015270634368062018,0.008227657053992152,-0.004892448216676712
1783246360607065000,0.445065185546875,-0.03247778975665569,0.010583755193464457,-0.004472236343496479
1783246360617077000,0.455076904296875,-0.023501287096738814,0.014967852029204368,0.012400510875403415
1783246360627088000,0.465087890625,-0.015272972455620764,0.011711626712232828,0.01571916815342847
1783246360637100000,0.47510009765625,-0.019758593437075613,0.010579882735945284,-0.004047583473927807
1783246360647112000,0.48511181640625,-0.03532090422809124,-0.0005074015328660607,-0.00010499702772358432
1783246360657122800,0.495122802734375,-0.0170621939599514,0.005114018545486033,0.01221044764642138
1783246360667135000,0.505135009765625,-0.019755086305737496,-0.0020772446654736994,0.016250528233905787
1783246360677145900,0.515145751953125,-0.028132454028725624,-0.007979856305383145,0.0029994877766584974
1783246360687157800,0.52515771484375,-0.026185996136069298,-0.00007533025853335857,0.003925585079053416
1783246360697170000,0.535169921875,-0.013462708163261413,0.0008762713778764009,0.01676830959689105
1783246360707181000,0.54518115234375,-0.029774376016855238,0.00838810831271112,0.00465188549302984
1783246360717193000,0.55519287109375,-0.017056933262944222,-0.0025040917754173275,-0.00962360492441803
1783246360727203800,0.565203857421875,-0.02049684458374977,0.0031459698755294083,-0.0027383297895547
1783246360737216000,0.575216064453125,-0.02169160732626915,0.011024521230906248,0.02429074327426497
1783246360747228000,0.585227783203125,0.0022498247534036633,0.009392609180137514,0.002317597326566465
1783246360757238800,0.59523876953125,-0.029622400325536726,0.010871961017698049,0.0060577519692713395
1783246360767251000,0.6052509765625,-0.02288929267823696,-0.006623655923455953,0.00947992442069808
1783246360777262000,0.615261962890625,-0.02169277637004852,-0.01138827650938183,0.009839713626820594
1783246360787274000,0.62527392578125,-0.02528349433839321,-0.0013809329643845558,-0.01008435202067485
1783246360797286100,0.6352861328125,-0.029025018954277036,0.010457973389327526,-0.002263163725589402
1783246360807297000,0.645297119140625,-0.02289104624390602,-0.0020742855234071613,-0.006571679141046479
1783246360817309000,0.655308837890625,-0.02393792494833469,0.0085351521005854,0.006419518503348809
1783246360827319800,0.66531982421875,-0.026180735439062117,0.008928717995435,0.0011744209241005591
1783246360837332000,0.67533203125,-0.028873043262958524,-0.005012202138826251,0.01108263549315743
1783246360847343900,0.68534375,-0.020046178206801414,0.011195165090076625,0.0070811310671037055
1783246360857354800,0.695354736328125,-0.02199380514323711,0.0012238427065312861,0.01364767052544048
1783246360867367000,0.705366943359375,-0.023788287344574926,0.007187719547003507,0.009318130588263739
1783246360877378000,0.7153779296875,-0.020797873356938362,0.008142974445223808,0.003459654917602893
1783246360887390000,0.725389892578125,-0.00718085141479969,0.013373568575084208,0.010233012376900295
1783246360897400800,0.73540087890625,-0.024841011267900465,0.013300028414838015,-0.0031320052822586147
1783246360907413000,0.7454130859375,-0.030375264519453046,0.014893727347068487,-0.003267892921878956
1783246360917425000,0.7554248046875,-0.030375264519453046,0.00950498351342976,0.013647056320798583
1783246360927435800,0.765435791015625,-0.018255787658691406,-0.005875869763456285,0.021769965225527994
1783246360937448000,0.775447998046875,-0.021098317608237264,0.018493067013286055,-0.0009645798489917069
1783246360947459000,0.785458984375,-0.006583470043540001,0.01984630825314671,-0.0096959577745758
1783246360957471000,0.795470947265625,-0.029773206973075866,0.004630180551297962,0.0025567923603230154
1783246360967483100,0.805483154296875,-0.02408697803020477,0.000582622193545103,0.021105452885210978
1783246360977494000,0.815493896484375,-0.02064414409995079,0.004741714634373784,-0.0014325330041698179
1783246360987506000,0.825505859375,-0.035008185017108916,-0.0018763517985120415,0.009730056406999938
1783246360997516800,0.835516845703125,-0.0007435118436813354,0.0038593788418918844,0.012572508724732324
1783246361007529000,0.845529052734375,-0.021842998495697975,0.0031349735574796793,-0.005239245510485489
1783246361017540900,0.855540771484375,-0.011218728628754615,0.006867145823128521,-0.013078837111941539
1783246361027552000,0.865552001953125,-0.009420739296078682,-0.006061711191758513,0.014648442782531492
1783246361037564200,0.875564208984375,-0.00029050737917423245,0.008256408224441111,0.004895676786801777
1783246361047575000,0.885574951171875,-0.020488076755404473,0.0002298267005011439,0.004058655140502378
1783246361057587000,0.8955869140625,-0.01749649372398853,0.0022155571576207875,-0.00008347474908223375
1783246361067598800,0.905598876953125,-0.019592004698514937,0.0013359247788786888,-0.004428452000697143
1783246361077610000,0.91560986328125,-0.017797522497177122,0.01572458868063986,0.013254113763745409
1783246361087622000,0.925621826171875,-0.02213935109376907,0.009646730071678758,0.010423050489707384
1783246361097632800,0.9356328125,-0.018245850786566733,0.00479596557226032,0.002681749897263944
1783246361107645000,0.94564501953125,-0.016299392893910407,0.0023673501858487724,0.004619535859697498
1783246361117656800,0.95565673828125,-0.016750059270858764,-0.0005830971175804734,0.00581824184168363
1783246361127668000,0.96566796875,-0.02408405542075634,0.011421375061385334,-0.008476275219931266
1783246361137680000,0.975679931640625,-0.022886370068788527,0.005134805605188012,0.0075252147229271935
1783246361147691000,0.98569091796875,-0.008221884900331497,0.011566738348826766,0.00009270151844248175
1783246361157703000,0.995702880859375,-0.02767243530154228,-0.008245959895662963,0.004001477026590146
1783246361167714800,1.00571484375,-0.020340777239203453,0.004931939976848662,0.013839359455928206
1783246361177726000,1.015725830078125,-0.02543079385459423,0.010225260611996054,-0.0047071250948938536
1783246361187737900,1.02573779296875,-0.01750000085532665,0.0105253030044958,0.002873454810772091
1783246361197749000,1.0357490234375,-0.02558101598024368,0.02086220729742199,-0.002649151385470759
1783246361207761200,1.04576123046875,-0.010316811352968216,0.005862462292611599,0.005222723633947316
1783246361217772000,1.05577197265625,-0.022584172251820564,-0.001990735425800085,0.002985468384460546
1783246361227784000,1.065783935546875,-0.02003624133467674,0.014369484277255833,0.01086468874340644
1783246361237795800,1.0757958984375,-0.022878771284222603,0.010172397913597524,-0.00627020740986336
1783246361247807000,1.085806884765625,-0.008065233033895492,0.011690145532786845,0.007999622735066804
1783246361257819000,1.09581884765625,-0.01464578046798706,0.009501184121146797,0.004429068488627672
1783246361267830000,1.105830078125,-0.010008768317103385,0.006404825541004538,0.009529764044948387
1783246361277842000,1.115842041015625,-0.020931728869676588,-0.003331117184087634,0.017062577552441508
1783246361287854000,1.12585400390625,-0.015696166303753853,0.00643960459344089,-0.002943608853977639
1783246361297865000,1.135864990234375,-0.020483985102176666,0.011969839257001876,0.014212935158808249
1783246361307876900,1.145876953125,-0.023172201272845267,0.0071886328624561424,0.002663700500631239
1783246361317888000,1.155887939453125,-0.022869418933987615,0.005153473773039877,0.006122410136740654
1783246361327900000,1.16589990234375,-0.03333995954394341,0.0063958385169506065,-0.002042474746191874
1783246361337911800,1.175911865234375,-0.015382278048992157,0.00336761326957494,0.01077844436521409
1783246361347923000,1.1859228515625,-0.01148994678556919,0.003930690512433648,0.006427071622142102
1783246361357934800,1.195934814453125,-0.024058920979499816,0.0078021616509184235,-0.003990613139281049
1783246361367946000,1.205946044921875,-0.03423369351327419,0.00464676635991782,0.017110962721833493
1783246361377958000,1.2159580078125,-0.01687573147714138,0.012275799933634698,0.009939733085327316
1783246361387970000,1.225969970703125,-0.021214052942395208,0.001778225186280906,0.002814196620916482
1783246361397981000,1.23598095703125,-0.005646481454372406,0.00419858420100063,-0.0005396872341167182
1783246361407992800,1.245992919921875,-0.025996026521921158,-0.0007823460167273879,0.006165778921009041
1783246361418004000,1.25600390625,-0.02869067243337631,0.006587196370586752,0.00450354936379008
1783246361428015900,1.266015869140625,-0.017919103050231932,0.00858626123331487,-0.003624362226331141
1783246361438027800,1.27602783203125,-0.03243102800548076,-0.0006228811386972665,0.009005772136885207
1783246361448039000,1.286038818359375,-0.03003565730154514,0.020750782812200486,0.01017706495556049
1783246361458051000,1.296051025390625,-0.030185879427194594,0.005789287458546459,0.012259901394892948
1783246361468062000,1.30606201171875,-0.023155250138044356,-0.00551459870301187,0.011577762066340072
1783246361478073900,1.316073974609375,-0.011332125875353812,0.0070113400667905805,-0.000859347642539069
1783246361488085000,1.3260849609375,-0.011927169159054755,0.010666428508237003,0.002796729462884832
1783246361498097000,1.336096923828125,-0.019708909076452254,0.005593947549536824,-0.002392098751326557
1783246361508108800,1.34610888671875,-0.011027589970827102,0.009876374109089373,0.0009962878782185725
1783246361518120000,1.356119873046875,-0.01117839661836624,-0.0055030178630724545,0.011459517397976014
1783246361528131800,1.3661318359375,-0.011177812096476555,-0.0001327595341950655,0.008927580917696468
1783246361538142200,1.37614208984375,-0.03332359293103218,0.014365721417590975,0.003924356669769622
1783246361548154000,1.386154052734375,-0.006838321587443351,0.010026340506412088,0.008720587103511207
1783246361558166000,1.396166015625,-0.02748947995007038,0.0016684812014922498,-0.005091790730657521
1783246361568177000,1.406177001953125,-0.008033668851852416,0.011022402339056133,0.009868768474657553
1783246361578189000,1.41618896484375,-0.030775662013888358,0.0037772900490090247,0.011398026151838712
1783246361588200200,1.4262001953125,-0.023442250385880468,0.007483049231767654,0.013737317003693897
1783246361598212000,1.436212158203125,-0.020750527083873746,-0.0019086831655353307,0.015322688782284967
1783246361608224300,1.446224365234375,-0.0292792859762907,-0.008806406790018081,-0.00002715058511821553
1783246361618235100,1.456235107421875,-0.019101006311178205,-0.0013983224906027316,-0.0002183349088183604
1783246361628247000,1.4662470703125,-0.02164484557509422,0.00757814363669604,-0.004983049109578132
1783246361638258200,1.476258056640625,-0.016256722795963286,-0.0011296616170555353,0.004138807704625651
1783246361648270000,1.48627001953125,-0.02627951963841915,0.014056655468419194,0.008208529945125336
1783246361658282000,1.496281982421875,-0.019245383217930793,0.007443886265158653,0.011435666164930443
1783246361668293000,1.506293212890625,-0.02088847424983978,0.0013877280313521624,0.003219667582691181
1783246361678305000,1.516304931640625,-0.0225344878911972,0.013958711519278586,0.0029364644438493997
1783246361688316200,1.526316162109375,-0.02328618304133415,0.00012917933762073515,0.010829747577477246
1783246361698328000,1.536328125,-0.03600888649225235,0.008139321183413267,0.0006181181986117735
1783246361708340200,1.54634033203125,-0.016705051085352897,0.009927738970145582,0.028303417548304424
1783246361718351000,1.55635107421875,-0.006530278551578521,-0.00037632249910384414,0.01697221183826914
1783246361728363000,1.566363037109375,-0.015060791009664535,0.001903130207583308,0.0012129993688198737
1783246361738374000,1.576373779296875,-0.023888240587711333,0.00845514566693455,-0.003880985602212604
1783246361748386000,1.586385986328125,-0.018051789519190786,0.00395838223695755,0.025171898606524336
1783246361758397200,1.596397216796875,-0.02119476372003555,0.0035225481029599903,0.007592596853733993
1783246361768409000,1.6064091796875,-0.025982582518458364,0.011730733271501958,0.008082298333127982
1783246361778421200,1.616421142578125,-0.01954699651300907,-0.0010273337537422776,-0.0011874128364142962
1783246361788432100,1.62643212890625,-0.014608955588936805,0.007496822028793394,0.006799437182047404
1783246361798444000,1.636444091796875,-0.008473813834786414,0.013926928141526877,0.013793828397325705
1783246361808455000,1.646454833984375,-0.01445581085383892,0.00442534216158092,-0.0029397683624993076
1783246361818467000,1.656467041015625,-0.01999181767106056,-0.007861563687957823,0.009193342014681548
1783246361828479000,1.66647900390625,-0.026577041280269623,0.007284896311163902,0.01628033200041391
1783246361838490000,1.676489990234375,-0.015502105036377906,0.005894866724871098,0.002854635945870541
1783246361848502300,1.686502197265625,-0.02343172899186611,-0.005963438449054956,-0.004318628100806381
1783246361858513200,1.69651318359375,-0.023134791871905324,0.0035259091038256883,-0.003061727941466961
1783246361868525000,1.706525146484375,-0.019843933632969855,0.003420110641792416,0.0031029961001942863
1783246361878537200,1.716537109375,-0.023432898035645484,-0.007270538992248475,0.0011230012641171925
1783246361888548000,1.726548095703125,-0.014302666118741035,0.008536503807455301,0.015541121872514486
1783246361898560000,1.73656005859375,-0.01984159554541111,0.009484379116818308,0.0010182142989477142
1783246361908571000,1.74657080078125,-0.02567746209204197,0.009792276022210717,-0.00709992709911894
1783246361918583000,1.7565830078125,-0.02029167740046978,0.00009162380620837212,-0.0009665206443285569
1783246361928595000,1.766594970703125,-0.009221417331695556,-0.002068221108801663,0.010648191881936508
1783246361938606000,1.776606201171875,-0.0253840321034193,0.002749664034321904,0.0005810193249257281
1783246361948618200,1.7866181640625,-0.030171850901842115,-0.002353906182385981,0.003064527253329288
1783246361958629000,1.796629150390625,-0.018802315625548363,0.00041975978203117844,-0.003030483419832308
1783246361968641000,1.80664111328125,-0.020446575701236723,0.014292290855199098,-0.00019353154441341757
1783246361978652000,1.81665185546875,-0.010419102683663367,0.009899937647767365,0.0012715565890655852
1783246361988664000,1.8266640625,-0.015063129097223281,0.00165295483879745,0.007457291452714707
1783246361998676000,1.836676025390625,-0.014466332247853278,0.004398965611308813,0.00274449695214862
1783246362008687000,1.84668701171875,-0.024491467177867886,0.003792268422432244,0.004467603550862986
1783246362018699300,1.85669921875,-0.011772855380177498,0.00485416203290224,0.0036126809216919355
1783246362028710100,1.866710205078125,-0.027334581649303434,0.0020028642550110817,-0.002954815234581474
1783246362038722000,1.87672216796875,-0.02299158400893211,0.005358640956319868,0.003157788177486509
1783246362048734200,1.886734130859375,-0.0319675021469593,0.009182035169377923,0.0086247757459525
1783246362058745000,1.8967451171875,-0.022686463582515717,0.01314370534196496,0.00373367923614569
1783246362068757000,1.906757080078125,-0.02702420052587986,0.009947101257741451,0.01228189859756967
1783246362078768000,1.91676806640625,-0.011011807879805564,0.004977313488535582,0.014340966002247296
1783246362088780300,1.9267802734375,-0.019539397728443146,0.009582359598577022,0.016851973858929704
1783246362098792200,1.936792236328125,-0.007865911069512366,-0.0021379984093829987,0.001607430630060844
1783246362108803000,1.946802978515625,-0.018790040665864944,-0.0009303761852905154,0.008431520479463507
1783246362118815200,1.956815185546875,-0.017742577439546586,0.004611183589883148,0.004122571239166427
1783246362128826000,1.966826171875,-0.011910802546143531,0.007539893985539674,0.010008635886362752
1783246362138838000,1.976838134765625,-0.01849602615535259,0.01534490518067032,0.003337467009772081
1783246362148850200,1.98685009765625,-0.014455226331949234,0.0032168066220358013,0.0034712015082128344
1783246362158861000,1.996861083984375,-0.04003916492164135,0.001173135432600975,0.00789621944280807
1783246362168873000,2.006873046875,-0.024025018709897993,0.010384908153116702,0.0074722606929833995
1783246362178884000,2.016884033203125,-0.013102642679214477,-0.00381013287268579,0.007420989446761086
1783246362188896300,2.026896240234375,-0.014749825364351273,0.010728935817815363,-0.000668391647702083
1783246362198907100,2.0369072265625,-0.015500351470708846,-0.0022202698653563855,0.008489301381574478
1783246362208919000,2.0469189453125,-0.01699555846452713,-0.00660067690666765,0.00958705860658083
1783246362218931200,2.05693115234375,-0.030759879922866818,0.008302293192781508,-0.0011225057904841378
1783246362228942000,2.066942138671875,-0.015644728377461434,0.0036141353765502568,0.003261894722643774
1783246362238954000,2.0769541015625,-0.01325111123919487,0.008572999892942607,0.0009384704434894956
1783246362248965000,2.086965087890625,-0.02656885797381401,-0.0006957271791994571,0.0021494947676430455
1783246362258977300,2.096977294921875,-0.0295668707460165,0.002562872757948935,0.005819111774652264
1783246362268989200,2.1069892578125,-0.028517653954029082,-0.007948803579993545,0.006612534024531487
1783246362279000000,2.117,-0.016847089904546735,0.003906761647574603,0.007497155388933606
1783246362289012200,2.12701220703125,-0.025826515173912046,-0.0004102978339418769,0.0026592229716246945
1783246362299023000,2.137023193359375,-0.01774491552710533,-0.008821823554858565,-0.004732017507555429
1783246362309035000,2.147034912109375,-0.02447743865251541,0.007461202726140618,0.02006194659809116
1783246362319047200,2.157047119140625,-0.01968903533220291,0.005351042171753943,0.0033656747575267214
1783246362329058000,2.16705810546875,-0.004427168792486191,-0.010027655680663883,0.0009800125968526118
1783246362339070200,2.1770703125,-0.03315875775814056,-0.0002827989967539906,0.002864141276443843
1783246362349081000,2.1870810546875,-0.02178571535050869,0.004354140088893473,0.009926951235567685
1783246362359093200,2.19709326171875,-0.02986614595353603,-0.008373093406669795,0.0155070848888834
1783246362369105200,2.207105224609375,-0.015502689558267592,-0.006082461718842387,0.009684842725517227
1783246362379116000,2.217115966796875,-0.02358253563940525,0.0037868615949526426,0.0029704009627806952
1783246362389128200,2.227128173828125,-0.017297756281495092,0.0052841144153848284,0.0014843476730864494
1783246362399139000,2.23713916015625,-0.028518822997808453,-0.00044668432157486676,0.012693959130335133
1783246362409151000,2.24715087890625,-0.02507832715511322,-0.0019164646131917833,-0.006846767472091596
1783246362419163000,2.257162841796875,-0.018047113344073294,0.0017144392350688575,0.006041981294692959
1783246362429174300,2.26717431640625,-0.02926876458227634,-0.007445091841556131,0.018479828505800103
1783246362439186200,2.277186279296875,-0.022234628161787985,0.0046432592285797,-0.0011407561165164223
1783246362449197000,2.287197021484375,-0.017447393885254858,0.009763305656053125,0.00029836417535552753
1783246362459209200,2.297209228515625,-0.024631167909502982,0.017281791527383027,0.01844514306819765
1783246362469220000,2.30722021484375,-0.006078443130850791,0.014051102510467171,0.02897022231040755
1783246362479232000,2.31723193359375,-0.0213408941924572,0.006249086990021168,0.011238435692933852
1783246362489244000,2.327243896484375,-0.03031856589615345,0.0044447044491767885,0.0014730522442259824
1783246362499255300,2.33725537109375,-0.021042203506827353,-0.0078013944659382104,0.011284030683618038
1783246362509267200,2.34726708984375,-0.016554244437813757,-0.0031365809926763174,0.0037865739005850624
1783246362519278000,2.357278076171875,-0.027478374034166333,0.007051964338123798,0.008109266255155671
1783246362529290200,2.367290283203125,-0.01445931798517704,0.0033010873720049857,-0.0009958883027080445
1783246362539303000,2.377302978515625,-0.008323591709136963,0.005975384615175426,0.009480760104337242
1783246362549313800,2.387313720703125,-0.012812135300040245,0.00896207227576524,0.00560090016342001
1783246362559325700,2.39732568359375,-0.017148118677735327,0.0016763722470030187,-0.00282671589248348
1783246362569336600,2.407336669921875,-0.012207739666104316,0.0017755948377773164,0.007044991174642927
1783246362579348700,2.4173486328125,-0.018338205245137212,0.006007058395072817,0.0011394957411917858
1783246362589360600,2.427360595703125,-0.030312136155366896,0.0018894670084118842,0.0018541536664357407
1783246362599371800,2.437371826171875,-0.01415302851498127,0.009416757240705191,-0.0004085260019637644
1783246362609384000,2.447384033203125,-0.02761982833147049,0.006119213532656431,0.011948024717415682
1783246362619394800,2.457394775390625,-0.021929507735371587,0.0006244520412757992,0.00044867991583887485
1783246362629406700,2.46740673828125,-0.011153262177109718,0.001618248851597309,-0.0029402295868028883
1783246362639419000,2.4774189453125,-0.029710078608989714,-0.0008704626915976405,0.011444564140727743
1783246362649429800,2.4874296875,-0.013550386446714401,0.012022555824927984,0.021481410058133768
1783246362659441700,2.497441650390625,-0.02477320672869682,0.012774872029572724,0.008527327270444947
1783246362669452500,2.50745263671875,-0.024175240835547444,0.011296470040082931,0.0014852244559209792
1783246362679464700,2.517464599609375,-0.01878887162208557,-0.006803944393806159,-0.0031661861130734903
1783246362689475800,2.527475830078125,-0.015049100571870803,0.002648651345260441,0.011765069365943782
1783246362699487700,2.53748779296875,-0.015196984609961509,0.005608049140125513,0.005219570412347093
1783246362709500000,2.5475,-0.016694529691338538,0.005484751554019749,0.00011030795708065851
1783246362719510800,2.5575107421875,-0.016395839005708693,-0.00019669161587953566,0.004421908095479011
1783246362729522700,2.567522705078125,-0.00981295348405838,0.009262845320627093,0.008624008560972288
1783246362739533600,2.577533447265625,-0.02731996860206127,0.005975201952084898,-0.0006745770766050554
1783246362749545700,2.587545654296875,-0.023727497068047523,0.004589738943055272,0.00783812573015457
1783246362759557600,2.5975576171875,-0.0190881468296051,0.004275046970695257,0.02381183946680976
1783246362769568800,2.60756884765625,-0.021632570615410802,0.0014461436877027153,0.008496368159889243
1783246362779581000,2.617580810546875,-0.01459960323870182,0.007873217593133449,0.0014526967260753735
1783246362789591800,2.627591796875,-0.02642272750139236,-0.0013543006857857107,0.014354880363168194
1783246362799603700,2.637603759765625,-0.028369769915938377,-0.00835099117271602,0.009334214073384646
1783246362809615600,2.64761572265625,-0.007865911069512366,0.010118585367128253,0.014679454408725723
1783246362819626800,2.657626708984375,-0.019838088414072988,0.007002645303681492,0.012453601902665104
1783246362829638700,2.667638671875,-0.016544892087578773,-0.005291019080206752,-0.0028379953383235257
1783246362839649800,2.67764990234375,-0.024775544816255567,0.004132752423174679,-0.0068250374141847715
1783246362849662000,2.687661865234375,-0.02761982833147049,-0.0025718232493847607,0.007867552754038479
1783246362859673900,2.697673828125,-0.030611411362886427,0.003097016167268157,-0.00045954151985934003
1783246362869684700,2.707684814453125,-0.020433716219663618,0.008567921859025955,0.002611401774524711
1783246362879696600,2.717696533203125,-0.017889292433857916,0.009740363171882926,-0.0019410601983312517
1783246362889707800,2.727707763671875,-0.015944003584980965,0.00525846851747483,0.014928129656880628
1783246362899719700,2.7377197265625,-0.012950082466006279,0.006271298821829259,0.0025182207654695955
1783246362909731600,2.747731689453125,-0.02118015067279339,0.008513890116848052,0.0030916732718702404
1783246362919742700,2.75774267578125,-0.027615152156352994,0.01632149512786418,0.007770955945190508
1783246362929754600,2.767754638671875,-0.014296820899844168,0.0029831805292516943,0.004940949833788909
1783246362939765800,2.777765869140625,-0.006218728384375572,0.000051291795819997785,0.006801409943425096
1783246362949778000,2.78777783203125,-0.018489011892676353,0.007838292410224676,0.016113576581783126
1783246362959788800,2.797788818359375,-0.018489596414566038,0.001707644168101251,-0.0016152257774490863
1783246362969800700,2.80780078125,-0.014900047490000724,0.010279401952028274,0.006719818907463922
1783246362979812600,2.8178125,-0.030315643286705014,0.003171871501766145,0.018309586505428885
1783246362989823700,2.82782373046875,-0.026277181550860403,-0.007106799797900021,0.009631852162955328
1783246362999835600,2.837835693359375,-0.011762333986163139,-0.0009673106621950864,0.004331028641364537
1783246363009846800,2.8478466796875,-0.026875731965899465,0.008600691617466509,0.023048401363240555
1783246363019859000,2.85785888671875,-0.022684710016846656,0.015467983571067451,0.017573767061147372
1783246363029870800,2.867870849609375,-0.013703531181812285,0.007455247909389436,0.004224282614549156
1783246363039881700,2.8778818359375,-0.02267886479794979,0.008282236785441637,-0.003707056090701371
1783246363049893600,2.8878935546875,-0.017740239351987836,-0.005364047783799469,0.008906757325376383
1783246363059904800,2.89790478515625,-0.010409750333428383,-0.0014206804528832434,0.006063131397287361
1783246363069916700,2.907916748046875,-0.02641980489194393,0.0033450726442039013,0.008337378205894492
1783246363079928600,2.917928466796875,-0.008912205252051353,0.01007178708333522,0.003268210298998747
1783246363089939700,2.927939697265625,-0.017444471275806426,0.005805946332402527,0.016861378724803217
1783246363099951900,2.937951904296875,-0.016546645653247833,-0.0006234291279688478,-0.004041226798377465
1783246363109962800,2.947962646484375,-0.02432838557064533,0.00731978496145457,0.005218620564276352
1783246363119974700,2.957974609375,-0.021637246790528294,-0.0017603607360273598,0.0020284987364779226
1783246363129986800,2.96798681640625,-0.03285948255062103,-0.003564597146399319,0.0028036843600566497
1783246363139997700,2.977997802734375,-0.022980478093028067,-0.0043842794988304375,-0.0028723382826312443
1783246363150009600,2.988009521484375,-0.018041268125176427,-0.0015689298171550035,0.016459659206250216
1783246363160020700,2.998020751953125,-0.03030979806780815,0.010808284664340317,-0.0028910726658534255
1783246363170032600,3.00803271484375,-0.01803893003761768,-0.004327142484113574,0.0003624492373783141
1783246363180044500,3.01804443359375,-0.02327624616920948,-0.0005845584223046898,0.012397807461663614
1783246363190055700,3.0280556640625,-0.02177870108783245,0.0005901844454929233,0.009094281537400092
1783246363200067800,3.03806787109375,-0.013698270484805106,-0.0022650223225355146,0.004867366291058715
1783246363210078700,3.04807861328125,-0.008461538875102996,0.011072926949895917,0.009176913752977271
1783246363220090600,3.058090576171875,-0.014895371314883232,0.003715878717973828,0.010771754329523537
1783246363230101800,3.068101806640625,-0.016390578308701515,-0.0048408641599118705,0.0050083593640592875
1783246363240113700,3.07811376953125,-0.03838379893004894,-0.0020846242543309927,0.0021104299824452025
1783246363250125600,3.08812548828125,-0.021025836893916128,0.01167640926837921,0.01609973756938707
1783246363260137000,3.098136962890625,-0.02446516369283199,0.004574724037013948,0.0073997069134260525
1783246363270148900,3.10814892578125,-0.022816811963915825,0.009757277774065732,0.009932259881636128
1783246363280159700,3.11815966796875,-0.011143909826874732,-0.0015044132135808466,0.003615847843023948
1783246363290171600,3.128171630859375,-0.008750292688608169,0.011372786679305136,0.01352781613859115
1783246363300183800,3.138183837890625,-0.015481646770238876,0.0006868497529998422,0.0073145859132404435
1783246363310194700,3.148194580078125,-0.003059387570619583,-0.004298135585337877,0.0021107131102355197
1783246363320206600,3.15820654296875,0.00008241758644580841,-0.002495031686127186,0.009659400040295441
1783246363330217700,3.1682177734375,-0.017272037318348882,-0.00825377787593752,0.014068469203799032
1783246363340229600,3.178229736328125,-0.017122399714589117,0.002366948327049613,0.005826347516325768
1783246363350241500,3.188241455078125,-0.010987257960438727,0.004302957890927791,0.000721411893016193
1783246363360252700,3.198252685546875,-0.01726911470890045,0.012766104201227426,0.018121242592786437
1783246363370264800,3.208264892578125,-0.020561141991615295,-0.00010462941825389861,-0.00000563287305412814
1783246363380275700,3.218275634765625,-0.024002222356200215,-0.004909289753623307,0.014563136835966724
1783246363390287600,3.22828759765625,-0.030886136651039123,-0.0008495295014232396,0.0064888322963379316
1783246363400299800,3.2382998046875,-0.03806932615339756,0.0052982890712097285,-0.006880626359209418
1783246363410310700,3.248310546875,-0.012329904741048812,0.0039052638102322814,-0.005806930429802741
1783246363420322600,3.258322509765625,-0.012630348992347716,0.004386179194971918,0.00708333672392182
1783246363430333700,3.268333740234375,-0.007987491622567176,0.00697272508945316,0.00203410192677984
1783246363440345900,3.278345947265625,-0.013822189125418662,0.0023038930281996726,0.009781313953490462
1783246363450357800,3.288357666015625,-0.016214052698016165,0.0031358503403142095,0.008266591691737993
1783246363460368600,3.29836865234375,-0.009929857861995696,0.0018082549983635544,0.003447683635307476
1783246363470380800,3.308380859375,-0.01591594653427601,0.01679126806408167,0.011973572433914522
1783246363480391700,3.3183916015625,-0.023095628905296324,0.002196815924532711,-0.003644350135012064
1783246363490403600,3.328403564453125,-0.024895371803641316,0.021590046647936106,0.008551208186242729
1783246363500414700,3.338414794921875,-0.029385084438323973,0.002156410848908126,0.019026922728237694
1783246363510427000,3.348427001953125,-0.013821020081639289,-0.00013615706767886875,0.01257907317954814
1783246363520438800,3.358438720703125,-0.02534019296169281,0.008030490514077246,0.01882602301141014
1783246363530449700,3.36844970703125,-0.03237666746973991,0.005272606640681624,-0.0015343950766022315
1783246363540462000,3.378462158203125,-0.02040799725651741,-0.021450163253210485,-0.001157077063655015
1783246363550473000,3.388472900390625,-0.019957915401458737,0.00037537265103310347,0.020139640060358215
1783246363560485000,3.398485107421875,-0.00469429529607296,0.019962481978721917,0.015038517529063392
1783246363570497000,3.4084970703125,-0.031178982117772102,-0.013140709667280315,-0.006584008899657055
1783246363580508000,3.4185078125,-0.019207389295101164,0.0025465792102739213,-0.005539157755533233
1783246363590520000,3.42852001953125,-0.022798107263445853,0.03785162828210741,0.017861255932750644
1783246363600531200,3.43853125,-0.02220131041407585,-0.0010137070871889592,0.0006108413577429018
1783246363610543000,3.448543212890625,0.008475567400455474,-0.01614716147426516,0.001216673180228099
1783246363620555300,3.45855517578125,-0.04195464315414429,0.0075613020997494455,0.00958554706950672
1783246363630566100,3.468566162109375,0.0008417115211486816,0.028053214780054986,-0.01738843480620999
1783246363640578000,3.478578125,-0.026842998740077017,0.006067848671600222,-0.009558524348551872
1783246363650589000,3.4885888671875,-0.027736732709407803,-0.01313398766554892,0.0788504959482234
1783246363660601000,3.49860107421875,0.013564999493956564,0.009427899689227342,0.021185870310815515
1783246363670613000,3.508613037109375,-0.04884031101465225,0.014619623113423585,-0.08916362663991749
1783246363680624000,3.5186240234375,-0.028936756148934362,-0.013530549235083162,0.015080863400024827
1783246363690636000,3.528635986328125,0.015661094990372656,0.019119163022376595,0.09314067704472691
1783246363700647200,3.538647216796875,-0.028037761482596395,-0.01010061131902039,-0.01225892643064726
1783246363710659000,3.5486591796875,-0.043752632486820216,-0.0066206602487713095,-0.0843655604421161
1783246363720671200,3.558671142578125,-0.009033785805106163,-0.005019727858155965,0.01627291587893851
1783246363730682000,3.56868212890625,-0.002893383353948593,0.02987856704369187,0.08146450523836538
1783246363740694000,3.578694091796875,-0.0007967033356428146,-0.024481859099306166,-0.01637538987272419
1783246363750705000,3.588704833984375,-0.037466099563241005,0.015188180248998104,-0.06290969353390391
1783246363760717000,3.598717041015625,-0.018459785798192022,0.0048259588517248625,0.03717662879710551
1783246363770729000,3.60872900390625,-0.011273089164495468,0.023162008672393857,0.06273381181061267
1783246363780740000,3.618739990234375,-0.003042436435818672,-0.006050861004181206,-0.022217188403219915
1783246363790752300,3.628752197265625,-0.037761867639422415,0.017196962788142263,-0.05057301655877381
1783246363800763100,3.63876318359375,-0.017862404426932335,0.008603796890005469,0.05040218546993565
1783246363810775000,3.648775146484375,-0.004688450077176094,0.001447166601009667,0.060001838696608314
1783246363820786000,3.658785888671875,-0.03566518762111664,-0.009448102227039635,-0.034875907256815115
1783246363830798000,3.668798095703125,-0.04344692753851413,0.017042722074501214,-0.046954469868587326
1783246363840810000,3.67881005859375,-0.013516484177112579,-0.010999057996086775,0.04619803004467394
1783246363850821000,3.688821044921875,-0.000796118813753128,-0.005461772537231445,0.04540627231220715
1783246363860833300,3.698833251953125,-0.022197218760848045,0.0020621201615780593,-0.036032274217705704
1783246363870844200,3.70884423828125,-0.03207388513088226,-0.009591675416193901,-0.034458898837585
1783246363880856000,3.71885595703125,-0.011119944429397583,0.0012370309816673397,0.05449622245107311
1783246363890868000,3.728867919921875,-0.00977495956122875,-0.004395823806151748,0.032590241721761413
1783246363900879000,3.738879150390625,-0.04194879793524742,-0.005112557240761816,-0.044025978668639436
1783246363910891000,3.74889111328125,-0.02115092457830906,-0.013614062800072133,-0.024105137024691792
1783246363920902000,3.75890185546875,-0.019954992792010306,0.010073832909949123,0.06160608642231673
1783246363930914000,3.7689140625,-0.010976152044534683,0.00048760085385292763,0.018720939218718556
1783246363940926000,3.778926025390625,-0.031630233016610144,-0.007670242366939782,-0.03614696380567038
1783246363950937000,3.78893701171875,-0.03671849606633186,0.0011790537167340517,-0.0026882412868435494
1783246363960949000,3.798948974609375,-0.0014016834914684295,0.01924191261921078,0.048136697356519285
1783246363970960100,3.808960205078125,-0.01786006633937359,-0.00414349301289767,0.002584885943646077
1783246363980972000,3.818971923828125,-0.031631402060389516,-0.006739135529287159,-0.03255616592222359
1783246363990984000,3.82898388671875,-0.03806523450016975,0.013006890687160193,0.008945733062317595
1783246364000995000,3.8389951171875,-0.023847324055433272,0.010861549221538007,0.04899810909198131
1783246364011007000,3.849007080078125,-0.0132236387103796,-0.0012464929297566413,-0.008658104910107794
1783246364021018000,3.85901806640625,-0.038513562789559364,0.003558569264411926,-0.032829608002165334
1783246364031030000,3.869030029296875,-0.03402501919865608,-0.005393310410901904,0.009602308691351208
1783246364041042200,3.879042236328125,-0.0060381111204624175,0.0031814795803278683,0.04839836680027656
1783246364051053000,3.889052978515625,-0.024293314257264137,0.00046034752074629065,-0.0031922293032053857
1783246364061065000,3.89906494140625,-0.028036592438817023,0.0021485563360154627,-0.03451495129020186
1783246364071076000,3.909076171875,-0.02878127332627773,-0.010493811887688935,0.012566382661333773
1783246364081088000,3.919087890625,-0.014563947403430939,0.0033795594356954097,0.046203112645167854
1783246364091100000,3.929099853515625,-0.017858897295594214,0.0005933262506499886,-0.005621424644929356
1783246364101111300,3.939111328125,-0.024740473502874373,-0.014262297575734556,-0.018298745451006106
1783246364111123200,3.949123291015625,-0.01291910280585289,0.003396108711697161,0.017007267168629915
1783246364121134000,3.959134033203125,-0.01501344473659992,0.0035462577721104022,0.025772243686427828
1783246364131146000,3.96914599609375,-0.01785655920803547,-0.008298311137408018,-0.01333806115357438
1783246364141157000,3.9791572265625,-0.02997603606879711,-0.0003942965472117066,-0.012967876134312245
1783246364151169000,3.9891689453125,-0.01471066239774227,0.016911898769065736,0.02827175746813882
1783246364161181000,3.999180908203125,-0.01620645391345024,0.007331219670921564,0.02167747833621688
1783246364171192000,4.009192138671875,-0.039700142225623125,-0.011523520261608064,-0.004117863098008092
1783246364181204000,4.019203857421875,-0.019203297641873358,0.010998254278488457,-0.023086201206536497
1783246364191215000,4.029215087890625,-0.01321837801337242,0.0072767860699445,0.012447119646240025
1783246364201227000,4.03922705078125,-0.01994914757311344,0.004215425737947225,0.017028951560764106
1783246364211239200,4.0492392578125,-0.021148586490750312,0.010855265611223876,-0.004381715365697164
1783246364221250000,4.05925,-0.02324351294338703,0.005169328929297626,-0.007552089030120987
1783246364231262000,4.069261962890625,-0.00663315440416336,-0.007848777271620928,0.020702995864429974
1783246364241273000,4.079273193359375,-0.015760463711619377,0.003805529762804508,0.01367951555198524
1783246364251285000,4.089284912109375,-0.018154665371775625,0.02040671861488372,-0.015361717034864704
1783246364261297000,4.099296875,-0.012765373548865318,0.0005919014785438775,0.005115589448064566
1783246364271308000,4.10930810546875,-0.02428571547269821,0.012966777872480451,0.025282855017576364
1783246364281320200,4.1193203125,-0.023389058893918988,0.014942498392239212,-0.004407662657706532
1783246364291331000,4.1293310546875,-0.032066286346316336,0.0012742211868986488,-0.009320982415764591
1783246364301343000,4.139343017578125,-0.026677579045295715,-0.006852971167303622,0.010896593135455622
1783246364311355100,4.149355224609375,-0.007822071927785872,-0.005973631049506366,0.01722978049564408
1783246364321366000,4.159365966796875,-0.0037806875824928283,0.012087437754683196,0.00052833243975183
1783246364331378000,4.1693779296875,-0.02547814012765884,-0.008405680502019822,-0.014800176445255055
1783246364341389000,4.17938916015625,-0.010218027153611182,-0.004747340657562017,0.0017707337162806652
1783246364351401200,4.189401123046875,-0.016207038435339927,0.009402290323935449,0.008059803373529576
1783246364361412000,4.199412109375,-0.01635375342965126,0.007387004978768527,0.005289971050724852
1783246364371424000,4.209424072265625,-0.024430676901340483,0.005194207642227411,-0.005571158045704942
1783246364381436200,4.219436279296875,-0.011259645161032675,0.011109824894182383,0.018569867709698155
1783246364391447000,4.229447021484375,-0.009910568639636038,-0.011536562406271695,0.013258410912950058
1783246364401459000,4.239458984375,-0.012004910570383071,-0.006476429472491145,-0.009002995657909196
1783246364411471000,4.24947119140625,-0.02442249359488487,0.011874196862801908,-0.0051229233711492265
1783246364421482000,4.25948193359375,-0.02591828511059284,0.005575388979539275,0.019811458418762775
1783246364431494000,4.269493896484375,-0.021279519394040106,0.004386763716861606,0.015861095091479364
1783246364441505000,4.279505126953125,-0.030407413223385808,0.003938106633909046,-0.0045478497298201545
1783246364451517200,4.28951708984375,-0.010952771168947219,0.011363251665979623,-0.007269294599944259
1783246364461528000,4.299528076171875,-0.025468203255534172,-0.007471797185391187,0.025222521398775278
1783246364471540000,4.3095400390625,-0.002723287484049797,-0.005377784048207104,0.019075970051332842
1783246364481552100,4.31955224609375,-0.024120880299806594,0.0046377062706276775,-0.00013836729107424617
1783246364491563000,4.32956298828125,-0.021281272959709167,-0.00755688165295869,0.0052175063194241375
1783246364501575000,4.339574951171875,-0.02367664366364479,0.0031072818329557776,0.01994044824342709
1783246364511586000,4.3495859375,-0.014549918878078459,0.007017185285687446,0.00580988957186928
1783246364521598200,4.35959814453125,-0.02158697790801525,-0.008446962360478937,-0.014930029353022109
1783246364531610000,4.369610107421875,-0.009166472274065017,0.0009598945407196879,0.00600159905195469
1783246364541620200,4.3796201171875,-0.018145897543430326,-0.002750285088829696,0.01568430233602412
1783246364551632100,4.389632080078125,-0.017244564789533613,0.010030176431313157,0.00312233783819247
1783246364561643000,4.39964306640625,-0.010811901393532752,0.0036356896212324497,-0.013591483358794357
1783246364571655200,4.4096552734375,-0.0163519998639822,-0.0070541197625920175,0.0005108196159475483
1783246364581667000,4.4196669921875,-0.02383212648630142,-0.012633527330122888,0.00577623389743967
1783246364591678200,4.42967822265625,-0.03296060483753681,0.0028041341679170724,0.0011260220549767837
1783246364601690400,4.4396904296875,-0.023985855743288993,0.00783157040849328,0.007757660355488769
1783246364611701200,4.449701171875,-0.023985855743288993,0.005884820254892111,0.014384480916988103
1783246364621713200,4.459713134765625,-0.023389643415808677,0.008485285076871513,0.0016986091949860564
1783246364631725000,4.46972509765625,-0.014259411498904227,0.015769085409492255,-0.013357989696750882
1783246364641736200,4.479736083984375,-0.022189035454392433,0.012751966078020632,-0.00006722686717985197
1783246364651748000,4.489748046875,-0.023535189366340636,0.003906615517102182,0.0021425923861097544
1783246364661759200,4.49975927734375,-0.018446341794729232,0.0064217401431873435,0.014629712965886573
1783246364671771400,4.509771484375,-0.013059972581267357,0.0011981968086212872,0.0019352674950729124
1783246364681782300,4.5197822265625,-0.016654197680950163,0.0006657338997349142,0.0013766860475298017
1783246364691794200,4.529794189453125,-0.026678748089075086,-0.006695113724470138,0.0042501431415905245
1783246364701806000,4.53980615234375,-0.03146481332182884,-0.0021167364256456495,0.0038594062413554635
1783246364711817200,4.549817138671875,-0.03131283763051033,-0.00023267624471336602,0.007697662380116526
1783246364721829000,4.5598291015625,-0.023829203876852986,-0.0007266703067347407,-0.008280421570979524
1783246364731840300,4.56984033203125,-0.02338029106557369,-0.006263188580609857,-0.004599974925990681
1783246364741852200,4.57985205078125,-0.02562543964385986,-0.007156593756377697,0.011289200049079955
1783246364751864300,4.5898642578125,-0.017394786915183067,0.004204831278696656,0.006661357585340738
1783246364761875200,4.599875244140625,-0.026820786908268928,0.00791373226661235,-0.01054934146720916
1783246364771887400,4.609887451171875,-0.022474866658449173,-0.001214782617241144,0.01040794881869806
1783246364781898200,4.619898193359375,-0.010951602125167846,0.0027904344361275434,0.006576866772817447
1783246364791910100,4.62991015625,-0.03025485301017761,0.0036890637762844562,0.008766937862732447
1783246364801922000,4.639922119140625,-0.013047113099694252,0.007741006048209965,0.0033750430907821282
1783246364811933200,4.64993310546875,-0.02456803954541683,0.001589132354967296,0.010452854256215505
1783246364821945000,4.659945068359375,-0.031152094110846518,0.00009012596886605024,0.006086831933283247
1783246364831956200,4.669956298828125,-0.020526070678234098,0.018458141830377278,-0.002106324629485607
1783246364841968400,4.679968505859375,-0.012746668848395346,0.0012937661375850438,-0.002666506662359461
1783246364851980300,4.689980224609375,-0.023372692281007766,-0.0027031945440918206,0.00268706310990965
1783246364861991200,4.6999912109375,-0.02292202590405941,0.007884360041655599,0.006163221637741662
1783246364872003000,4.710003173828125,-0.017536825734376905,0.006124145436100662,0.007520022524578962
1783246364882014200,4.72001416015625,-0.02636369079053402,-0.001693432979658246,0.010661336774588562
1783246364892026000,4.730026123046875,-0.025612580162286756,-0.005512918202579021,0.008702932715811766
1783246364902038000,4.7400380859375,-0.016337386816740036,-0.010235526277683675,-0.0013482956366846336
1783246364912049400,4.75004931640625,-0.01319616618156433,0.015216237299703061,0.01473922862181207
1783246364922061300,4.760061279296875,-0.020975568011403083,0.007854987816698848,0.005851488807448186
1783246364932072200,4.770072265625,-0.015885551396012304,0.010934504859894513,0.008929720359144267
1783246364942084000,4.780083984375,-0.030102292796969413,-0.005342493539117276,0.0017839311245712451
1783246364952095200,4.79009521484375,-0.01947685388624668,0.003602700667083263,0.006396740415960085
1783246364962107100,4.800107177734375,-0.005561141258478165,0.0027251141149550674,-0.003490650560776703
1783246364972119000,4.810119140625,-0.014839257213473319,0.001550334714539349,0.004306380540586542
1783246364982130200,4.820130126953125,-0.01872866586744785,0.003912460735999048,0.021400750603934284
1783246364992142000,4.83014208984375,-0.011696283012628554,0.009169358350895345,0.0028779483227990565
1783246365002153200,4.8401533203125,-0.015738251879811285,-0.008005904062092303,0.008348522937705273
1783246365012165000,4.8501650390625,-0.0010796119302511214,0.0035250688536092637,0.009595015867461915
1783246365022177300,4.86017724609375,-0.011405191111564636,-0.0012546762362122535,-0.000408722364786081
1783246365032188200,4.870188232421875,-0.01260229194164276,-0.0012495251370593906,-0.0033321469472604804
1783246365042200000,4.880199951171875,-0.025919454154372214,-0.005456840633787215,-0.00008184448099927976
1783246365052211200,4.890211181640625,-0.014397943186759948,0.01221073534078896,0.008419240953202825
1783246365062223000,4.90022314453125,-0.016343816557526588,-0.0054390857813879845,0.009659402323584072
1783246365072235000,4.910235107421875,-0.012601707419753074,-0.0059220104601234195,0.003962316343269776
1783246365082246100,4.92024609375,-0.021731939336657524,0.01628868883680552,0.006123670512065291
1783246365092258300,4.93025830078125,-0.02517243517935276,-0.001828822862356901,0.0137018552479567
1783246365102269200,4.940269287109375,-0.025319734695553778,0.0054375514114275575,0.008004399374884088
1783246365112281000,4.950281005859375,-0.023372692281007766,0.01077975268959999,-0.0002590436618309468
1783246365122293200,4.960293212890625,-0.016792729368805884,0.007593560401536524,0.00405863002432743
1783246365132304100,4.97030419921875,-0.02083352919220924,0.0011618833862245082,0.00013164528934285044
1783246365142316000,4.98031591796875,-0.022181436669826506,0.004346979695744812,-0.0020875240308931096
1783246365152327400,4.990327392578125,-0.018591303223371505,0.007660816951468586,0.012463367528142406
1783246365162339300,5.00033935546875,-0.032956513184309005,0.014544292854890227,0.024372437058214562
1783246365172351200,5.010351318359375,-0.021885084071755406,0.00994885482341051,0.004006208000634797
1783246365182362000,5.020362060546875,-0.013950783941149712,0.010611812244169414,0.007121670856757555
1783246365192374300,5.030374267578125,-0.029214988568425176,0.001503463365510106,-0.003361674435844179
1783246365202385200,5.04038525390625,-0.02965747163891792,0.0024032982820644975,0.013322902400349265
1783246365212397000,5.05039697265625,-0.025618425381183623,0.0036178251709789036,0.017226323596655855
1783246365222409200,5.0604091796875,-0.016492869639396668,0.009080474491044878,0.01699913866110146
1783246365232420000,5.070420166015625,-0.0185872115701437,0.005312427194416523,0.022786250145582016
1783246365242432000,5.080431884765625,-0.014844517910480498,0.004827602819539607,0.007935313910758123
1783246365252443100,5.090443115234375,-0.02172901672720909,0.0021591142626479266,-0.009326478291500824
1783246365262455300,5.100455322265625,-0.029362288084626195,0.0038475422736257313,0.002007592945767101
1783246365272466200,5.110466064453125,-0.005870353338122368,0.0038696810401976107,0.011413979489507618
1783246365282478000,5.12047802734375,-0.009611293432116507,0.0038708866165950893,0.015151394185854587
1783246365292490200,5.130490234375,-0.028915713360905645,0.010772336568124591,0.0017849380548577755
1783246365302501000,5.140501220703125,-0.017843115204572678,0.013193535833060741,0.009320322545350063
1783246365312513000,5.150512939453125,-0.020235563299059865,0.011646342923678457,-0.0038562416033120824
1783246365322524200,5.160524169921875,-0.017391279783844946,-0.000047236675210297104,0.00486813575932756
1783246365332536300,5.170536376953125,-0.023675474619865414,0.008611249544098972,0.004205988906032871
1783246365342548200,5.18054833984375,-0.010957447344064711,-0.003176511144265532,-0.009703172966651618
1783246365352559000,5.19055908203125,-0.009608955344557761,0.005151427946425974,0.018394360445742493
1783246365362571300,5.2005712890625,-0.020684476110339165,-0.011243095885030925,0.007757333845214452
1783246365372582100,5.21058203125,-0.017540332865715026,-0.007547346639633178,0.009439263616746756
1783246365382594000,5.220593994140625,-0.0015256021320819854,0.00224730400275439,0.014710861043853218
1783246365392606200,5.230606201171875,-0.014092238238453864,-0.0002224836442619562,0.0071616032916354015
1783246365402617300,5.240617431640625,-0.02666296599805355,0.002655263749137521,0.020404496975045185
1783246365412629200,5.250629150390625,-0.03863514334261417,0.0031374943081289527,0.0014120633215876294
1783246365422640000,5.26064013671875,-0.018283260187506676,0.010431487241201102,-0.013174801449838559
1783246365432652300,5.27065234375,-0.00047229368686676023,0.003152253485843539,0.003705665567924734
1783246365442664200,5.280664306640625,-0.015286416459083556,-0.0035946634911000726,0.008145113886671607
1783246365452675000,5.290675048828125,-0.02366436870396137,0.009976948406733572,0.0061490949309780255
1783246365462687200,5.300687255859375,-0.01947685388624668,-0.002693842193856835,0.0008441089742118492
1783246365472698000,5.310697998046875,-0.034736382338404655,0.0027652999948710203,0.008640539570664987
1783246365482710000,5.3207099609375,-0.02815174325108528,0.005737886064872145,-0.000655671446735505
1783246365492722200,5.33072216796875,-0.025008769050240517,0.0027292057681828734,-0.003038388165074866
1783246365502733300,5.3407333984375,-0.020067805516719817,0.008940591096319258,0.003721755902911536
1783246365512745200,5.3507451171875,-0.011684008052945137,0.014093809141032396,0.007726130422775168
1783246365522756000,5.360756103515625,-0.017967033845186234,0.015236659033223986,0.0007296362986671738
1783246365532768300,5.370768310546875,-0.020509704065322876,0.012665091512165962,0.008218213372211902
1783246365542784300,5.3807841796875,-0.03038695495724678,0.015695508716627955,-0.016428211471927353
1783246365552795400,5.39079541015625,-0.01826338644325733,0.00214833714030683,0.0018124608160229399
1783246365562807300,5.400807373046875,-0.02484510292112827,0.0055371758610010145,0.007499593941192142
1783246365572818200,5.410818115234375,-0.026487609431147575,0.003803483936190605,0.010083609951869583
1783246365582830000,5.420830078125,-0.017207155388593673,0.000743036919645965,0.012246281578205525
1783246365592841500,5.430841552734375,-0.007327566409111023,-0.005630078308843076,0.00971495016941335
1783246365602853400,5.440853271484375,-0.011962824994325638,0.006110920628346502,0.014110947505501098
1783246365612865300,5.450865234375,-0.020788521006703375,0.008584799928590655,0.0015927879000664689
1783246365622876400,5.46087646484375,-0.01614507911503315,0.006673705610260367,0.0024888942062854767
1783246365632888300,5.470888427734375,-0.029312603724002836,-0.0012857654942199587,0.018299905361630953
1783246365642899200,5.480899169921875,-0.019732289952039718,-0.0036078152336180207,0.011466951785760465
1783246365652911400,5.490911376953125,-0.012098434072732926,0.002018427150323987,0.0028879011779441494
1783246365662923300,5.50092333984375,-0.0224257668197155,0.00012190934661775827,0.0015108520875219255
1783246365672934400,5.510934326171875,-0.027512860825657844,-0.0016800620414316654,0.0013683429108699782
1783246365682946300,5.5209462890625,-0.010454173997044562,0.006092617786675691,0.010352480887970887
1783246365692957400,5.53095751953125,-0.02272153489589691,-0.004146379089727997,0.010242369293712545
1783246365702969300,5.54096923828125,-0.030948680493235587,-0.005264423334226012,-0.017637893222365527
1783246365712981200,5.550981201171875,-0.01598433559536934,0.007286649876832961,0.005246705014444887
1783246365722992400,5.560992431640625,-0.032146365845203397,-0.015128412885777652,-0.0005061091915005818
1783246365733004300,5.57100439453125,-0.019580898782610892,-0.015630882515199482,-0.002444598406832665
1783246365743015200,5.58101513671875,-0.019582067826390267,-0.011854250053316353,0.0037418282932718283
1783246365753027300,5.59102734375,-0.03439677512049675,-0.0027064459471032023,0.002501123500196263
1783246365763039200,5.601039306640625,-0.023169278663396835,-0.002821304498426616,0.007031012881640345
1783246365773050400,5.61105029296875,-0.020026304462552068,0.0014991890491917728,0.002373684028512798
1783246365783062300,5.621062255859375,-0.01493687236905098,-0.0060145841144025325,0.008495541609404609
1783246365793073400,5.631073486328125,-0.021520926934480666,0.004022350851260126,-0.0007392694934038444
1783246365803085300,5.641085205078125,-0.03020516864955425,-0.0007930866064503789,0.005201881775318179
1783246365813096200,5.65109619140625,-0.018681904116272924,0.009649543083272873,-0.0007849215663038193
1783246365823108000,5.661108154296875,-0.017629764714837074,-0.0016851400753483175,0.011665730327449273
1783246365833120300,5.671120361328125,-0.022114801174402236,-0.0005957374034449458,0.008797004207433201
1783246365843131400,5.68113134765625,-0.02346095508635044,0.012257168298400938,0.0016262700445600785
1783246365853143300,5.691143310546875,-0.02241173829436302,-0.006638195905461907,0.009103095031518023
1783246365863154400,5.701154541015625,-0.018373861080408095,-0.003450798041000962,-0.0020914946698234417
1783246365873166300,5.711166259765625,-0.019867899030447004,-0.001102371751330793,0.008111695674259681
1783246365883178200,5.72117822265625,-0.019120295533537862,-0.013367577225714921,0.01058193312913645
1783246365893189000,5.731189208984375,-0.016873393389582634,-0.001000299616344273,0.010302919824933632
1783246365903201300,5.741201171875,-0.02989011135101318,-0.0031485271587967873,0.009611122185469138
1783246365913212400,5.75121240234375,-0.013730419188737868,-0.007908106243424117,0.009391730114014353
1783246365923224300,5.761224365234375,-0.016869301736354828,0.002776223247684538,-0.0028196993465186095
1783246365933236500,5.771236572265625,-0.020460019704699513,-0.005469809713214636,0.003007618567475583
1783246365943247400,5.781247314453125,-0.015223872616887091,0.006224610135890543,0.005253449849062599
1783246365953259300,5.79125927734375,-0.015971476113796235,0.004566358067467809,0.0015054110107128506
1783246365963270400,5.8012705078125,-0.0209095170378685,-0.0014214841704815624,0.0038909133411827493
1783246365973282300,5.8112822265625,-0.015970891591906546,-0.002490355511009693,0.014902609339845366
1783246365983294200,5.821294189453125,-0.017465514063835143,0.0058592474222183225,0.015497070384945254
1783246365993305000,5.83130517578125,-0.01806464900076389,0.009455774076841771,0.016257218269596342
1783246366003317200,5.841317138671875,-0.005796703580021858,0.0005350201921537518,-0.0014467145098606123
1783246366013328400,5.851328369140625,-0.0060942252218723295,-0.00654215165246278,-0.00582967198457336
1783246366023340300,5.86134033203125,-0.03347790670990944,0.005874006599932909,0.00343140150407562
1783246366033352400,5.8713525390625,-0.02136076793670654,0.0004263721859082579,0.007634846826572902
1783246366043363300,5.88136328125,-0.02764671633839607,0.006731829005666077,0.0018819664052571168
1783246366053375200,5.891375244140625,-0.01642389605641365,0.008226086151413618,-0.006118802540702745
1783246366063386000,5.90138623046875,0.0010860416710376738,-0.0041018092956393954,0.017105992002482525
1783246366073398300,5.911398193359375,-0.017167407900094984,-0.003275624137185514,0.010028578129271045
1783246366083409400,5.921409423828125,-0.023749124377965926,0.009537753271870314,-0.0035652821329887952
1783246366093421300,5.93142138671875,-0.024051906716823578,-0.0057890317302197215,0.0008996499701752327
1783246366103433500,5.94143359375,-0.011932429856061934,0.0030742563461884855,-0.0015081030080094932
1783246366113444400,5.9514443359375,-0.028693595042824743,-0.008111373730562628,0.007252943970053456
1783246366123456300,5.961456298828125,-0.008794131830334662,0.002865070574916899,-0.001497019924991764
1783246366133467100,5.971467041015625,-0.03183832280933857,-0.0007223229251801967,0.0030117536031873896
1783246366143479300,5.981479248046875,-0.0204693720549345,0.001597827118076384,-0.0036320934416376985
1783246366153491200,5.9914912109375,-0.015531915652751922,0.0013138956101611257,0.006813942914723884
1783246366163502300,6.00150244140625,-0.01418342365324497,0.016982552852481604,-0.012428545093222054
1783246366173514200,6.01151416015625,-0.016875146955251694,-0.008789309524744748,-0.00584146060377825
1783246366183525400,6.021525390625,-0.0207657246530056,0.0012322086760774254,0.011642411100654863
1783246366193537300,6.031537353515625,-0.015375263786315917,0.0044360462186858055,-0.006517001228185836
1783246366203549400,6.041549560546875,-0.026297639816999435,-0.0074236106621101495,-0.004131384733284358
1783246366213560300,6.051560302734375,-0.005497428372502326,-0.00040635231118649244,0.011425373099779243
1783246366223572200,6.061572265625,-0.015224457138776779,-0.008324760752916336,0.011072575323446653
1783246366233583000,6.0715830078125,-0.02465045713186264,0.00032225422430783506,0.009041633468132932
1783246366243595300,6.08159521484375,-0.025251930156350133,-0.0008032061416655778,0.013477330343658103
1783246366253607200,6.091607177734375,-0.028096213671565055,0.0073078753279522055,0.0067982955377316094
1783246366263618300,6.101618408203125,-0.01911561935842037,-0.00561491727232933,0.009867715878598391
1783246366273630500,6.11163037109375,-0.017468436673283575,-0.0051927828701213,0.001607620143017266
1783246366283641300,6.121641357421875,-0.02435059740245342,0.0058647273149341345,-0.0006159513577003963
1783246366293653200,6.1316533203125,-0.017016016730666158,-0.001979994836077094,0.0003278094655484892
1783246366303665400,6.14166552734375,-0.011178981140255928,-0.0030711510736495255,0.010081833553314209
1783246366313676300,6.15167626953125,-0.020908932515978813,-0.001181026478111744,0.013961643261881544
1783246366323688200,6.161688232421875,-0.020606734699010847,-0.0057474210781976575,0.005908039016986731
1783246366333699300,6.17169921875,-0.016565350353717805,-0.002040017927624285,0.0015061713458271696
1783246366343711500,6.18171142578125,-0.011026420927047729,0.0022438699366524816,0.004774294879857916
1783246366353722400,6.191722412109375,-0.022549685460329056,-0.0047593233563005925,0.019629713210265617
1783246366363734300,6.201734375,-0.015219780963659285,-0.0014101955914869904,0.01730349875240354
1783246366373746400,6.211746337890625,-0.026442601245641708,0.009057093615457415,-0.0012481779967667534
1783246366383757300,6.22175732421875,-0.027640871119499207,-0.003920059520564973,0.0027774699232773854
1783246366393769200,6.231769287109375,-0.012234627673029899,0.008653298587538301,0.00788099675750127
1783246366403780000,6.241780029296875,0.009162965142726898,0.013903108874522148,0.011410709820187184
1783246366413792300,6.251792236328125,-0.08690496099293231,-0.0380061612566933,0.00011236748342635109
1783246366423804200,6.26180419921875,0.007963526225090027,0.05092460647542029,-0.005381585723778698
1783246366433815300,6.271815185546875,-0.03169511494636536,-0.00028374884482473134,0.00010082089281640947
1783246366443827500,6.281827392578125,-0.024061843588948247,-0.032655849737301464,0.002583698633557651
1783246366453838300,6.29183837890625,0.01170037466585636,-0.013900697721727192,0.0017924066919717005
1783246366463850200,6.301850341796875,-0.07823299423754215,0.06497304210476577,-0.0015127106844680382
1783246366473862400,6.3118623046875,0.02307400159537792,-0.07497450389824807,0.01540587583699962
1783246366483873300,6.321873291015625,-0.03738485102057457,0.0022137670593336224,0.005467167948267888
1783246366493885200,6.33188525390625,0.0027110125243663785,0.01898315208517015,0.0023789264592109245
1783246366503896300,6.341896240234375,-0.0363420639693737,-0.009351181191205978,-0.007236554524255916
1783246366513908500,6.351908447265625,0.0426683443814516,-0.050677536379173396,0.011776099933322985
1783246366523920400,6.36192041015625,-0.06118190619349479,0.043774771253392096,-0.003645836555911228
1783246366533931300,6.37193115234375,-0.004616553884744644,0.0010656930027529597,-0.008040160241432021
1783246366543939300,6.381939208984375,-0.033797640183568,-0.032554142928496003,0.014865640613611321
1783246366553950500,6.391950439453125,-0.0050660512179136275,0.027426059325039383,-0.0014234409488388337
1783246366563962400,6.40196240234375,-0.027063948014378544,0.010700878767110407,-0.006965411715966183
1783246366573974300,6.411974365234375,-0.03469429676234722,-0.018502675091847776,0.0073133871867088595
1783246366583985400,6.4219853515625,-0.005063713130354881,-0.015403576565347611,0.009941902209527325
1783246366593997600,6.43199755859375,-0.03798866213262081,0.03167600838709622,0.011831987989158368
1783246366604008400,6.442008544921875,-0.0067144029468297955,-0.030859175578877327,-0.006088752179022413
1783246366614020400,6.452020263671875,-0.03963409125208855,0.003989727223291993,0.008268532487074844
1783246366624031500,6.462031494140625,-0.012848375657200813,0.01744578645005822,0.009798422635206952
1783246366634043400,6.47204345703125,-0.04157996462285518,0.010439159091003238,0.01112089199417969
1783246366644055300,6.48205517578125,-0.01045651208460331,-0.02649202987793833,0.008970086618862115
1783246366654066400,6.49206640625,-0.02557049458622932,0.03412179410401731,0.005632338764588348
1783246366664078600,6.50207861328125,-0.014199205744266509,0.026221103982068596,0.002974960690177977
1783246366674089500,6.51208935546875,-0.025270634856820105,-0.011396204087510704,0.017059207418421284
1783246366684101400,6.522101318359375,-0.02018529441654682,-0.012677950993739067,0.02285919893407263
1783246366694113500,6.532113525390625,-0.02048281605839729,0.03395717812683433,0.007495127828628756
1783246366704124400,6.54212451171875,-0.021380641680955884,-0.016466931480541826,-0.0075663801336660974
1783246366714136300,6.55213623046875,-0.017639117065072058,-0.017674517172016204,0.006451514226943254
1783246366724147200,6.562147216796875,-0.01210252572596073,0.024378435257449746,0.013225995064247398
1783246366734159400,6.572159423828125,-0.022275544694066046,0.002167662895284593,0.010912199413252529
1783246366744171300,6.582171142578125,-0.005362988337874412,-0.018101327749341724,0.005652947727777064
1783246366754182400,6.592182373046875,-0.026610359027981756,0.01986994485706091,-0.004553704081871546
1783246366764194600,6.602194580078125,-0.028559155008196828,0.01381265411209315,0.0009105389736592769
1783246366774205400,6.612205322265625,-0.0052127662122249604,-0.01511990078575909,0.022685584516392555
1783246366784217300,6.62221728515625,-0.017483634242415426,-0.0017978066695854068,0.0001511354411020875
1783246366794229500,6.6322294921875,-0.01613631128668785,0.0013368015617132186,0.010177866389870177
1783246366804240400,6.642240478515625,-0.026608605462312696,-0.010094510371796787,0.0201812666954007
1783246366814252300,6.652252197265625,-0.01329378133714199,-0.0050809199934825295,0.016289930945821107
1783246366824263400,6.662263427734375,-0.02946048776209354,0.008064173587970435,-0.0028055269739823414
1783246366834275600,6.672275634765625,-0.020032149681448935,0.0014597338216379284,0.0035860760425566692
1783246366844286500,6.682286376953125,-0.021376550027728078,-0.007140811665356159,0.013533572309231384
1783246366854298400,6.69229833984375,-0.012847791135311126,0.016066095594689248,0.00375613537983736
1783246366864310500,6.702310546875,-0.018533435556292534,-0.002660780174471438,-0.0008986635894863865
1783246366874321400,6.7123212890625,-0.017934885141253472,-0.010285137573070823,0.011097919827257283
1783246366884333300,6.722333251953125,-0.00790975021123886,0.01262059478331357,0.009047302873805165
1783246366894344400,6.732344482421875,-0.020777999612689016,-0.010141747047007084,0.0014110678077442571
1783246366904356400,6.7423564453125,-0.017629180192947385,-0.014935264933854341,0.001671458609867841
1783246366914368500,6.752368408203125,-0.020320903494954107,-0.005855813356116414,-0.0008529087685979903
1783246366924379400,6.76237939453125,-0.012089666244387625,-0.000050451545603573316,0.003072368066490162
1783246366934391600,6.7723916015625,-0.016724340307712554,-0.011367233721353114,0.009919642428657971
1783246366944402400,6.78240234375,-0.04066811047494411,0.000349142231233418,0.00831836982803652
1783246366954414300,6.792414306640625,-0.036029344758391375,0.015473828789964318,0.004048747951129917
1783246366964426500,6.802426513671875,-0.014481529816985129,-0.020737229210883376,0.020816888584662227
1783246366974437400,6.812437255859375,-0.01613163511157036,-0.009257438493147491,0.003501181087945588
1783246366984449300,6.82244921875,-0.024360534274578093,0.017200506452098488,0.00008431043272139504
1783246366994460400,6.83246044921875,-0.013285598030686378,-0.007975107065029442,0.013366702726169024
1783246367004472600,6.84247265625,-0.001613280415534973,-0.004997589091584086,0.009868008139543234
1783246367014484500,6.852484375,-0.014182839131355285,-0.006644296852685511,0.0071447320719365956
1783246367024495400,6.862495361328125,-0.019265256962180136,0.01222944004125893,0.004756496644974686
1783246367034507500,6.872507568359375,-0.0182125330388546,-0.009595328678004443,-0.0016702530334703623
1783246367044518400,6.882518310546875,-0.021656536012887955,-0.008336049331910908,0.003890449833590537
1783246367054530300,6.8925302734375,-0.016872808867692945,0.002397416530549526,0.013242651654814835
1783246367064542500,6.90254248046875,-0.014626491245627402,-0.0027373890746384857,0.005526784614438656
1783246367074553600,6.9125537109375,-0.024050737673044203,0.0031835254069417715,0.012402390021947212
1783246367084565500,6.9225654296875,-0.02404956862926483,0.003144727766513824,0.012390859414357691
1783246367094576400,6.932576416015625,-0.02135726080536842,0.007516001653298735,0.02146473291796865
1783246367104588500,6.942588623046875,-0.010578677159547805,0.002617854348197579,0.020182367240521124
1783246367114599400,6.952599365234375,-0.0025000001221895216,0.0134349433735013,-0.0006089256785809993
1783246367124611300,6.962611328125,-0.011928922724723815,-0.0014713877268135547,0.0022395339715410956
1783246367134623500,6.97262353515625,-0.006249708044528961,-0.016336181240342557,-0.006357885693316348
1783246367144634400,6.98263427734375,-0.08315700663626194,-0.0682251027032733,-0.1395010717439931
1783246367154646300,6.992646240234375,0.027721535140275953,0.07535714654028415,0.09443950294991954
1783246367164657400,7.002657470703125,-0.052934302330017086,-0.013067607898451386,-0.004890066746633965
1783246367174669600,7.012669677734375,-0.013279752811789511,-0.0051362669099122285,-0.0029810068384744227
1783246367184681500,7.022681396484375,-0.008943769434094428,0.002876432219147682,0.012864299312117508
1783246367194692400,7.0326923828125,-0.030638883891701697,0.018971973104029892,0.01736182992707472
1783246367204704500,7.04270458984375,-0.0070031567603349686,0.002138108007237315,0.020475230973563154
1783246367214715400,7.05271533203125,-0.032440380355715746,0.010582586149685084,0.008189245289342943
1783246367224727300,7.062727294921875,-0.024065935242176054,-0.0163067724827677,-0.021356591801799368
1783246367234739500,7.072739501953125,-0.03229191179573536,0.02408522446453571,0.03775244450723985
1783246367244750600,7.08275048828125,-0.03334288215339184,-0.00495440753698349,-0.012889084410213398
1783246367254762500,7.092762451171875,-0.02316460248827934,0.006145407419838011,0.01656636870044749
1783246367264773400,7.1027734375,-0.018974165061116217,-0.009975669765099882,-0.00944902924222406
1783246367274785500,7.11278564453125,-0.015080080232024192,0.01713127714078873,0.023777272760216146
1783246367284796400,7.12279638671875,-0.0158335289478302,-0.01396273010727018,-0.011865867425873875
1783246367294808300,7.132808349609375,-0.023463293173909185,0.01273000997453928,0.020999741188145706
1783246367304820500,7.142820556640625,-0.01433598386645317,-0.017279124646261333,-0.011064652311895042
1783246367314831600,7.15283154296875,-0.024959084689617154,0.0257384350316599,0.01795519956020871
1783246367324843500,7.162843505859375,-0.02526128250658512,-0.008257175409421324,-0.011598747772153
1783246367334854400,7.1728544921875,-0.025558219626545906,0.015137144181504844,0.027041537536459506
1783246367344866600,7.182866455078125,-0.010000585010647774,-0.015689371236786244,-0.0027181204018765126
1783246367354878500,7.19287841796875,-0.017331658551096914,0.0048824748119339345,0.01538524404092459
1783246367364889300,7.202889404296875,-0.013441665375232696,-0.015247436155565081,-0.01894318540096283
1783246367374901500,7.212901611328125,-0.02601122409105301,0.03482000550124794,0.014697978729393798
1783246367384912400,7.222912353515625,-0.020626023921370504,-0.024634090518951414,-0.014592061536351683
1783246367394924300,7.23292431640625,-0.007158055061101913,0.0028438085911795495,0.01947703883262584
1783246367404936400,7.2429365234375,-0.023620529562234878,-0.0004916925070807337,-0.020094152384239714
1783246367414947600,7.252947509765625,-0.027808628901839254,0.008699147023260592,0.02765948220513528
1783246367424959500,7.26295947265625,-0.021676409757137298,-0.023211802630871532,-0.006118453197542112
1783246367434970400,7.272970458984375,-0.020925883650779725,0.014244688853807747,0.026953765638172623
1783246367444982500,7.282982421875,-0.02122398981451988,-0.0014461802203208207,-0.017644412011408712
1783246367454994400,7.292994384765625,-0.014933365237712859,0.010790675942413508,0.02923396726353094
1783246367465005300,7.30300537109375,-0.007297755792737007,-0.011274842730164528,-0.012436819731222931
1783246367475017500,7.313017578125,-0.03437631685435772,0.01817318740915507,0.010264738672436215
1783246367485028600,7.323028564453125,-0.022556699723005294,-0.019605850560776888,-0.0030264534153975546
1783246367495040500,7.33304052734375,-0.03288227890431881,0.0019160992870107293,0.031164250339521093
1783246367505052400,7.343052490234375,-0.007300093880295753,-0.007023907287418842,-0.002048187534348108
1783246367515063600,7.3530634765625,-0.03093991266489029,0.00781874745953828,0.024112902489327823
1783246367525075500,7.363075439453125,-0.019715923339128492,-0.010267090459726751,-0.010017022405506577
1783246367535086300,7.37308642578125,-0.010440145471692084,0.02220730176344514,0.028073353385785593
1783246367545098500,7.383098388671875,-0.020468203011155126,0.007784735592082142,-0.01131675249299733
1783246367555110700,7.393110595703125,-0.022410569250583646,0.014847550117783248,0.01422763040444115
1783246367565121500,7.40312158203125,-0.01912088005542755,-0.0010594824576750396,-0.00842417970651295
1783246367575133400,7.413133544921875,-0.02570610366463661,-0.0001657850209623575,0.020837433615769257
1783246367585144600,7.42314453125,-0.005505611678957939,-0.01867065206989646,-0.005899111358437221
1783246367595156700,7.43315673828125,-0.02525660633146763,0.012548442862555385,0.009603448052378371
1783246367605167600,7.443167724609375,-0.027503508475422857,0.004552767933532595,-0.007360724326618947
1783246367615179500,7.453179443359375,-0.019718845948576928,0.004141520251519978,0.01634265664690174
1783246367625191700,7.463191650390625,-0.02810205889046192,-0.014738829046301543,0.00713951932399068
1783246367635202600,7.47320263671875,-0.02420855858325958,0.016135653699561953,0.013036103081912732
1783246367645214500,7.48321435546875,-0.023158757269382477,-0.002154438087530434,0.0008466959402314387
1783246367655225600,7.4932255859375,-0.013883563923835754,-0.005266286497749388,0.011242408615152816
1783246367665237800,7.50323779296875,-0.003561491873860359,-0.0015773688519373536,-0.0029528675893787295
1783246367675249700,7.513249755859375,-0.016427987709641455,0.0167428988777101,0.0022475300483289174
1783246367685260500,7.523260498046875,-0.022861235627532003,-0.010350092568062245,0.009216686357650905
1783246367695272700,7.533272705078125,-0.004753332006931304,-0.002341046700812876,0.011244808351504616
1783246367705283600,7.54328369140625,-0.025854572224617,0.0026745164388790725,0.004859456979238894
1783246367715295500,7.55329541015625,-0.0291442614197731,-0.010260843382030725,0.011995606169209349
1783246367725307600,7.5633076171875,-0.02914250785410404,0.0012312222953885794,0.01298685939599527
1783246367735318800,7.57331884765625,-0.019116788402199745,0.006906783713772893,0.0037887590078054924
1783246367745330700,7.58333056640625,-0.022259178081154823,0.0012295417949557304,0.0009976007691817358
1783246367755341600,7.593341552734375,-0.020314473754167554,-0.005498414753191173,0.00779049632929964
1783246367765353700,7.603353759765625,-0.028245266753435132,-0.0022017478279769418,0.010187771295954008
1783246367775365600,7.61336572265625,-0.023609423646330834,0.0016067045442759989,0.002868481808132492
1783246367785376500,7.62337646484375,-0.02391103694140911,0.008848273170366882,0.010601416431029792
1783246367795388700,7.633388671875,-0.023466800305247306,0.0004272124361246824,0.012011596039496362
1783246367805399600,7.643399658203125,-0.029153029248118398,-0.0010562675872817634,0.0027598429350415244
1783246367815411500,7.653411376953125,-0.0299023863106966,-0.006115304542519152,-0.0057201951445546
1783246367825423600,7.663423583984375,-0.0299023863106966,-0.006114537357538938,-0.005676869742770214
1783246367835434800,7.673434814453125,-0.014338321954011916,0.014949403057061135,0.0018691274732816963
1783246367845446700,7.68344677734375,-0.016580547922849655,-0.003813530406169593,0.004266219776845537
1783246367855457500,7.69345751953125,-0.014634674552083015,-0.009521569322049617,0.005833060384902637
1783246367865469700,7.7034697265625,-0.018075754916667935,-0.006844093741104006,0.004540330860356334
1783246367875480600,7.71348046875,-0.006404606345295906,0.00813435274735093,0.013661909113347064
1783246367885492500,7.723492431640625,-0.0198725752055645,-0.000828523246012628,0.01857513525657123
1783246367895504600,7.733504638671875,-0.022716274198889733,-0.005158478741720318,0.014321843459957745
1783246367905515800,7.743515869140625,-0.01329027420580387,0.018952391620725394,0.005425315267650876
1783246367915527700,7.753527587890625,-0.01628361080288887,0.004594634313881397,0.0023659573797835034
1783246367925538600,7.76353857421875,-0.01808218465745449,0.004671864268556237,0.008484312395914457
1783246367935550700,7.77355078125,-0.02107201412320137,0.006694492669962346,0.007435079620906617
1783246367945562600,7.783562744140625,-0.008349310672283172,-0.00027709990832954645,0.002068540769210085
1783246367955573500,7.793573486328125,-0.022264438778162,0.004933766607753932,0.007216189872950781
1783246367965585700,7.803585693359375,-0.02136778219938278,-0.009414017294347286,0.0003038417847827077
1783246367975596500,7.813596435546875,-0.012835516175627708,-0.005301613539457321,0.014928109107282943
1783246367985608700,7.823608642578125,-0.03288987768888473,0.006736907039582729,0.003037173455522861
1783246367995620600,7.83362060546875,-0.030975568500161168,0.010099186546914279,0.00016344693340361116
1783246368005631700,7.8436318359375,-0.07932078947424888,0.006746990042179823,-0.02291413485854864
1783246368015643600,7.8536435546875,0.05175824428796768,-0.0030029812082648277,0.02641122200997779
1783246368025654500,7.863654541015625,0.013428805893659591,-0.0071721931843087075,0.01450049252907047
1783246368035666700,7.873666748046875,-0.09762275436222553,0.0058266603268682955,-0.028474157305597325
1783246368045678600,7.8836787109375,0.024622400081157684,-0.010435651959665119,0.02511165631926851
1783246368055689500,7.893689453125,-0.01221066227555275,0.006775704680010676,0.004391501540772151
1783246368065701400,7.903701416015625,-0.05486965430676937,0.0044387861650437115,-0.006042492751346435
1783246368075712800,7.913712646484375,0.009026187020540238,-0.008737762000598013,0.001822507286001928
1783246368085724700,7.923724609375,0.02205050376653671,0.0035627705154940483,0.014603320432594045
1783246368095736600,7.933736572265625,-0.03196691762506962,0.012044110069610177,0.007878553638665471
1783246368105747700,7.943747802734375,-0.02027297269999981,0.00243815039973706,0.01215755754855927
1783246368115759600,7.953759521484375,0.036028175714612004,-0.006114464292302727,0.02037145322196884
1783246368125770500,7.9637705078125,0.0058352820247411724,-0.009078903588466346,0.003266107390169054
1783246368135782700,7.97378271484375,-0.036652445092797276,-0.0032666005805134773,0.005745767977228388
1783246368145794600,7.983794677734375,-0.057898646739125245,0.005348777149431407,0.006634165901027154
