time,seconds_elapsed,z,y,x
1783246372600501800,0.069501708984375,-0.029274025279283522,-0.0052174423873424525,0.0012744449491845443
1783246372610513000,0.079512939453125,-0.022834932142496107,-0.019243921913206577,0.012389920982730108
1783246372620524800,0.08952490234375,-0.01700023463964462,0.010731566166318953,0.00248510394715704
1783246372630536000,0.099535888671875,-0.01834872663915157,0.014960070581547915,0.00046729328476358204
1783246372640547800,0.1095478515625,-0.02194119817316532,-0.018079079384915528,-0.002640130112087354
1783246372650560000,0.11956005859375,-0.027628011637926102,0.005274798597767949,0.01548001421886729
1783246372660571000,0.12957080078125,-0.015509703820943832,0.008911328469216823,0.021369464983104262
1783246372670582800,0.139582763671875,-0.03615793957412243,0.006322992476448417,-0.012196681699261535
1783246372680594000,0.149593994140625,-0.014613047242164612,-0.003773307993635535,0.004374242162005976
1783246372690605800,0.159605712890625,-0.03032674920260906,0.009738682671450078,0.009314255847455934
1783246372700617700,0.16961767578125,-0.025835283002257344,-0.01365110687483102,0.005468403207417577
1783246372710628900,0.17962890625,-0.023292028260231017,-0.016479608299024402,-0.008881974510569124
1783246372720641000,0.18964111328125,-0.02059972043633461,0.00868961200993508,0.0009037758727325126
1783246372730652000,0.19965185546875,-0.009078209468722342,-0.000273154385574162,0.015121031013631726
1783246372740663800,0.209663818359375,-0.021646599140763282,-0.02184310809355229,0.004392159127898049
1783246372750676000,0.219676025390625,-0.014912906971573828,-0.004347966076433658,-0.004337759776250459
1783246372760686800,0.229686767578125,-0.0011427402943372726,0.009934570569731295,0.009872506218147463
1783246372770698800,0.23969873046875,-0.0053320086777210235,-0.010580138464272021,0.0050252579832216725
1783246372780710000,0.2497099609375,-0.02059972043633461,-0.008796762178838253,-0.0107408797006472
1783246372790721800,0.2597216796875,-0.02179740578830242,0.010674063825421035,-0.007428926158044487
1783246372800733000,0.26973291015625,-0.007731471034884452,0.005887158342450857,0.004852919923886656
1783246372810744800,0.279744873046875,-0.01656067417860031,-0.012957936978898943,0.01089254943128908
1783246372820757000,0.289757080078125,-0.02239829429090023,0.008480791564844548,0.006083158121875021
1783246372830767900,0.299767822265625,-0.013120762857794762,-0.0027361469656229016,0.0006835732338135131
1783246372840779800,0.30977978515625,-0.01387070444226265,-0.005694704510271549,0.016069856171065475
1783246372850791000,0.319791015625,-0.011923662027716636,0.0009975231373682617,0.010823123757157008
1783246372860802800,0.329802734375,-0.014467501291632651,0.004602708022482693,-0.010046166301600169
1783246372870814700,0.339814697265625,-0.017907412612438202,-0.008755188059434295,0.0007827455922379158
1783246372880825900,0.349825927734375,-0.023444588473439214,-0.0048596784582361574,0.008601177957945037
1783246372890838000,0.359838134765625,-0.019704232901334762,-0.0024412191396579147,0.00953768933978863
1783246372900849000,0.369848876953125,-0.021050386813282966,-0.001556727922707796,0.005141657754371408
1783246372910860800,0.37986083984375,-0.0451432100623846,0.01837375148255378,-0.006885692976682912
1783246372920873000,0.389873046875,-0.019704817423224448,-0.013200111704319714,-0.014483826805348507
1783246372930883800,0.3998837890625,-0.015067805272340773,-0.008194996893405913,0.008877487848408054
1783246372940895700,0.409895751953125,-0.006691022071242332,0.016705489476770162,0.014673278112977277
1783246372950907000,0.419906982421875,-0.039758009892702104,-0.01448923819940537,-0.017692605384555644
1783246372960918800,0.429918701171875,-0.02359481059908867,-0.012459266741760074,0.013841113021597266
1783246372970930700,0.4399306640625,-0.01551321095228195,0.017898389055766163,0.00959197452700464
1783246372980941800,0.44994189453125,-0.01326981593966484,0.0070042892714962356,-0.002384070708497893
1783246372990954000,0.4599541015625,-0.01581248615980148,-0.016673267707601188,-0.008011644249712117
1783246373000964900,0.46996484375,-0.02643675602674484,0.0015926760189235209,0.0014358666055719368
1783246373010976800,0.479976806640625,-0.014913491493463516,-0.006805332633294164,0.010656443687051069
1783246373020989000,0.489989013671875,-0.013266893330216406,-0.018795374428108334,-0.008361752312036697
1783246373030999800,0.499999755859375,-0.029576223096251485,-0.006254018893465399,-0.00282064919458935
1783246373041011700,0.51001171875,-0.021647183662652968,0.015634754972718656,0.009620606966444756
1783246373051022800,0.52002294921875,-0.016705635607242583,0.0032796061925590035,0.021558347751863764
1783246373061035000,0.530034912109375,-0.030319150418043134,-0.020752828638814388,-0.0024246995464083736
1783246373071047000,0.540046875,-0.039297991165518756,0.017705058440752326,-0.009467854956991505
1783246373081057800,0.550057861328125,-0.0027840777605772017,0.0005915361523628235,0.01909622510478366
1783246373091070000,0.560070068359375,-0.013106734332442282,-0.00888476925585419,0.019016038291330913
1783246373101080800,0.570080810546875,-0.025980828952789307,0.00979344506599009,-0.0011362877206644042
1783246373111092700,0.5800927734375,-0.02284136188328266,0.012402056661807,-0.005991333386267069
1783246373121105000,0.59010498046875,-0.022540917631983754,-0.016783596214279533,0.027939687386003786
1783246373131116000,0.600115966796875,-0.012515782701969146,0.010162680237181485,0.008915139277942944
1783246373141128000,0.6101279296875,-0.018801731103658674,0.010488295462355017,-0.025029124568391126
1783246373151138800,0.620138916015625,-0.008172200539708137,-0.0011739026175811886,-0.0019740468691918068
1783246373161151000,0.63015087890625,-0.008165770798921584,-0.029762831709533928,0.024931972920405675
1783246373171163000,0.640162841796875,-0.009061842855811119,0.020778401471488177,0.02866643760784063
1783246373181173800,0.650173828125,-0.03045826662778854,-0.0011222454955801366,-0.023774939239234662
1783246373191186000,0.66018603515625,-0.008314239358901977,-0.0188721294587478,-0.0014373096439871005
1783246373201196800,0.67019677734375,-0.01878711805641651,-0.0015388634724542497,0.037185515356459656
1783246373211208700,0.680208740234375,-0.02447217795550823,0.014738792513683437,0.004291788042942062
1783246373221220900,0.690220947265625,-0.04033376395404339,-0.022363624836318194,-0.021587950588972307
1783246373231232000,0.70023193359375,-0.012203063490986822,0.0004071194961667061,0.006312046390748583
1783246373241244000,0.710243896484375,-0.03270575329363346,0.01036477868054062,0.025027976074209434
1783246373251254800,0.7202548828125,-0.012353285616636275,-0.009584478490427135,-0.007374572472169529
1783246373261267000,0.730266845703125,-0.025967384949326513,-0.015488441837206482,-0.020236353316926397
1783246373271278800,0.74027880859375,-0.01773965483009815,0.023925796119123696,0.014290130864153615
1783246373281289700,0.750289794921875,-0.01803951455950737,0.0013433409003540872,0.025117834898305588
1783246373291302000,0.760302001953125,-0.0157943659812212,-0.021711700266227124,-0.020731744751590304
1783246373301313000,0.77031298828125,-0.020433716219663618,0.00297525295112282,-0.016201590508664956
1783246373311325000,0.780324951171875,-0.009808861830830573,-0.004217873423360288,0.015025975424610077
1783246373321337000,0.790337158203125,-0.010107552516460418,-0.02022511497028172,0.020948634338704867
1783246373331348000,0.800347900390625,-0.028667291557788847,0.011909523904509842,-0.0024185346671030854
1783246373341359900,0.81035986328125,-0.02866846060156822,-0.006163710261508822,-0.0010848223949084057
1783246373351370800,0.820370849609375,-0.017294249150156975,-0.0059121831858530635,0.01197572329180548
1783246373361383000,0.8303828125,-0.009662146836519241,0.002154328489676118,0.023776740753964985
1783246373371394800,0.840394775390625,-0.023429390904307363,0.011593407160043716,-0.000985506189300213
1783246373381406000,0.850406005859375,-0.012206570622324943,-0.010407814104668796,-0.0025968914752709676
1783246373391417900,0.86041796875,-0.018640987583994864,-0.00037635903172194955,0.014673711937817278
1783246373401429000,0.870428955078125,-0.023281506866216658,0.010730104861594736,0.011872347399010323
1783246373411441000,0.88044091796875,-0.008466215050220488,-0.007110891451127826,-0.008297580485045909
1783246373421452800,0.890452880859375,-0.011460720691084862,-0.004380114780366421,0.003291563775122631
1783246373431464000,0.9004638671875,-0.02791851901710033,0.0032012437267228957,0.010952006267255638
1783246373441475800,0.910475830078125,-0.01310205815732479,-0.0037453240081667897,0.010571242771763354
1783246373451486700,0.92048681640625,-0.016245032358169556,-0.012094561615213752,-0.00535053528167773
1783246373461499000,0.930498779296875,-0.028963059633970258,0.0025383228385820983,-0.0026663468321552496
1783246373471510800,0.9405107421875,-0.022828502401709555,4.018587991595268e-7,0.012454147608648054
1783246373481522000,0.95052197265625,-0.01025777464210987,-0.0012250848155468703,0.002312334346270654
1783246373491533800,0.960533935546875,-0.02267886479794979,-0.0002886807482689619,0.005285187561041675
1783246373501545000,0.970544921875,-0.013700024050474166,0.004631532258167863,0.0009383996615419163
1783246373511556900,0.980556884765625,-0.002328150686621666,-0.0035862975215539333,0.014677029556198977
1783246373521568800,0.99056884765625,-0.025218612408638,0.012168868960440157,0.01857132444784511
1783246373531580000,1.000579833984375,-0.03494681021869182,0.014013802707381546,0.007046532394469249
1783246373541591800,1.010591796875,-0.0199812962770462,0.004686294652707874,0.010524640850792638
1783246373551603200,1.020603271484375,-0.01399345403909683,-0.010181165741942822,0.020892479138099586
1783246373561615000,1.030614990234375,-0.021328034710884094,0.013970986478962003,0.013573468211491125
1783246373571627000,1.040626953125,-0.027613983112573622,0.009961129783093929,-0.00816776182660833
1783246373581638100,1.05063818359375,-0.027014848175644875,-0.00008044482506811618,0.01410564570929855
1783246373591650000,1.060650146484375,-0.020727146208286286,0.0032894699994474646,0.011574693326419219
1783246373601661000,1.070660888671875,-0.013241174367070197,0.0019813830755650995,-0.01044554316601716
1783246373611672800,1.0806728515625,-0.023562661895155906,-0.006028393444046378,-0.005770617007405963
1783246373621685000,1.09068505859375,-0.022363222977519033,-0.0016019918365404008,0.004648956033715512
1783246373631696000,1.10069580078125,-0.032687633115053176,0.006454838695190847,0.007204086159914732
1783246373641707800,1.110707763671875,-0.03388181133568287,-0.012769428669475018,0.004152228875202127
1783246373651719200,1.12071923828125,-0.021162030494213103,-0.011593991681933402,-0.010670823838852811
1783246373661731000,1.13073095703125,-0.022807459613680837,-0.005316555380262434,0.00043484547002008183
1783246373671743000,1.140742919921875,-0.010686229187250137,0.005148541869595647,0.012858353628520853
1783246373681754000,1.150754150390625,-0.010984335350990295,-0.008804397496022284,-0.0012119741722242906
1783246373691766000,1.16076611328125,-0.02146422831118107,0.000002776478976011276,-0.002319700235396158
1783246373701777000,1.17077685546875,-0.0349304436057806,-0.003469539274089038,0.008382537088450043
1783246373711788800,1.180788818359375,-0.019666238978505134,-0.013835048606991767,0.007422366269805934
1783246373721801000,1.190801025390625,-0.010688567274808883,-0.004699738656170666,-0.0022393216256983576
1783246373731812000,1.20081201171875,-0.017122399714589117,0.0005320610500872135,0.00557857416718034
1783246373741824000,1.210823974609375,-0.02804360670149326,0.00002418459318578243,0.006801224997045938
1783246373751835100,1.220835205078125,-0.008738602250814437,0.0014764292281121015,0.0007148885373957454
1783246373761847000,1.230846923828125,-0.029242461097240446,-0.005173091788962483,-0.0024832339337677693
1783246373771859000,1.24085888671875,-0.009935703080892562,-0.009747523565031587,-0.007860186864912974
1783246373781869800,1.250869873046875,-0.02145195335149765,-0.009752638131566346,0.013225061199197079
1783246373791882000,1.260882080078125,-0.016810849547386167,0.006947225322015583,0.010180864347843453
1783246373801893000,1.27089306640625,-0.011874562188982963,-0.01186495411042124,-0.0052535411806078625
1783246373811905000,1.280905029296875,-0.014414894321560859,-0.017337613367848097,0.009449358035787008
1783246373821917200,1.290917236328125,-0.021447277176380158,0.002110050956532359,0.012183258245396428
1783246373831928000,1.300927978515625,-0.026385902622342108,0.003312558614090085,0.01079432920422405
1783246373841940000,1.31093994140625,-0.026085458371043205,0.0007453019419685006,0.004972041375085246
1783246373851950800,1.320950927734375,-0.006185410636663437,-0.010130129674449562,-0.005416188962990418
1783246373861963000,1.330962890625,-0.022648469659686088,0.004752857082895934,0.013835057740146293
1783246373871975000,1.340974853515625,-0.02937690113186836,-0.015427615028060972,0.005366230607731268
1783246373881985800,1.35098583984375,-0.023094459861516953,0.005579845958948135,0.010676872270437888
1783246373891998000,1.360998046875,-0.023242928421497343,-0.003591046761907637,-0.004651903759338893
1783246373902009000,1.371009033203125,-0.021447277176380158,0.0007582344887778163,-0.00735916255719494
1783246373912021000,1.38102099609375,-0.017407646396756172,-0.008660349382832645,-0.012002686647255904
1783246373922033200,1.391033203125,-0.01695931810736656,0.008721249257214366,0.0030008417668170293
1783246373932044000,1.4010439453125,-0.014265841239690779,-0.00011189940925687551,0.01053279447449604
1783246373942056000,1.411055908203125,-0.03147416567206383,-0.008335501342639327,-0.0018687256144825368
1783246373952066800,1.42106689453125,-0.03386895185410976,-0.009529643030650913,-0.008491431689867749
1783246373962079000,1.431078857421875,-0.014863807132840155,-0.0011797478364780544,0.006893748418975156
1783246373972091000,1.4410908203125,-0.01965513306260109,-0.009936251070164144,0.0011590543916099704
1783246373982102000,1.45110205078125,-0.017860650861263275,-0.0010788082126528024,0.017329297630651854
1783246373992114200,1.4611142578125,-0.024146014741063117,0.003426759578287601,0.01857378811627859
1783246374002125000,1.471125,-0.01666004289984703,-0.004754427985474467,0.006308735622232779
1783246374012137000,1.481136962890625,-0.021147417446970938,-0.005696750336885452,0.012335288735642097
1783246374022149000,1.491149169921875,-0.019803017100691794,0.004546155529655516,0.0013935595505172385
1783246374032160000,1.501159912109375,-0.018009703943133355,0.0048954073587432504,-0.015695858059788587
1783246374042172000,1.511171875,-0.01306932493150234,0.003035897097177803,-0.0007515033538918941
1783246374052183000,1.52118310546875,-0.023391981503367423,-0.011976378595642745,0.014797890873334836
1783246374062195000,1.53119482421875,-0.011868716970086096,-0.019044161557406188,0.013711972499883268
1783246374072206800,1.541206787109375,-0.02743102776110172,-0.006034640521742403,0.009802306509169283
1783246374082218000,1.551218017578125,-0.013963643422722816,-0.0028841771341860294,0.0012437849494395777
1783246374092230100,1.561230224609375,-0.022344518277049065,0.005532755414210259,-0.007182237370999064
1783246374102241000,1.571240966796875,-0.017706337082386017,0.0014945494066923857,0.0011864173225709237
1783246374112253000,1.5812529296875,-0.020246669214963913,0.0002113411957398057,0.0013236338361748493
1783246374122265000,1.59126513671875,-0.026080197674036024,-0.0017927286356687546,-0.013370613999594933
1783246374132276000,1.60127587890625,-0.017703998994827268,0.002927029895223677,0.014276148004573769
1783246374142288000,1.611287841796875,-0.037756606942415234,0.004016651762835681,0.013678689001500606
1783246374152299000,1.621299072265625,-0.012018354573845863,-0.009026040890067815,-0.006092706834932324
1783246374162311200,1.631311279296875,-0.016659458377957344,-0.007028400799445808,0.006308322346990462
1783246374172323000,1.641322998046875,-0.01860416270494461,0.0021006986062973737,0.003944588890334126
1783246374182334000,1.651333984375,-0.018752631264925,0.00176569449827075,0.010249184910277835
1783246374192346000,1.66134619140625,-0.029230186137557027,-0.007891958826221524,-0.00023371285775210707
1783246374202357000,1.67135693359375,-0.015014613780379294,-0.004597849184274673,0.0035093666776898316
1783246374212369000,1.681368896484375,-0.023693010276556015,0.0058662982175126666,0.001992641971807461
1783246374222380800,1.691380859375,-0.013367431095242499,0.010478870046883821,0.0034560176388127727
1783246374232392200,1.70139208984375,-0.016209376522898673,0.0019315525844693182,0.0003512839559698477
1783246374242404000,1.711404052734375,-0.013964227944612502,-0.014556019825302063,0.006742925788415595
1783246374252415000,1.7214150390625,-0.019203297641873358,0.004346979695744812,0.005143578000110574
1783246374262427100,1.73142724609375,-0.02938040826320648,-0.006521876049414277,0.004692000590998213
1783246374272439000,1.74143896484375,-0.022496493968367576,-0.0014600991478189826,0.003321794516604859
1783246374282450000,1.751449951171875,-0.025037995144724844,0.00042728550136089324,0.013736648000124842
1783246374292462000,1.761462158203125,-0.015911854881048203,-0.012102891052141785,-0.0008389852745225653
1783246374302473000,1.771472900390625,-0.01022679498195648,-0.007148008591122925,-0.0001706529923249036
1783246374312484900,1.78148486328125,-0.009037292936444282,0.0014257950194180012,0.004532341633434407
1783246374322496800,1.791496826171875,-0.006498129847645759,-0.002648468682169914,0.011029263621394057
1783246374332508200,1.801508056640625,-0.022957097217440603,-0.006860095027834177,0.012542136419354937
1783246374342520000,1.81152001953125,-0.013681319350004195,0.0002193418391048908,-0.006261341400106903
1783246374352531000,1.821531005859375,-0.02116436858177185,0.009678330786339938,0.002417790315009188
1783246374362543000,1.831543212890625,-0.008145312532782554,0.00007719342205673456,0.0070333075867150905
1783246374372555000,1.841554931640625,-0.015327332991361617,0.005899689030461013,0.007608212264685425
1783246374382566000,1.85156591796875,-0.024008067575097082,-0.004226750849559903,0.01166372788331937
1783246374392577800,1.861577880859375,-0.014881342789530754,-0.006435220679268241,0.018407459672621918
1783246374402589200,1.871589111328125,-0.022961773392558095,-0.008986622195132077,0.00175662299253745
1783246374412601000,1.88160107421875,-0.017275544449687003,0.002680763516575098,0.006697648174851201
1783246374422613000,1.891613037109375,-0.017425766575336454,-0.003435198613069951,0.0037299209430580954
1783246374432624000,1.9016240234375,-0.013234744626283644,0.00596690904777497,0.012132770167174749
1783246374442636000,1.911635986328125,-0.02864507972598076,-0.0027760040519759057,0.0020413422350306063
1783246374452647000,1.92164697265625,-0.021163199537992478,0.009333097545243798,0.005146601074258797
1783246374462658800,1.931658935546875,-0.01936754829287529,-0.0036724049024283883,0.009221127354039344
1783246374472671000,1.9416708984375,-0.011735445979237556,-0.0010031126279383897,0.004649520006007515
1783246374482682000,1.95168212890625,-0.006050386080145836,0.005160743764042854,-0.001104623073921539
1783246374492694000,1.961694091796875,-0.012485387563705444,-0.0008236278751865029,0.0016563112730858846
1783246374502705200,1.971705078125,-0.03029576954245567,-0.009421031557023524,0.008338163657183758
1783246374512717000,1.981717041015625,-0.01862462097108364,-0.002662935598939657,0.016553162159002384
1783246374522729000,1.99172900390625,-0.01159106907248497,0.008382116963341832,0.008434513870859518
1783246374532739800,2.00173974609375,-0.010243161594867706,-0.006310680984146892,0.010230706255382391
1783246374542752000,2.011751953125,-0.023858429971337317,-0.000667670128494501,0.006150181776366662
1783246374552763000,2.021762939453125,-0.025054946279525755,-0.012066358434036374,0.004110369344719219
1783246374562774800,2.03177490234375,-0.016674071425199506,-0.012386091907694935,0.008598999700590502
1783246374572787000,2.041786865234375,-0.00949614261984825,0.00028922873754054306,0.005356659061787649
1783246374582798000,2.051798095703125,-0.005607903009653091,-0.001756122952327132,0.0005121165238902904
1783246374592810000,2.06181005859375,-0.03329027518332004,-0.0007115092702209949,0.006204877955536358
1783246374602821000,2.071821044921875,-0.022366145586967468,0.00613338818848133,-0.010538100837275851
1783246374612833000,2.0818330078125,-0.012639116820693016,-0.00345773923844099,0.0168032187967794
1783246374622845000,2.091844970703125,-0.027002573215961456,-0.0069443027125671505,0.0013895980447414331
1783246374632855800,2.101855712890625,-0.03298457023501396,-0.004192264058068394,-0.005389173091901466
1783246374642868000,2.111867919921875,-0.027298341292142866,0.005830386653915047,-0.00511042008260265
1783246374652879000,2.121879150390625,-0.010838789400458335,-0.0020897022882476446,0.005131485703517682
1783246374662891000,2.13189111328125,-0.026547815185785292,-0.0008216551138088107,-0.0024983538710861464
1783246374672903200,2.141903076171875,-0.018467969104647635,-0.0015465718548744916,0.007523184879333711
1783246374682914000,2.1519140625,-0.00874327842593193,-0.0022530030911788344,-0.0005171100761275739
1783246374692926000,2.161926025390625,-0.022213000851869582,0.0011026274796575306,-0.009523738446249626
1783246374702936800,2.171936767578125,-0.031190672555565832,0.0007845014411956071,0.009609014710062183
1783246374712949000,2.181948974609375,-0.015628946286439894,-0.0038313948564231396,0.009784727469994686
1783246374722961000,2.1919609375,-0.032388357907533645,-0.01161901652533561,0.004629977338609751
1783246374732972000,2.201971923828125,-0.013383797708153724,-0.006098170744627714,0.010757725804171059
1783246374742984000,2.21198388671875,-0.01802197890281677,-0.0010327405812218784,0.00019134415390435606
1783246374752995000,2.2219951171875,-0.01607493648827076,-0.0033256372913718223,0.0017249423627741633
1783246374763007000,2.232007080078125,-0.026249124500155447,-0.005897570138610899,0.0088057720357785
1783246374773019100,2.24201904296875,-0.0281944133490324,0.0017373451866209506,0.004578742625005543
1783246374783030000,2.252030029296875,-0.021308745488524437,-0.010596578142419457,0.014020775870862416
1783246374793042000,2.2620419921875,-0.02774257792830467,0.008251732049323618,0.012561071731976698
1783246374803052800,2.272052734375,-0.017273790884017943,-0.0016382687263190746,0.0057748799072811375
1783246374813065000,2.28206494140625,-0.028799393504858016,-0.0012529957357794047,0.010664346149004996
1783246374823076900,2.292076904296875,-0.015479893204569816,-0.009233144302107393,0.0029771526472643015
1783246374833088000,2.302087890625,-0.017275544449687003,-0.006679295100830495,-0.012751365573110523
1783246374843100200,2.31210009765625,-0.012784662771224975,-0.002234773314744234,-0.0010782328239176422
1783246374853111000,2.322111083984375,-0.026251462587714193,0.0002810819637030363,-0.002455998866970185
1783246374863123000,2.332123046875,-0.029992402681708333,0.0038716538015753027,0.017874537822720592
1783246374873135000,2.342135009765625,-0.025799627166986465,-0.002490684304572642,-0.0007726603063521907
1783246374883146000,2.35214599609375,-0.021009470281004906,-0.005082162102498114,0.002247105356643442
1783246374893158000,2.362157958984375,-0.02429974399805069,0.008639196996949613,0.005030201303109061
1783246374903169000,2.3721689453125,-0.034624738657474514,-0.005124320743791759,0.013128779484180267
1783246374913181200,2.38218115234375,-0.030735330003499983,0.0004493877353146672,0.001016485849453602
1783246374923193000,2.392193115234375,-0.025198738664388654,-0.013475129253417253,0.003295513864455279
1783246374933204000,2.402203857421875,-0.010682137534022331,-0.004695537405088544,-0.00602129469969077
1783246374943216000,2.412216064453125,-0.016066753181815146,0.0018350699400529265,-0.0030214141973876393
1783246374953227000,2.42222705078125,-0.008585457515716552,-0.0011429229574277996,0.0056717414765036665
1783246374963239000,2.432239013671875,-0.021153262665867804,0.000014539982005953788,0.004637503057939466
1783246374973251000,2.4422509765625,-0.019954992792010306,0.0065676879525184625,0.002208711858303286
1783246374983262000,2.452261962890625,-0.01830664106309414,0.008749927362427115,0.0006277673763688653
1783246374993273900,2.46227392578125,-0.01830664106309414,-0.004129939411580562,0.00838731829484459
1783246375003285000,2.472284912109375,-0.009327800315618515,-0.011333915973640977,0.0060722325857728715
1783246375013297200,2.482297119140625,-0.01980360162258148,0.0060546238638460636,-0.00042821708312258124
1783246375023309000,2.49230908203125,-0.028036592438817023,-0.002998231967911124,0.0014921816363814286
1783246375033320000,2.50231982421875,-0.021153262665867804,-0.013770824264362453,0.00391200407827273
1783246375043332000,2.51233203125,-0.02429799043238163,0.002287343752197921,0.008395394286734517
1783246375053343000,2.522343017578125,-0.023698855495452878,-0.0013160145020112396,0.005284883883653674
1783246375063355000,2.53235498046875,-0.014720014747977257,-0.0016385609872639178,0.006126700436079408
1783246375073366800,2.54236669921875,-0.028935002583265302,-0.003907565365172922,0.003058949179202318
1783246375083378200,2.552378173828125,-0.022201894935965538,0.006725472330115735,0.008554014347970951
1783246375093390000,2.56239013671875,-0.020853402936458588,0.0031050898758694526,0.003842110329971183
1783246375103401000,2.57240087890625,-0.030879706910252568,-0.011543174810148774,-0.005879064084251877
1783246375113413000,2.5824130859375,-0.011877484798431396,-0.010314509798027574,0.0032878899637144056
1783246375123425000,2.592425048828125,-0.01711538545191288,-0.0026697306659072637,0.012041593885538167
1783246375133436000,2.602435791015625,-0.0073918638169765466,0.003983662808686494,0.013369454088970086
1783246375143447800,2.61244775390625,-0.018311901760101317,-0.009870236629247665,0.006329607163614128
1783246375153459200,2.622459228515625,-0.009331891968846321,-0.005577763599716127,-0.0020381707471213303
1783246375163471000,2.63247119140625,-0.018460954841971397,-0.0030127354172989726,0.0017983500922797247
1783246375173483000,2.64248291015625,-0.01637070456445217,-0.013971680598706007,0.005246542900952045
1783246375183494100,2.652494140625,-0.015175941821932791,-0.0025440219270065423,-0.0016594005626044234
1783246375193506000,2.662506103515625,-0.02550210552513599,-0.002076477480493486,-0.002765473524807021
1783246375203517000,2.672516845703125,-0.028645664247870444,0.014403861470893025,-0.004052581592742353
1783246375213529000,2.682529052734375,-0.018767244312167166,-0.006746588183380663,0.0023584111108561046
1783246375223540000,2.6925400390625,-0.010986088916659354,-0.0028585312362760305,-0.012670747218106408
1783246375233552000,2.7025517578125,-0.012330489262938499,-0.007844502955302595,-0.0052920031776069664
1783246375243563800,2.712563720703125,-0.008588964647054671,-0.003670139880105853,0.00807788016962586
1783246375253575200,2.7225751953125,-0.02101005480289459,-0.0016914236856624483,-0.0025838287810096517
1783246375263587000,2.732587158203125,-0.02085983267724514,-0.012642733549885451,0.005752204567880835
1783246375273598000,2.742597900390625,-0.010832359659671782,-0.0022101503301411867,-0.0009359702424379065
1783246375283610000,2.752610107421875,-0.021602759999036786,0.00011054770238697528,0.005675346789252944
1783246375293622000,2.7626220703125,-0.018009703943133355,-0.005932531854137778,0.005322717976279091
1783246375303633000,2.7726328125,-0.034767361998558045,-0.008670761178992688,-0.0025557671637274322
1783246375313644800,2.782644775390625,-0.03162438779771328,0.007321319331414997,0.0015881436909898183
1783246375323657000,2.792656982421875,-0.013669044390320777,0.009455554881133138,0.00886802133374149
1783246375333668000,2.802668212890625,0.0002495908468961716,-0.010070289245992898,-0.004385528457711916
1783246375343680000,2.812679931640625,-0.02743161228299141,0.0011133315367624164,-0.013219074416405055
1783246375353691100,2.822691162109375,-0.01860240913927555,0.006028356911428273,-0.006503121116594411
1783246375363703000,2.832703125,-0.01680383528470993,0.005202354416064918,0.004355194968241266
1783246375373714000,2.8427138671875,-0.01441138719022274,-0.0010367591692134737,0.001388499782909639
1783246375383725800,2.852725830078125,-0.019796002838015556,0.001443184545636177,-0.004185174446867313
1783246375393738000,2.862738037109375,-0.01874620152413845,0.004074336766824126,0.0003794483212404884
1783246375403748900,2.872748779296875,-0.019195114335417745,0.0013817366819828748,-0.004120287950534839
1783246375413761000,2.882760986328125,-0.01530804376900196,-0.0058675037939101456,0.0006200133281759917
1783246375423772200,2.892772216796875,-0.043290860193967814,-0.006594722089916467,0.008119278475805186
1783246375433784000,2.9027841796875,-0.015609072542190551,-0.005690685922279954,0.0037984629844897426
1783246375443796000,2.9127958984375,-0.017703414472937582,0.0059714025598019355,0.006769258956203702
1783246375453806800,2.922806884765625,-0.01485796191394329,-0.002469239657744765,0.0007039310352527536
1783246375463819000,2.932819091796875,-0.004977203890681266,0.003850209154747426,0.006120971664902754
1783246375473830000,2.942829833984375,-0.016499883902072906,-0.0004613704340532422,-0.002710510200867429
1783246375483841800,2.952841796875,-0.018444003707170486,-0.015164872438646853,0.001921140788309276
1783246375493854000,2.96285400390625,-0.02263093400299549,-0.010442556624487042,0.009739022881456184
1783246375503865000,2.972864990234375,-0.01590016444325447,-0.00888126212451607,0.008531944080058019
1783246375513877000,2.982876953125,-0.013207272097468376,0.006711772598326206,0.006332849433470983
1783246375523888000,2.99288818359375,-0.018298457756638527,0.010533742039278149,-0.010436138300143647
1783246375533900000,3.002900146484375,-0.004086392530798912,-0.00045117783360183234,0.01235372400805354
1783246375543912000,3.012911865234375,-0.017105448579788206,-0.004028123004920781,-0.00876543317552423
1783246375553923000,3.022923095703125,-0.03925415202379227,0.00515639638248831,0.002901868054503575
1783246375563935000,3.03293505859375,-0.011570610806345938,0.005452091393433511,0.010404756781191099
1783246375573946000,3.042946044921875,-0.028328268861770627,-0.003573364974744618,0.00022911888102535157
1783246375583958300,3.052958251953125,-0.029376316609978675,-0.0034027211155742403,0.005049520208220928
1783246375593970200,3.06297021484375,-0.009774375039339065,0.0030338512705639004,-0.0012571147884707897
1783246375603981000,3.07298095703125,-0.02563479199409485,0.008841405038163065,-0.00034441125718876717
1783246375613993000,3.082992919921875,-0.028179800301790237,0.0004887698976323009,0.013530419087631161
1783246375624004000,3.093004150390625,-0.020994272711873055,-0.006320398660562932,0.008528071622538845
1783246375634016000,3.10301611328125,-0.01904547673165798,-0.0022102233953773974,0.0037541671850369308
1783246375644028000,3.11302783203125,-0.013509469914436339,0.000036021161451935764,-0.009145267372543458
1783246375654039000,3.1230390625,-0.024729952108860014,-0.0033154081583023068,-0.0035252971824724223
1783246375664051000,3.133051025390625,-0.02562719320952892,0.006991795116104186,0.0024529415434924886
1783246375674062000,3.14306201171875,-0.008266893085837364,0.003041559652984142,0.008162519395910202
1783246375684074000,3.153073974609375,-0.026073767933249472,0.0024380408018827436,0.008564309696410782
1783246375694086100,3.163086181640625,-0.021582886254787444,-0.0023908771919086574,0.007337889157014433
1783246375704097000,3.173096923828125,-0.023826281267404555,-0.001080561778321862,0.0073239907791139555
1783246375714109000,3.18310888671875,-0.030858079600334164,0.008773490901105106,0.011708085331565234
1783246375724120000,3.1931201171875,-0.02621931388378143,0.002943798366934061,0.0038292942308820782
1783246375734132000,3.203132080078125,-0.019034370815753935,-0.0025144305063411593,0.0013849835184169931
1783246375744144000,3.213143798828125,-0.020675123760104178,-0.010571041842363774,0.0018155752217164263
1783246375754155000,3.223155029296875,-0.02187105554640293,-0.009104147627577185,0.003622464813478291
1783246375764167200,3.233167236328125,-0.012743161717057227,-0.009565225800685584,0.008520929495699237
1783246375774178000,3.243177978515625,-0.02127192060947418,-0.004947027948126196,-0.0009684500232222489
1783246375784190000,3.25318994140625,-0.028605916759371755,-0.00400273283533752,-0.0027243994456133806
1783246375794202000,3.2632021484375,-0.025763971331715582,0.0030461992954835294,0.009527145112887955
1783246375804213000,3.273212890625,-0.0175327340811491,-0.00640281624700874,0.002694698427093681
1783246375814225000,3.283224853515625,-0.020526070678234098,0.0016935425775125622,0.0027830479974043556
1783246375824236000,3.293236083984375,-0.015734744748473167,0.011791560080647467,-0.002442260319273919
1783246375834248200,3.303248291015625,-0.027110125243663786,-0.008316833174787461,-0.003201538270956371
1783246375844260000,3.313260009765625,-0.0353442851036787,0.00211633456684649,-0.008247460016293916
1783246375854271000,3.32327099609375,-0.018438743010163305,0.009672558632679283,-0.007848443911480717
1783246375864283100,3.333283203125,-0.007214753684401512,-0.011915040329843758,-0.0030002435451955533
1783246375874294000,3.3432939453125,-0.007659574842453002,-0.0015275018282234667,0.006936471032560803
1783246375884306000,3.353305908203125,-0.0158902275711298,-0.007055179208517074,0.0009407651485642417
1783246375894318000,3.363318115234375,-0.0158902275711298,-0.009290354382060467,-0.0036572644155123267
1783246375904329000,3.373328857421875,-0.02037877116203308,0.007000124553032219,-0.004157439339859411
1783246375914340900,3.3833408203125,-0.034597266128659244,-0.006975538101047277,0.0009475647821091114
1783246375924352000,3.39335205078125,-0.017690554991364477,-0.0048334115058183665,-0.004714324303949252
1783246375934364200,3.4033642578125,-0.022477789267897605,0.0024781536165624854,-0.0046177115120808595
1783246375944376000,3.4133759765625,-0.026068507236242294,-0.00024162673614919184,0.001354049524036236
1783246375954387000,3.423386962890625,-0.014842179822921752,-0.00017641601283103226,-0.006385008878970984
1783246375964399000,3.433399169921875,-0.014393851533532141,0.015099479052238166,0.004372038788476493
1783246375974410000,3.443409912109375,-0.027265023544430732,-0.004140460805594921,-0.0010138144017546437
1783246375984422000,3.453421875,-0.017092004576325415,-0.010515073871426283,-0.007673786030896007
1783246375994434000,3.46343408203125,-0.025323826348781584,-0.003139174808561802,-0.004216578798706177
1783246376004445200,3.473445068359375,-0.03116027741730213,-0.003713102238997817,0.010152521886059548
1783246376014457000,3.48345703125,-0.013052373796701431,-0.009593976971134543,0.0020147647553589196
1783246376024468000,3.493468017578125,-0.018135376149415967,-0.00985164152663201,0.005444924150418955
1783246376034480000,3.503480224609375,-0.024717677149176595,-0.0012163900524377821,-0.0019181633799336848
1783246376044492000,3.513491943359375,-0.00720832394361496,-0.005588906048238277,-0.001862508219538722
1783246376054503000,3.5235029296875,-0.02217208431959152,-0.008580342949181795,-0.003067993285472039
1783246376064515000,3.53351513671875,-0.024718261671066284,0.006587525164149701,0.007260540471330751
1783246376074526000,3.54352587890625,-0.018885317733883855,0.0029209654806181787,0.0047239757649949745
1783246376084537900,3.553537841796875,-0.012302432212233544,-0.00842456786558032,-0.010128437757573555
1783246376094550000,3.563550048828125,-0.030406828701496122,-0.008615743056125938,0.005036416414764244
1783246376104561200,3.57356103515625,-0.010205167672038077,-0.007433657132089138,0.006229229228792246
1783246376114573000,3.583572998046875,-0.007660743886232376,-0.005809489996358752,0.005729584027407691
1783246376124584000,3.593583984375,-0.02322480824291706,-0.00007025222461670637,-0.0027785818848409687
1783246376134596000,3.60359619140625,-0.0182908589720726,-0.011937434824742375,0.0032929474480333735
1783246376144608000,3.61360791015625,-0.028016718694567677,-0.009858290463127195,0.0032844810137874444
1783246376154619000,3.623618896484375,-0.020084172129631043,-0.004358195209503174,-0.001084288105368614
1783246376164631000,3.633631103515625,-0.013950783941149712,-0.012551840396039187,0.001877103000471834
1783246376174642200,3.64364208984375,-0.021432664129137993,-0.006721380676887929,-0.0023722295736544764
1783246376184654000,3.653654052734375,-0.021582301732897758,-0.0004315598176792264,0.013918813333730212
1783246376194666200,3.663666259765625,-0.03669569971263408,-0.000436674384213984,0.0006737505261204205
1783246376204677000,3.673677001953125,-0.016342062991857528,0.0005484276629984378,-0.004861142046249006
1783246376214689000,3.68368896484375,-0.01948328362703323,0.0011182269075885414,0.004921850124385673
1783246376224700000,3.693699951171875,-0.013348141872882842,0.0021584932081401345,-0.013803936516097745
1783246376234712000,3.703712158203125,-0.03309913652539253,-0.01716839428078383,-0.0009183227046043611
1783246376244724000,3.713723876953125,-0.012147533911466597,-0.004364003895781934,0.004032901928026695
1783246376254735000,3.723735107421875,-0.01259703124463558,0.0011797478364780544,0.0014150430132518522
1783246376264747300,3.733747314453125,-0.0353401934504509,-0.005744315805658698,0.0006720038103172555
1783246376274758100,3.743758056640625,-0.02905366052687168,0.004828808395937085,0.01274788127465872
1783246376284770000,3.75377001953125,-0.013638649252057074,-0.005862243096902966,0.01568256475337548
1783246376294782000,3.763781982421875,-0.01992167504429817,-0.002756166840344667,0.0066481076614116315
1783246376304793000,3.77379296875,-0.01662964776158333,-0.0018599486529827117,0.004312410705862566
1783246376314805000,3.783804931640625,-0.023214286848902702,0.00549461536090821,0.0027258858665125444
1783246376324816000,3.79381591796875,-0.025009938094019888,-0.004986117849498987,0.0064661249908967875
1783246376334828000,3.803828125,-0.017076807007193565,0.0006393938820809126,-0.005403635442093946
1783246376344840000,3.81383984375,-0.024113281515240666,-0.000173018479347229,-0.0018193563476903362
1783246376354851000,3.82385107421875,-0.005555880561470985,-0.011007643161341547,-0.006388162100571207
1783246376364863000,3.833863037109375,-0.0282990427672863,-0.012551694265566765,-0.004306179611186962
1783246376374874000,3.8438740234375,-0.023660277050733564,-0.005682539148442447,0.012048128657601773
1783246376384886000,3.853885986328125,-0.02096913827061653,-0.00907090294510126,0.0056846763066016135
1783246376394898000,3.86389794921875,-0.02561024207472801,-0.0060091042216867206,-0.006050755972904153
1783246376404909000,3.873908935546875,-0.017228782698512076,0.0003964885042980313,0.0013623972272733226
1783246376414921000,3.8839208984375,-0.014684358912706374,-0.0038220425061881538,-0.007961149321624544
1783246376424932000,3.89393212890625,-0.013940262547135353,-0.003865735517442226,0.014884598759119398
1783246376434944300,3.9039443359375,-0.014991232904791832,-0.00872377000786364,0.006941690630372613
1783246376444956200,3.9139560546875,-0.019028525596857068,-0.0014591492997482417,-0.006936644562496803
1783246376454967000,3.923967041015625,-0.012894552886486053,0.003953267670422792,0.006023431857849936
1783246376464979000,3.93397900390625,-0.015889058527350425,0.011332491201534867,0.0051911754349246615
1783246376474990000,3.943989990234375,-0.025915362501144408,-0.00016527356430888176,0.009061765223997644
1783246376485002000,3.954001953125,-0.020381109249591828,-0.00385583517793566,0.00996939985451754
1783246376495014000,3.964013916015625,-0.012302432212233544,-0.0011196151470765471,-0.00709430564250797
1783246376505025000,3.97402490234375,-0.019185177463293075,-0.006524214136973023,-0.005967721898527816
1783246376515037200,3.984037109375,-0.02382569674551487,0.0032450463358312844,0.005566095994808711
1783246376525048000,3.994048095703125,-0.02262859591543674,-0.003630903848260641,0.004164955926034599
1783246376535060000,4.00406005859375,-0.02337912202179432,-0.004036781235411763,0.0006419899812550283
1783246376545072000,4.014072021484375,-0.02352759058177471,-0.007361432146094739,0.0015229192679398693
1783246376555082800,4.024082763671875,-0.03250467776358128,-0.0009429434059187769,0.0062593389559769995
1783246376565095000,4.034094970703125,-0.03160919022858143,0.0024041385322809217,0.011463209475693292
1783246376575105800,4.044105712890625,-0.02472936758697033,0.001147562599927187,0.004359327720664441
1783246376585117700,4.05411767578125,-0.007224690556526183,0.0010809636371210216,0.008389140359172598
1783246376595129900,4.0641298828125,-0.011265490379929542,-0.0030943858187645673,0.008663219476642552
1783246376605141000,4.07414111328125,-0.02293722347319126,0.0009402765247970819,0.005012553765275515
1783246376615153000,4.08415283203125,-0.021890929290652273,0.004402582340501248,0.0003703676823526621
1783246376625163800,4.094163818359375,-0.021292963397502897,-0.0011090937530621886,0.0006643022777629085
1783246376635176000,4.104176025390625,-0.026682839742302893,0.004641688326001167,-0.006648388505913317
1783246376645187800,4.114187744140625,-0.01291384210884571,-0.00034906916599720717,-0.006777362347557209
1783246376655198700,4.12419873046875,-0.016506898164749144,0.008525617087259888,0.013742506918753497
1783246376665211000,4.1342109375,-0.016059738919138908,0.001980798553675413,0.0029497942828806117
1783246376675222000,4.144221923828125,-0.0162082074791193,0.001201557809486985,0.0011316024123923852
1783246376685234000,4.15423388671875,-0.01530979733467102,0.0005817819433286786,-0.007295369756116997
1783246376695246000,4.16424609375,-0.017705168038606642,-0.0014844298714771866,-0.0020650245047174392
1783246376705257000,4.174257080078125,-0.02399111644029617,-0.003090038437210023,0.004824207569344435
1783246376715268900,4.184268798828125,-0.011118190863728523,-0.0066442237874493,0.0059800539404270235
1783246376725279700,4.19427978515625,-0.016204115825891492,0.0034823256904259322,-0.0028798229027655903
1783246376735292000,4.2042919921875,-0.024283377385139464,-0.010913096745684742,-0.0023093660710495896
1783246376745303800,4.2143037109375,-0.009170563927292824,-0.0065570934932678935,0.00047839463409036397
1783246376755315000,4.22431494140625,-0.02637538122832775,-0.0014051175575703382,-0.003684223204385489
1783246376765327000,4.2343271484375,-0.023830957442522047,0.006356310224160552,-0.002464001793623902
1783246376775338000,4.244337890625,-0.01605214013457298,-0.004518354207277297,-0.0020541492009651845
1783246376785350000,4.254349853515625,-0.018745032480359077,0.0008612930044531821,0.009608567185490392
1783246376795361800,4.26436181640625,-0.026826047605276106,-0.013202595922350882,0.010298366947402245
1783246376805373000,4.274373046875,-0.015602642801403999,0.0014584186473861336,-0.002863234810857102
1783246376815384800,4.284384765625,-0.011560673934221267,0.0036463936783373355,0.001440533647534903
1783246376825395700,4.294395751953125,-0.012904489758610724,0.005820888173207641,0.013869371001701802
1783246376835408000,4.304407958984375,-0.016198855128884315,0.0018419380722567438,-0.009548856904485727
1783246376845419800,4.314419677734375,-0.018146482065320015,0.0011434709466993807,0.0020188221592572515
1783246376855431000,4.324430908203125,-0.012010755789279936,0.005185878205299377,0.003105692664068192
1783246376865442800,4.33444287109375,-0.0175502697378397,-0.012115531338006257,0.014105839788832236
1783246376875454000,4.344453857421875,-0.0105178868830204,-0.004620389809645712,0.00030002869276795534
1783246376885465900,4.3544658203125,-0.01620294678211212,-0.00015003946255892514,0.01039922437283676
1783246376895476700,4.364476806640625,-0.01889700817167759,-0.002534121587499976,0.012383107649453448
1783246376905489000,4.374489013671875,-0.022042904981970785,0.004281403646245598,0.002510306887072511
1783246376915500800,4.384500732421875,-0.008576105165481566,-0.012310798181779681,0.003925406982540153
1783246376925512000,4.394511962890625,-0.019796587359905242,-0.014017492501810192,0.0028767952620401046
1783246376935524000,4.404524169921875,-0.023836802661418913,-0.007874898093566299,0.01264378157936735
1783246376945535000,4.414534912109375,-0.024582652592658995,0.0008941723607480526,-0.002803261951659806
1783246376955547000,4.424546875,-0.02099135010242462,-0.007035378529503941,0.010950679676560684
1783246376965558800,4.434558837890625,-0.008418868777155876,-0.010404306973330677,-0.008350899841170758
1783246376975570000,4.44456982421875,-0.009918167424201966,-0.004495630918815731,0.002119809732143767
1783246376985581800,4.454581787109375,-0.011565934631228446,-0.01178962385188788,0.002662392176245339
1783246376995593000,4.464593017578125,-0.022790508478879926,-0.008152326795458794,0.007287268648052122
1783246377005604900,4.47460498046875,-0.01815232728421688,-0.002001658678613603,-0.00023436131172347813
1783246377015616800,4.48461669921875,-0.03985153339505195,0.004171513530984521,0.0070909834575490095
1783246377025628000,4.4946279296875,-0.019649872365593908,0.015224237943068146,0.009191725446330384
1783246377035639800,4.504639892578125,-0.02264262444078922,0.0016154723726212977,0.0021373020063503645
1783246377045651000,4.51465087890625,-0.034463995137810705,-0.013505597456917167,0.008832721691497136
1783246377055662800,4.524662841796875,-0.027882278659939766,-0.010002703902497887,-0.0012575645963312126
1783246377065674800,4.5346748046875,-0.016064999616146085,0.01193279518224299,0.008280423854268155
1783246377075686000,4.544685791015625,-0.008435819911956787,0.007351751002296805,0.008422834849508945
1783246377085697800,4.55469775390625,-0.02280161439478397,0.0006394669473171234,-0.001760520566231571
1783246377095709000,4.564708984375,-0.02205050376653671,0.008801146093010902,0.0031754882309585806
1783246377105720800,4.574720947265625,-0.014417816931009292,-0.00112030926682055,0.012433748708013444
1783246377115733000,4.58473291015625,-0.024441782817244528,-0.0041555487768724555,-0.0004143803540151566
1783246377125743900,4.594743896484375,-0.015015198302268981,-0.00787990306224674,0.011405666035600006
1783246377135755800,4.604755859375,-0.019505495458841324,-0.007843772302940488,0.003745938212808687
1783246377145767000,4.614766845703125,-0.015616086804866789,0.0007098653024062514,0.013649974363669753
1783246377155778800,4.62477880859375,-0.01277355685532093,-0.008104067206941545,-0.0016951933951932004
1783246377165790700,4.634790771484375,-0.018909867653250693,-0.004323233493976295,-0.012032154770335183
1783246377175801900,4.6448017578125,-0.023998130702972412,0.003180712395347655,0.004504213800781872
1783246377185814000,4.65481396484375,-0.009036708414554595,0.003397862277366221,0.011894703078002203
1783246377195825000,4.664824951171875,-0.009490297400951385,-0.003234561474435031,0.002640045630407985
1783246377205836800,4.6748369140625,-0.013083937978744506,0.00041113808415830133,0.00033996341093443333
1783246377215849000,4.684848876953125,-0.027899814316630363,0.005831153838895261,0.0014514591836370526
1783246377225859800,4.69485986328125,-0.030447160711884497,-0.003200987998396158,0.004109168334899004
1783246377235871700,4.704871826171875,-0.012047580668330192,0.005617511088214814,0.0003968926463858224
1783246377245882600,4.714882568359375,-0.02013210292458534,0.0022880744045600293,0.015084413913846946
1783246377255894800,4.724894775390625,-0.022079145339131353,0.010265519557148217,0.0015271250855992547
1783246377265906700,4.73490673828125,-0.015346622213721274,-0.0013751608107239006,-0.002372108559357002
1783246377275917800,4.744917724609375,-0.01594458810687065,-0.009013291006349027,0.009194271313154603
1783246377285930000,4.754929931640625,-0.025519056659936902,-0.003087335023470223,-0.0017035114156780764
1783246377295940900,4.76494091796875,-0.012499416089057922,-0.00041438948716968294,-0.009582770590530709
1783246377305952800,4.774952880859375,-0.012499416089057922,0.0004741203177720308,0.0010292425830382853
1783246377315965000,4.78496484375,-0.014594927063584328,0.002735818172059953,0.006962404624838382
1783246377325975800,4.794975830078125,-0.027616321200132368,-0.004078026561252773,0.011391105503996368
1783246377335987700,4.80498779296875,-0.026415128716826438,-0.008079992211610078,0.0041610583523404784
1783246377345998800,4.814998779296875,-0.024468086302280423,-0.006180076874420046,0.00014094512393930927
1783246377356011000,4.825010986328125,-0.009205050718784332,0.0028086276799440383,0.004250481068307999
1783246377366023000,4.83502294921875,-0.02357026067972183,-0.00034373540375381707,-0.002187121081002988
1783246377376033800,4.84503369140625,-0.033595980131626124,-0.002586838155426085,-0.002163258431514259
1783246377386046000,4.8550458984375,-0.029704817911982536,0.015204035405255853,-0.009365796521736774
1783246377396056800,4.865056884765625,-0.02237082176208496,0.01636832994427532,0.00807688922235975
1783246377406068700,4.87506884765625,-0.02282090361714363,-0.01278645286951214,-0.011558822187141049
1783246377416081000,4.885080810546875,-0.017285481321811676,-0.008720372474379836,0.0049624926620279435
1783246377426092000,4.895092041015625,-0.01638765569925308,0.017317739623598755,0.0028534303694730625
1783246377436104000,4.90510400390625,-0.01504091726541519,-0.006326316944696009,0.010183371398760936
1783246377446114800,4.91511474609375,-0.020576339560747146,0.0005287731144577265,0.0006514701956533826
1783246377456127000,4.925126953125,-0.01638648665547371,0.005319003065675496,-0.0021710695619229226
1783246377466139000,4.935138916015625,-0.022221184158325195,-0.010720460250414907,-0.004985574426804669
1783246377476149800,4.945149658203125,-0.02551438048481941,-0.004108421699516475,0.00707258243446704
1783246377486162000,4.955161865234375,-0.006211714121699333,-0.001853482379578054,-0.006966459745448082
1783246377496172800,4.9651728515625,-0.023419454032182693,-0.00022409107945859432,0.000615337153058499
1783246377506184700,4.975184814453125,-0.011595160725712775,0.006437229973264038,-0.006105102808913215
1783246377516196900,4.98519677734375,-0.018632219755649566,-0.007532404798828065,0.0014784590717055834
1783246377526208000,4.9952080078125,-0.012801029384136199,0.016385536807402967,-0.00037857838827185333
1783246377536220000,5.005219970703125,-0.02507131289243698,0.0008235913425683975,0.008316394783370196
1783246377546230800,5.015230712890625,-0.029261750319600103,-0.014722279770299792,-0.0016073004826088436
1783246377556243000,5.025242919921875,-0.01938800655901432,-0.00044120442885905504,-0.000720375279977452
1783246377566254800,5.0352548828125,-0.023280337822437287,-0.0075754402229562395,-0.006334867860621307
1783246377576265700,5.045265625,-0.028519992041587828,0.002810490843467414,0.006234875801578164
1783246377586278000,5.05527783203125,-0.01011398225724697,-0.0024490736525505778,0.002482094572740607
1783246377596289000,5.0652890625,-0.026575872236490248,-0.004950790807791054,0.0013566867224057205
1783246377606301000,5.075301025390625,-0.021039865419268607,-0.0059922261521220205,-0.020616331361129413
1783246377616313000,5.08531298828125,-0.01804769786596298,-0.00701309363245964,-0.0008460748857236467
1783246377626324000,5.095323974609375,-0.017001988205313682,-0.003525361114554107,-0.005492354905162937
1783246377636335900,5.1053359375,-0.023583120161294935,0.0029746684292331336,0.0037547608400811438
1783246377646346800,5.1153466796875,-0.027470190727710724,-0.0026534736508503553,-0.0008950331605621613
1783246377656359000,5.12535888671875,-0.016691022560000417,-0.0011350319119170307,0.006723273523163516
1783246377666370800,5.135370849609375,-0.020134441012144087,-0.008135448725894093,0.007492812573956325
1783246377676382000,5.1453818359375,-0.016991466811299323,-0.006506751545518636,-0.000164568028121721
1783246377686393900,5.155393798828125,-0.008465630528330803,0.004662621516175568,-0.007283432723151054
1783246377696405000,5.165405029296875,-0.031361352947354315,-0.0008526347739621997,0.008755802264076191
1783246377706417000,5.1754169921875,-0.01310381172299385,-0.006575578998029232,-0.017734935272496657
1783246377716427800,5.185427734375,-0.021336802539229392,-0.003064611735008657,0.0022074674659990703
1783246377726440000,5.19543994140625,-0.021635493224859238,-0.010241882953234017,-0.013240117204433771
1783246377736451800,5.205451904296875,-0.0078688336789608,-0.0017211977694183587,-0.01203763009647373
1783246377746462700,5.215462646484375,-0.012806874603033066,-0.0063628860954195255,-0.004004959041753318
1783246377756475000,5.225474853515625,-0.025825346130132674,-0.0021637173725292083,-0.010905132634937762
1783246377766486800,5.23548681640625,-0.02163666226863861,0.016715170620568095,0.0036134024408995173
1783246377776498000,5.245497802734375,-0.020891396859288213,0.0021272212870419023,-0.009225684798147995
1783246377786510000,5.255510009765625,-0.008472060269117355,0.0012473331799730657,-0.00738618984472705
1783246377796521000,5.26552099609375,-0.014011574217677115,0.004466916280984878,0.0011108861346379854
1783246377806532900,5.275532958984375,-0.020000000977516173,-0.0039986777147278186,0.0017412450436037033
1783246377816543700,5.285543701171875,-0.020600304958224295,0.010723236729390918,-0.0040496567000052885
1783246377826556000,5.295555908203125,-0.022248072165250776,-0.0015037190938368438,0.005472752872260752
1783246377836567800,5.30556787109375,-0.019403788650035857,0.004307487935572863,-0.007040735124633647
1783246377846579000,5.315578857421875,-0.025537176838517188,-0.0020125088661909103,0.0031532375832437538
1783246377856591000,5.325591064453125,-0.016557751569151877,0.007835588996484875,0.0007952191980322822
1783246377866602000,5.33560205078125,-0.009525953236222266,0.009954846172779797,0.00008457986077992246
1783246377876614000,5.34561376953125,-0.017155717462301254,-0.01284362641684711,-0.005068473787151743
1783246377886626000,5.3556259765625,-0.010872691670060157,-0.0012834639392793178,-0.001201891169627197
1783246377896637000,5.365636962890625,-0.0209007492095232,-0.0031712869798764583,0.011171644933882634
1783246377906648800,5.37564892578125,-0.017763035705685614,-0.00006473579928278923,0.0015710601254482752
1783246377916659700,5.38565966796875,-0.010281155517697333,-0.008289872102625667,0.003768156894482672
1783246377926672000,5.395671875,-0.030033903735876083,0.0057875338928774,0.00406643658815883
1783246377936683800,5.405683837890625,-0.01821019495129585,-0.004451682179234921,0.005383983176841866
1783246377946695000,5.41569482421875,-0.020303952360153196,-0.007624138202890754,0.0031133941966225392
1783246377956707000,5.42570703125,-0.017759528574347493,0.001037051430158317,0.002412554734176956
1783246377966718000,5.435718017578125,-0.01371814422905445,-0.014846855998039244,0.0009901777978404424
1783246377976729900,5.445729736328125,-0.026586393630504607,-0.0004958206929266452,-0.0015587303668376988
1783246377986742000,5.455741943359375,-0.015815408769249917,0.010954743930324912,-0.004183249634550884
1783246377996753000,5.4657529296875,-0.021801497441530225,-0.011778956327401101,-0.004963026951567735
1783246378006764800,5.475764892578125,-0.021799743875861168,-0.0058184404877945775,0.005736776386597193
1783246378016776000,5.48577587890625,-0.01476736102104187,0.006465579284913837,0.001829172205517534
1783246378026788000,5.4957880859375,-0.02538987732231617,0.004013217696733773,-0.0009459778965101576
1783246378036800000,5.505800048828125,-0.008329436928033828,0.0011200170058757067,0.011887981076270806
1783246378046811000,5.515810791015625,-0.026735446712374687,0.0018893939431756735,0.015650685477501248
1783246378056823000,5.525822998046875,-0.012671850046515463,-0.007771656914800405,0.006574400821095332
1783246378066834000,5.535833984375,-0.01626315253674984,-0.00926748496312648,0.008404497758508659
1783246378076845800,5.545845703125,-0.03212532305717468,0.0012297975232824683,-0.003088371636508964
1783246378086857700,5.555857666015625,-0.042004327514767646,-0.004082045149244368,0.004599020511342678
1783246378096868900,5.565868896484375,-0.01192658463716507,-0.004101553567312658,0.0017781361380242741
1783246378106881000,5.575881103515625,-0.021353169152140618,-0.006062661039829254,-0.0006694214108749293
1783246378116892000,5.585891845703125,-0.015815993291139602,0.010833272975124418,0.011073787749710027
1783246378126904000,5.595904052734375,-0.005489245066046714,-0.004613521677441895,-0.012563727196655236
1783246378136916000,5.605916015625,-0.02404606149792671,-0.024047303606942294,-0.01156421531488886
1783246378146926800,5.6159267578125,-0.015365911436080931,0.0025651377802714706,0.0007220443639671429
1783246378156938800,5.625938720703125,-0.011173720443248748,0.015822569162398575,0.021286156914092132
1783246378166950000,5.635949951171875,-0.028237083446979522,-0.01727477726470679,-0.0016483951114001684
1783246378176961800,5.6459619140625,0.0046820203363895415,0.022383498580567537,-0.03678106274141464
1783246378186973700,5.6559736328125,-0.0765706139832735,-0.024323161406256257,0.007596250115544535
1783246378196985000,5.665985107421875,0.010821253743767738,0.011983465923555195,0.054945395557256416
1783246378206997000,5.6759970703125,-0.005792027404904365,-0.0145650433819741,0.012649578849202953
1783246378217007900,5.6860078125,-0.0453045381039381,0.01643551342897117,-0.0641128268125467
1783246378227020000,5.69602001953125,0.028613515543937682,-0.00621628069896251,0.02361331208687043
1783246378237032000,5.706031982421875,-0.08749766618907451,0.02129924700781703,0.06129138075022492
1783246378247042800,5.716042724609375,-0.007594692912697792,-0.005120082960091531,-0.04701567113706842
1783246378257054700,5.7260546875,-0.011937690553069114,-0.04022299705594778,-0.07962044827425852
1783246378267066000,5.736066162109375,-0.02974339635670185,0.021880809755437075,0.05233919511423446
1783246378277078000,5.746078125,0.012307108387351036,0.016904007723554968,0.06102519952813163
1783246378287090000,5.75608984375,-0.038866614010930056,-0.02596486419867724,-0.04790774287227541
1783246378297101000,5.76610107421875,0.0019844518154859543,-0.024031667646393178,-0.03336339293516939
1783246378307113000,5.776113037109375,-0.029586159968376158,0.04370174254979938,0.03848270186041482
1783246378317123800,5.786123779296875,0.006031096857786179,-0.02624313315078616,0.04631717661204748
1783246378327135700,5.7961357421875,-0.03138239573538303,-0.04426368728149682,-0.04401572213610634
1783246378337148000,5.80614794921875,-0.036624972563982006,0.0375484440844506,-0.03620699146379484
1783246378347158800,5.81615869140625,-0.03512392035126686,0.01845240620933473,0.05580319969668053
1783246378357171000,5.8261708984375,0.0018371522992849348,-0.03887114405557513,0.02711991826860467
1783246378367182000,5.83618212890625,-0.035274726998805996,0.007525719329714775,-0.04954728110707365
1783246378377194000,5.846194091796875,-0.03991232367157936,0.016621245259419083,-0.022900989965896585
1783246378387204900,5.856204833984375,-0.014019173002243042,-0.03093026805371046,0.04241190366866067
1783246378397216800,5.866216796875,-0.00414484471976757,-0.004408025700598955,-0.0022199913041433318
1783246378407229000,5.87622900390625,-0.03003565730154514,0.02812332087419927,-0.05435643038789276
1783246378417239800,5.88623974609375,-0.030185879427194594,-0.01554404448196292,0.017021692986204286
1783246378427251700,5.896251708984375,0.0013923311412334441,-0.021462803539074957,0.036237350069440434
1783246378437263000,5.90626318359375,-0.028092706540226935,0.022656433770433068,-0.02186160958133405
1783246378447275000,5.91627490234375,-0.020766309174895286,0.0021397519750520587,-0.019771012243942822
1783246378457287000,5.926286865234375,-0.0029530045866966244,-0.01984126675184816,0.05657600156692787
1783246378467297800,5.9362978515625,0.010662263789772987,0.025091259701922535,0.026470662862923926
1783246378477310000,5.94631005859375,-0.053689504611492155,0.012230864813365041,-0.052142704427754503
1783246378487320800,5.95632080078125,-0.01927344026863575,-0.0344322482926771,-0.007046409096883144
1783246378497332700,5.966332763671875,-0.020170681369304656,-0.002545337101258337,0.055581894229352474
1783246378507345000,5.976344970703125,-0.016881576696038247,0.0066367346007376905,0.006092816432786639
1783246378517356000,5.98635595703125,-0.0028133038550615308,-0.050123738421313464,-0.03155931863829028
1783246378527368000,5.996367919921875,-0.07045066979825496,0.022152685499377548,-0.03157723103760508
1783246378537379000,6.006379150390625,0.008705284503102302,0.0694909579206258,0.022836955136223695
1783246378547391000,6.016390869140625,-0.04141337588429451,-0.05700487623717636,0.05498372740680352
1783246378557403000,6.02640283203125,0.023225392764806747,-0.014120112626068293,-0.04596787911718711
1783246378567413800,6.036413818359375,-0.07584697588384151,0.07023202207889408,-0.06276886942426207
1783246378577426000,6.046426025390625,0.00003156418204307556,-0.03609912205897271,0.06304505145056173
1783246378587436800,6.056436767578125,0.01319791974723339,-0.006135105221532285,0.028005516880541106
1783246378597448700,6.06644873046875,-0.06641396162807942,0.06067523531299084,-0.0638067017391324
1783246378607460900,6.0764609375,-0.010146130961179733,-0.08662756882365792,0.011305909155285917
1783246378617472000,6.086471923828125,-0.009842179578542708,-0.002033442056365311,0.05686420739116147
1783246378627484000,6.09648388671875,-0.013141805645823477,0.08104118352606893,-0.0019577578880940563
1783246378637494800,6.106494873046875,-0.04381576085090637,-0.053530039733462036,-0.06579949212470092
1783246378647507000,6.1165068359375,0.020081249520182608,-0.05371642915103584,0.010530052244849502
1783246378657518800,6.126518798828125,-0.058929743352532385,0.09851382145043462,0.029567060258972922
1783246378667529700,6.13652978515625,0.023522914406657217,-0.0275287890471518,-0.014535289847815875
1783246378677542000,6.1465419921875,-0.04366436968147754,-0.04835903030373156,-0.035419409866235214
1783246378687553000,6.156552978515625,-0.016730770048499106,0.04294427524600178,-0.004331471599359065
1783246378697565000,6.16656494140625,-0.037078561550378794,0.040635121520794924,0.03539411787806311
1783246378707576800,6.176576904296875,0.013652093255519866,-0.10413743348587304,-0.0063747089639538896
1783246378717588000,6.186587890625,-0.03707680798470974,0.03370711235590279,-0.023326563000783788
1783246378727599900,6.196599853515625,-0.021215806508064268,0.051077130156010384,0.027552603747579268
1783246378737610800,6.20661083984375,0.018445172750949857,-0.06772917241249234,0.038029827543359714
1783246378747623000,6.216622802734375,-0.017920272094011307,-0.0121495797380805,-0.017663767449138685
1783246378757634800,6.226634765625,-0.024058920979499816,0.06946739438194781,-0.028887838973291217
1783246378767646000,6.23664599609375,-0.012682371440529822,-0.03954860492572188,0.0465384364136029
1783246378777658000,6.246658203125,0.015149053815007208,-0.031270204065181315,0.046151272860076274
1783246378787669000,6.2566689453125,-0.059226680472493166,0.04578154449854046,-0.034419699338357895
1783246378797681000,6.266680908203125,-0.043213118782639504,0.003372727836109698,-0.027075837098283227
1783246378807692800,6.27669287109375,-0.006848258459568024,-0.04561554028186947,0.03658641695214901
1783246378817704000,6.286703857421875,-0.010588029509782791,0.03247720523476601,0.016735708801809232
1783246378827715800,6.2967158203125,-0.026599837633967397,0.02377696223296225,-0.02229384981902549
1783246378837726700,6.306726806640625,-0.0234539408236742,-0.05246398140452802,-0.004277905648062005
1783246378847739000,6.31673876953125,-0.007595861956477165,0.01078494032137096,0.036584030915528996
1783246378857750800,6.326750732421875,-0.020915362256765366,0.030140871241688728,0.008821720806870144
1783246378867762000,6.336761962890625,-0.02585164961516857,-0.024674787855520842,-0.02393251583756646
1783246378877773800,6.34677392578125,-0.01957096191048622,-0.017391279783844946,-0.0008879892151337117
1783246378887785000,6.356784912109375,-0.008049450942873954,0.04802366086952388,0.02867323495809687
1783246378897796900,6.366796875,-0.020764555609226226,-0.012668489045649767,0.01097834628490964
1783246378907807700,6.376807861328125,-0.024803601866960526,-0.03335329394955188,-0.018450257634732407
1783246378917820000,6.38681982421875,-0.03707622346282005,0.018753471515141427,-0.016651080991968045
1783246378927831800,6.396831787109375,-0.02614917125701904,0.006707973206043243,0.027068099033110773
1783246378937843000,6.406843017578125,-0.020311551144719123,-0.03973093922268599,-0.00291209718757309
1783246378947854800,6.416854736328125,-0.028993454772233963,0.014346724456176161,-0.036138798765523825
1783246378957866000,6.426865966796875,-0.017622165930271147,0.016933124220184982,0.0014873616140801459
1783246378967878000,6.4368779296875,-0.009388006070256232,-0.021626506200805307,0.027698955698998176
1783246378977889800,6.446889892578125,-0.0014560440272092818,-0.018508264582417906,0.00883748691487126
1783246378987901000,6.45690087890625,-0.026148586735129355,0.03316398192252964,-0.01619482284116093
1783246378997912800,6.466912841796875,-0.011933014377951622,-0.011120602016523479,0.0003634470345103182
1783246379007924000,6.476924072265625,-0.00864040257334709,-0.018467457647994158,0.019778494580788536
1783246379017936000,6.486935791015625,-0.015975567767024038,0.022753500936739144,-0.00868607519584475
1783246379027947800,6.49694775390625,-0.030935821011662482,0.0047173473780974745,-0.009998562016920187
1783246379037959000,6.506958984375,-0.02210369525849819,-0.024241657135263085,0.009704234695865307
1783246379047970800,6.516970703125,-0.01731763002574444,0.021008812693879008,0.009775169623782857
1783246379057982000,6.52698193359375,-0.024500819528102874,0.009496982870064676,-0.007689609221112914
1783246379067993900,6.536993896484375,-0.012827332869172096,-0.02107336583007127,-0.008039319991215597
1783246379078005800,6.547005859375,-0.023455109867453573,0.006998078726418316,0.01577500369362533
1783246379088017000,6.557016845703125,-0.016273673930764197,0.025883067666739226,0.015073355947004164
1783246379098028800,6.56702880859375,-0.015076573100686072,-0.01106693560052663,-0.009102492243319283
1783246379108040000,6.5770400390625,-0.02286006658375263,-0.00996788831744343,-0.009009598928631748
1783246379118051800,6.5870517578125,-0.02555588153898716,0.02585636232290417,0.014671848774293903
1783246379128064000,6.59706396484375,-0.026153847432136536,-0.013657975007034837,0.011017694197897799
1783246379138075000,6.607074951171875,-0.014040800312161445,-0.010031564670801163,-0.012551086910790763
1783246379148086800,6.617086669921875,-0.026163784304261205,0.01619626131299883,-0.021073233399330638
1783246379158098000,6.627097900390625,-0.022270868518948553,0.006427877623029053,0.01308287853281945
1783246379168109800,6.63710986328125,0.0007727379381656646,-0.011225048771686851,0.008100991617154794
1783246379178121700,6.647121826171875,-0.026466566643118857,0.0019148937106132505,-0.008302530654799193
1783246379188132900,6.6571328125,-0.03963233768641949,-0.00098893797211349,-0.01083708606713917
1783246379198145000,6.66714501953125,-0.024811785173416135,-0.007572517613507807,0.009862962071667425
1783246379208156000,6.677156005859375,-0.02346446221768856,0.00826477419398725,-0.0033471915360540148
1783246379218167800,6.687167724609375,-0.02391279050707817,0.002552570559643209,-0.011235679763555526
1783246379228180000,6.697179931640625,-0.020320903494954107,-0.01181837502233684,-0.003893865633383393
1783246379238190800,6.70719091796875,-0.01748012711107731,-0.005481719346717,0.009601881716377101
1783246379248202800,6.71720263671875,-0.0035632454395294185,0.0018366773752495646,-0.0017940597929409705
1783246379258213600,6.727213623046875,-0.0025146131694316863,-0.007622348104603588,-0.01693454899229109
1783246379268225800,6.737225830078125,0.0028729250878095627,-0.005840615786984562,0.008215425476792734
1783246379278237700,6.74723779296875,-0.007449731484055519,0.005024915489926934,0.013039427550160325
1783246379288248800,6.757248779296875,-0.024507249268889426,-0.0030703838886693116,-0.015504146296414546
1783246379298261000,6.767260986328125,-0.005205167427659034,0.003688004330359399,-0.014982204781542531
1783246379308271900,6.77727197265625,-0.02555588153898716,0.0019053221646696328,-0.004765339821844827
1783246379318283800,6.78728369140625,-0.01837444560229778,0.02287489882670343,0.009922695185558404
1783246379328296000,6.7972958984375,-0.015532500174641608,-0.012853709419444203,0.0020863001881865784
1783246379338306800,6.807306884765625,-0.009098667734861373,0.002262465039268136,-0.004375322157528717
1783246379348318700,6.817318603515625,-0.018975334104895592,0.010668839661031961,0.012400693538493941
1783246379358329900,6.827329833984375,-0.015532500174641608,-0.009416866838559508,0.008533606314181815
1783246379368342000,6.837342041015625,-0.02166881097257137,0.0015359043303877114,0.0011959409194532782
1783246379378353000,6.847352783203125,-0.015385785180330276,0.006373188293725252,-0.0002855823255958967
1783246379388364800,6.85736474609375,-0.019575053563714025,0.0027690628545358775,0.014281488616683054
1783246379398377000,6.867376953125,-0.020020459243655205,-0.019157230010442436,0.01044568701320095
1783246379408387800,6.877387939453125,-0.01523439401090145,-0.0002579933490604162,-0.007718015614978503
1783246379418399700,6.887399658203125,-0.017179098337888717,0.0063150648983195425,-0.008741741772682872
1783246379428411000,6.897410888671875,-0.016579963400959966,0.001065729535371065,0.009495482749433721
1783246379438423000,6.907423095703125,-0.027803952726721762,0.013664843139238655,0.011585943089507054
1783246379448435000,6.91743505859375,-0.02346563126146793,0.007694098166562616,-0.012166432691470254
1783246379458445800,6.92744580078125,-0.02990121726691723,-0.008573584414832294,-0.004501850597048178
1783246379468458000,6.9374580078125,-0.011793313646316528,0.00559533578902483,0.016658026755985336
1783246379478468900,6.94746875,-0.02989887917935848,0.015612068216875195,0.0006239497177768498
1783246379488480800,6.957480712890625,-0.029297406154870986,-0.0015304244376718997,-0.003103441341477446
1783246379498493000,6.967492919921875,-0.018369184905290603,0.0073400605645030734,-0.010288217729434836
1783246379508503800,6.97750390625,-0.015075988578796386,0.011043262463994324,0.012928603569848927
1783246379518515700,6.987515625,-0.020761632999777794,0.0005607756879180669,0.008519917998835443
1783246379528526800,6.99752685546875,-0.012978724038600922,0.003799209619872272,-0.014247819242521654
1783246379538539000,7.0075390625,-0.02360299390554428,-0.00038340982701629396,0.0020795644867233933
1783246379548551000,7.017551025390625,-0.024649288088083265,0.004372662126272917,0.006573224927450065
1783246379558561800,7.027561767578125,-0.03078033818900585,-0.012195501239039003,0.0013546500289463438
1783246379568574000,7.037573974609375,-0.02090250277519226,-0.00953683995641768,0.006435965031362139
1783246379578584800,7.047584716796875,-0.028383798441290853,0.004354943806491792,0.005712678558379411
1783246379588596700,7.0575966796875,-0.020449498310685158,0.007859042937308549,0.014515938976663164
1783246379598609000,7.06760888671875,-0.011024082839488983,-0.00242485252674669,0.002637641327478923
1783246379608620000,7.0776201171875,-0.02763619494438171,0.0027246757235378023,-0.007668205673480406
1783246379618632000,7.0876318359375,-0.02599018130302429,0.005724843920208513,0.015294483317818958
1783246379628642800,7.097642822265625,-0.02179740578830242,-0.005411722850427031,0.014761406204290688
1783246379638655000,7.107655029296875,-0.009679097971320152,0.0018234525674954056,-0.00737979206998134
1783246379648667000,7.1176669921875,-0.029583821880817412,-0.003346460883691907,-0.007577253154129721
1783246379658677800,7.127677734375,-0.016864041039347646,0.0047247634995728725,0.004997454377554823
1783246379668690000,7.13768994140625,-0.025546529188752172,0.012136537593416869,-0.007415806381567381
1783246379678700800,7.14770068359375,-0.026896190232038496,-0.00394062738455832,-0.0015939318276708945
1783246379688713000,7.157712890625,-0.016717910566926,0.000624780834838748,-0.0006472301286645233
1783246379698724900,7.167724853515625,-0.002353285127878189,0.0006387728275731205,0.005650027401617262
1783246379708736000,7.177736083984375,-0.03287935629487038,0.007064641156606375,-0.005911183105432428
1783246379718748000,7.187747802734375,-0.02539806062877178,0.0015493118012323975,-0.000901510850409977
1783246379728758800,7.1977587890625,-0.01701777029633522,-0.0023537235192954537,0.00000920165318530053
1783246379738771000,7.20777099609375,-0.026297639816999435,0.00040441608242690563,-0.013007737787242513
1783246379748781800,7.21778173828125,-0.02091127060353756,-0.0054124535027891395,0.018447113546286708
1783246379758793700,7.227793701171875,-0.027339842346310615,-0.010051146154105663,0.0006549202447757124
1783246379768806000,7.237805908203125,-0.017909750699996948,0.008434541270323098,-0.01175375338748563
1783246379778817000,7.247817138671875,-0.03496551491916179,-0.00601125964615494,0.000057605088886339215
1783246379788829000,7.257828857421875,-0.02105097133517265,-0.007916143419407308,0.008423629433952737
1783246379798839800,7.26783984375,-0.020863924330472947,0.005490998631715774,0.006791457088280003
1783246379808852000,7.27785205078125,-0.27189444864094253,0.022845964993163943,-0.10919605031600221
1783246379818863900,7.28786376953125,0.10137363132834434,-0.03299264394361526,0.027334567949571644
1783246379828874800,7.297874755859375,0.3921469679623842,0.008919292579963803,0.21783194599859415
1783246379838887000,7.307886962890625,-0.35235213319063186,0.017748057332262396,-0.14495504456725902
1783246379848898000,7.31789794921875,-0.1169300969004631,-0.009028926966898143,-0.06703342240040656
1783246379858910000,7.327909912109375,0.31273265498578545,-0.02346804241426289,0.14097687078444288
1783246379868921900,7.337921875,-0.1373643976420164,0.009694989660196007,-0.022995543231419287
1783246379878933000,7.34793310546875,-0.10951309864223002,0.0007573577059432864,-0.03928145102267153
1783246379888945000,7.35794482421875,0.0850321528583765,-0.0031603637270629405,0.045157978373253714
1783246379898955800,7.367955810546875,-0.08751753993332385,-0.013324213008023798,-0.046584723240742455
