time,seconds_elapsed,z,y,x
1783246491408699600,0.06469970703125,-0.00019558565691113472,0.0008727025706321001,-0.00013244617730379105
1783246491418711600,0.074711669921875,0.00048300111666321754,-0.0009484176989644766,0.0002245558425784111
1783246491428723500,0.084723388671875,-0.00018438720144331455,-0.00013535469770431519,0.0006346828304231167
1783246491438734800,0.09473486328125,0.00034748902544379234,0.0007952721789479256,0.00001788884401321411
1783246491448746800,0.104746826171875,-0.0007697069086134434,0.000019493279978632927,-0.00011739972978830338
1783246491458757600,0.114757568359375,-0.0005085386801511049,0.00015706161502748728,-0.0004807012155652046
1783246491468769500,0.12476953125,-0.00019295397214591503,-0.00011378200724720955,0.0001254342496395111
1783246491478781700,0.13478173828125,0.0007306833285838366,0.001806579646654427,0.0006152433343231678
1783246491488792600,0.14479248046875,-0.00013351254165172577,0.0006947099464014173,0.00036703702062368393
1783246491498804500,0.154804443359375,-0.0005753024015575647,-0.0006499951705336571,-0.0010550154838711023
1783246491508816600,0.164816650390625,0.0003855661489069462,-0.0007932730950415134,-0.0018707418348640203
1783246491518827800,0.174827880859375,-0.00013840291649103165,-0.0004778162110596895,-0.0016825241036713123
1783246491528839700,0.184839599609375,0.001021670177578926,-0.0013103203382343054,0.0002421424724161625
1783246491538851800,0.194851806640625,0.0007325836922973394,0.0006403949810191989,0.00009117787703871727
1783246491548862700,0.20486279296875,0.000059869373217225075,-0.0008571005892008543,-0.0011040489189326763
1783246491558874600,0.21487451171875,-0.00029919110238552094,-0.0011023255065083504,0.000017657410353422165
1783246491568886800,0.22488671875,-0.001197475241497159,0.0005954396910965443,-0.0008468048181384802
1783246491578897700,0.234897705078125,0.000027636531740427017,0.001023518037982285,-0.0015570481773465872
1783246491588909600,0.24490966796875,0.0013496296014636755,0.00012070639058947563,-0.00007739569991827011
1783246491598920700,0.254920654296875,0.0002623933833092451,0.00026506383437663317,-0.0015404867008328438
1783246491608932600,0.2649326171875,0.00023150071501731873,0.0000690552406013012,0.00039536505937576294
1783246491618944800,0.27494482421875,-0.0003719036467373371,0.0005249943351373076,0.0002519739791750908
1783246491628955600,0.28495556640625,0.0006630006246268749,-0.00015198113396763802,0.0008706264197826385
1783246491638967800,0.2949677734375,0.00002405419945716858,0.00035310478415340185,-0.00044117262586951256
1783246491648979700,0.304979736328125,-0.0005272200796753168,0.000016747508198022842,-0.00036793528124690056
1783246491658989800,0.31498974609375,0.0005051435437053442,0.000040849437937140465,-0.001104559050872922
1783246491669001700,0.325001708984375,-0.0008173822425305843,-0.001169291092082858,-0.0003519495949149132
1783246491679014000,0.335013916015625,-0.0001713302917778492,0.0010395467979833484,-0.0001572626642882824
1783246491689025000,0.34502490234375,0.0006297486834228039,-0.0005487625021487474,0.0005106581375002861
1783246491699037000,0.355036865234375,0.00029153889045119286,-0.0005245755892246962,-0.000587977934628725
1783246491709049000,0.365049072265625,0.00019699661061167717,0.000558265601284802,-0.00014988798648118973
1783246491719060000,0.37506005859375,-0.0006228424608707428,0.0011719383765012026,0.0010102763772010803
1783246491729071900,0.38507177734375,0.000028034206479787827,-0.00019346433691680431,-0.00029360735788941383
1783246491739082800,0.395082763671875,-0.0013349598739296198,-0.0012499620206654072,0.0008149999193847179
1783246491749095000,0.405094970703125,-0.00018767011351883411,-0.0004262463189661503,0.00009647896513342857
1783246491759106800,0.41510693359375,0.0006689934525638819,-0.00046374695375561714,-0.0014189216308295727
1783246491769118000,0.425117919921875,-0.0009265062399208546,-0.0002530908677726984,0.000047415029257535934
1783246491779129900,0.4351298828125,-0.0001661200076341629,0.0010737250559031963,-0.0017256780993193388
1783246491789142000,0.44514208984375,-0.0012431021314114332,0.00050141173414886,0.00006290106102824211
1783246491799153000,0.45515283203125,-0.00012079020962119102,-0.0004302607849240303,-0.0008285436779260635
1783246491809165000,0.4651650390625,-0.0008718017488718033,0.0001492430455982685,-0.00036621885374188423
1783246491819177000,0.475177001953125,-0.0009812656790018082,-0.00036986381746828556,-0.0013060553465038538
1783246491829187800,0.485187744140625,-0.0005450400058180094,0.0014714456629008055,0.00004523247480392456
1783246491839200000,0.495199951171875,0.0006501476746052504,-0.00023931940086185932,0.0007703248411417007
1783246491849212000,0.5052119140625,0.000005396315827965736,-0.0014782219659537077,0.00009867548942565918
1783246491859222800,0.515222900390625,0.0003932742401957512,-0.0008562854491174221,-0.00033886637538671494
1783246491869234700,0.525234619140625,0.00010405504144728184,-0.000016857171431183815,-0.0008153058588504791
1783246491879246000,0.53524609375,-0.0005257648881524801,0.00046795234084129333,0.000994800589978695
1783246491889258000,0.545258056640625,-0.0014552080538123846,0.0003877911949530244,-0.0012126937508583069
1783246491899270000,0.555269775390625,-0.0008772469591349363,0.00046204368118196726,0.00020070699974894524
1783246491909281000,0.565281005859375,0.0007544716354459524,-0.00021439907141029835,0.00008592475205659866
1783246491919293000,0.57529296875,-0.00008200528100132942,0.0005051178159192204,0.000746680423617363
1783246491929304800,0.585304931640625,0.00017498969100415707,-0.001057891407981515,-0.001087704673409462
1783246491939315700,0.595315673828125,0.0003075464628636837,-0.00007228879258036613,0.0012219506315886974
1783246491949328000,0.605327880859375,-0.0011145812459290028,0.0010052260477095842,0.0007207440212368965
1783246491959339800,0.61533984375,0.001138026244007051,-0.000019327271729707718,0.0006420291028916836
1783246491969351000,0.625350830078125,-0.0007648023311048746,0.00023527094163000584,0.0000036694109439849854
1783246491979363000,0.635363037109375,0.0010666819289326668,0.0003999436739832163,-0.0006221653893589973
1783246491989375000,0.645375,0.00047652539797127247,-0.0009105978533625603,-0.0006445359904319048
1783246491999385900,0.6553857421875,-0.00029340642504394054,0.0009407122852280736,0.0002213851548731327
1783246492009398000,0.66539794921875,0.0011500269174575806,0.00007864704821258783,-0.00026277732104063034
1783246492019409000,0.675408935546875,-0.00036431639455258846,-0.00030129984952509403,-0.0005894568748772144
1783246492029420800,0.6854208984375,-0.0007265063468366861,0.0011844777036458254,0.00021055666729807854
1783246492039433000,0.695432861328125,0.0007015224546194077,-0.000559789827093482,-0.0001503974199295044
1783246492049443800,0.70544384765625,0.0007345457561314106,-0.0013832391705363989,-0.00017649633809924126
1783246492059455700,0.715455810546875,0.0004751961678266525,-0.0008869594894349575,-0.0010203779675066471
1783246492069468000,0.725468017578125,0.0014062372501939535,-0.0008382236119359732,0.00027844589203596115
1783246492079479000,0.73547900390625,0.0011943622957915068,-0.0015595697332173586,-0.0003303373232483864
1783246492089491000,0.745490966796875,-0.001244294224306941,-0.0005566233303397894,0.00041854334995150566
1783246492099502800,0.7555029296875,-0.0006112447008490562,0.00007049459964036942,0.0009752153418958187
1783246492109514000,0.765513916015625,-0.0011737041641026735,-0.0008216644637286663,0.000350970309227705
1783246492119526000,0.77552587890625,0.00031370436772704124,-0.0005448043812066317,0.000014218036085367203
1783246492129537800,0.785537841796875,0.00033048237673938274,-0.00101618398912251,0.0006592357531189919
1783246492139549000,0.795548828125,0.000026274239644408226,-0.0007641504053026438,0.00006639072671532631
1783246492149560800,0.805560791015625,0.0008180320728570223,0.0005890018073841929,0.0007436326704919338
1783246492159572000,0.815572021484375,0.0011826639529317617,0.00012739747762680054,-0.001304737525060773
1783246492169583900,0.825583984375,0.0007280623540282249,-0.0016742309089750051,-0.0005420083180069923
1783246492179596000,0.835595947265625,-0.0010199518874287605,-0.00019029434770345688,0.0005093468353152275
1783246492189607000,0.84560693359375,-0.0005546973552554846,0.00046058231964707375,0.000012401025742292404
1783246492199618800,0.855618896484375,0.00030028121545910835,-0.000865238020196557,0.0011476092040538788
1783246492209631000,0.865630859375,-0.00017855525948107243,-0.000849258853122592,-0.0001717209815979004
1783246492219641900,0.875641845703125,0.00017753103747963905,-0.00009504426270723343,0.0016436101868748665
1783246492229653800,0.88565380859375,0.0006584979128092527,0.0009774105856195092,-0.00006613926962018013
1783246492239666000,0.895666015625,-0.00032554822973906994,-0.0005006343126296997,-0.0002222880721092224
1783246492249677000,0.905677001953125,-0.0006150337867438793,-0.0009198160842061043,0.0013977130874991417
1783246492259689000,0.91568896484375,0.00016231322661042213,0.000060358550399541855,0.00029485486447811127
1783246492269701000,0.925701171875,0.000626502325758338,0.0006806087912991643,0.0006610392592847347
1783246492279712000,0.9357119140625,0.0002811222802847624,-0.0001353793777525425,-0.00014062412083148956
1783246492289724000,0.945723876953125,-0.0000618926715105772,-0.00006986572407186031,0.00011796876788139343
1783246492299734800,0.95573486328125,-0.0011732918210327625,0.0006082116160541773,0.00021326635032892227
1783246492309747000,0.965746826171875,-0.0011064461432397366,-0.00043441588059067726,-0.0013955491594970226
1783246492319758800,0.9757587890625,0.0005756036844104528,-0.0008149174973368645,0.0003537670709192753
1783246492329769700,0.985769775390625,0.0005857236683368683,-0.001464728731662035,0.0006999783217906952
1783246492339782000,0.995781982421875,0.00044675194658339024,-0.00016867252998054028,0.0004977723583579063
1783246492349793800,1.005793701171875,0.0011199990985915065,0.0003615629393607378,-0.00021355785429477692
1783246492359805000,1.015804931640625,-0.0017074157949537039,-0.0002218233421444893,0.000028844457119703293
1783246492369817000,1.025817138671875,-0.0005289667751640081,-0.000052179908379912376,0.0006688018329441547
1783246492379829000,1.0358291015625,0.00009187939576804638,-0.0006076707504689693,-0.0004614894278347492
1783246492389840000,1.04583984375,0.0005083975847810507,-0.0007749171927571297,-0.00048519158735871315
1783246492399851800,1.055851806640625,0.0003472252283245325,0.0008323205402120948,-0.0003514406271278858
1783246492409864000,1.065864013671875,0.00018876721151173115,-0.00034160097129642963,0.00014177709817886353
1783246492419874800,1.075874755859375,0.0013658133102580905,0.0006346751470118761,0.0003320458345115185
1783246492429886700,1.08588671875,-0.00028374860994517803,-0.0009477753192186356,-0.0013124560937285423
1783246492439898000,1.095898193359375,0.000613802345469594,-0.00023604044690728188,-0.00003229361027479172
1783246492449910000,1.105909912109375,-0.0015873000957071781,-0.0007878474425524473,0.000020170584321022034
1783246492459922000,1.115921875,0.0013338334392756224,-0.0002785536926239729,0.0002715480513870716
1783246492469932800,1.125932861328125,0.0006030621007084846,0.00002744351513683796,-0.002440881449729204
1783246492479945000,1.135945068359375,0.00104404310695827,0.0010599121451377869,-0.00034272344782948494
1783246492489956900,1.145956787109375,-0.0007386768702417612,-0.0004173433408141136,0.0012940550222992897
1783246492499967700,1.1559677734375,0.0010965523542836308,0.0003197081387042999,0.0002858731895685196
1783246492509980000,1.16597998046875,0.0010840354952961206,0.0005250378744676709,-0.0005996278487145901
1783246492519991800,1.17599169921875,0.0012280974769964814,0.0004871364217251539,0.0004830514080822468
1783246492530003000,1.1860029296875,0.00017295312136411667,-0.0011901224497705698,0.0003293873742222786
1783246492540015000,1.19601513671875,0.0006210100837051868,-0.000548910116776824,0.0005968068726360798
1783246492550027000,1.206027099609375,-0.0007593061309307814,0.00039198482409119606,0.0010532727465033531
1783246492560038000,1.216037841796875,-0.0003391245845705271,-0.0001712373923510313,-0.00021639978513121605
1783246492570050000,1.226050048828125,0.0009722160175442696,-0.0007776392158120871,-0.0017453206237405539
1783246492580061000,1.23606103515625,-0.0005738690961152315,-0.00040064076893031597,-0.00011308025568723679
1783246492590072800,1.24607275390625,-0.00027559511363506317,-0.0002155511174350977,0.00023952219635248184
1783246492600085000,1.2560849609375,-0.000042321858927607536,-0.0021667571272701025,-0.0004122294485569
1783246492610095900,1.266095947265625,0.0009273351170122623,-0.00011106324382126331,-0.0004580356180667877
1783246492620107800,1.276107666015625,-0.00009132386185228825,-0.00005143275484442711,0.00034164125099778175
1783246492630119700,1.28611962890625,-0.0002982513979077339,0.001621298841200769,-0.001079421490430832
1783246492640131000,1.296131103515625,0.0000012032687664031982,0.00009140418842434883,-0.00028390809893608093
1783246492650143000,1.30614306640625,-0.0017559502739459276,0.0014592036604881287,0.0008977362886071205
1783246492660155100,1.316155029296875,-0.00034654163755476475,-0.0008303977083414793,-0.0005775056779384613
1783246492670166000,1.326166015625,0.0008087377063930035,0.00026016670744866133,-0.0008747146930545568
1783246492680178000,1.336177978515625,-0.001425857888534665,-0.000624343752861023,0.00024257460609078407
1783246492690188800,1.346188720703125,-0.0009664625395089388,0.0008475854992866516,-0.0004304060712456703
1783246492700201000,1.356200927734375,-0.0006360691040754318,0.0010853640269488096,0.0016971197910606861
1783246492710212900,1.366212890625,-0.00023473077453672886,-0.00009122048504650593,-0.0009551222901791334
1783246492720224000,1.37622412109375,0.0001878407783806324,-0.0010008958633989096,0.0006466712802648544
1783246492730236200,1.386236083984375,0.0004211338236927986,0.00032162992283701897,-0.000026575755327939987
1783246492740248000,1.396248046875,-0.0009413824882358313,-0.00041045877151191235,-0.0007611685432493687
1783246492750259000,1.406259033203125,0.001676770974881947,-0.000745484372600913,0.0005895867943763733
1783246492760270800,1.416270751953125,0.00040502985939383507,-0.00035445927642285824,0.0004341881722211838
1783246492770283000,1.426282958984375,-0.0003726133145391941,0.0000293022021651268,-0.0016902154311537743
1783246492780294000,1.4362939453125,-0.0008642836473882198,-0.0003040039446204901,-0.0009642301592975855
1783246492790305800,1.446305908203125,0.0009432036895304918,-0.0001740416046231985,-0.001379949739202857
1783246492800318000,1.45631787109375,0.0013809162192046642,0.0006580319022759795,-0.0004349956288933754
1783246492810329000,1.4663291015625,0.0004397551529109478,-0.0006831360515207052,0.000524541363120079
1783246492820341000,1.476341064453125,-0.00038591562770307064,-0.0009418264962732792,-0.0002969373017549515
1783246492830352000,1.486351806640625,-0.0007955096662044525,-0.00022969720885157585,-0.0003288956359028816
1783246492840364000,1.496364013671875,0.0005180060397833586,0.000807648291811347,0.0008476465009152889
1783246492850376000,1.5063759765625,0.0003781900741159916,-0.0010850601829588413,0.0007453807629644871
1783246492860386800,1.51638671875,-0.0008331716526299715,-0.000014264369383454323,-0.00026835687458515167
1783246492870399000,1.52639892578125,0.0004560647066682577,0.0011002685641869903,-0.0006571784615516663
1783246492880411000,1.536410888671875,-0.0006396225653588772,0.00005147326737642288,-0.0005635037086904049
1783246492890421800,1.546421875,-0.000017508165910840034,0.0003915588604286313,-0.00026043597608804703
1783246492900434000,1.556433837890625,0.00042323023080825806,0.0011030712630599737,-0.0005802912637591362
1783246492910445800,1.56644580078125,0.0007878169417381287,0.00044473784510046244,-0.00025192368775606155
1783246492920457000,1.57645703125,0.00019586202688515186,-0.00041819759644567966,0.001081039197742939
1783246492930469000,1.58646923828125,-0.0015101591125130653,0.00022255908697843552,-0.0003839656710624695
1783246492940481000,1.59648095703125,0.00032320176251232624,-0.00001909281127154827,-0.001993234036490321
1783246492950492000,1.606491943359375,0.0006169483531266451,-0.0010380183812230825,0.00046220049262046814
1783246492960504000,1.616504150390625,0.00018237926997244358,0.0008760984055697918,-0.0004400848411023617
1783246492970515000,1.626514892578125,0.0001341761089861393,-0.0009058227296918631,-0.0007048030383884907
1783246492980526800,1.63652685546875,0.0006245612166821957,0.00010761222802102566,0.00034054648131132126
1783246492990538800,1.646538818359375,0.00015105120837688446,0.000287109287455678,-0.0007691928185522556
1783246493000550100,1.656550048828125,0.0010329550132155418,0.0009230868890881538,-0.0014869128353893757
1783246493010562000,1.66656201171875,0.0009525276254862547,0.0011217587161809206,-0.0018504341132938862
1783246493020574000,1.676573974609375,0.0005456926301121712,0.0002178518334403634,-0.000684807077050209
1783246493030585000,1.686585205078125,-0.0011275713331997395,0.0008322431240230799,-0.00015856651589274406
1783246493040597000,1.696596923828125,0.00008157477714121342,-0.00019555166363716125,0.0007177228108048439
1783246493050609000,1.70660888671875,-0.0007514620665460825,0.0007687789620831609,-0.0009558075107634068
1783246493060619800,1.716619873046875,0.00010581198148429394,0.0002606679918244481,-0.0008780350908637047
1783246493070632000,1.7266318359375,0.0006980989128351212,0.0015586926601827145,0.00007724110037088394
1783246493080642800,1.736642822265625,0.0010519179049879313,-0.0005819664802402258,0.0004011942073702812
1783246493090655000,1.746655029296875,-0.0008908582385629416,0.00012430385686457157,-0.0007578134536743164
1783246493100667000,1.7566669921875,-0.0009569725953042507,0.00032112770713865757,-0.00022428249940276146
1783246493110678000,1.766677978515625,0.0003466447815299034,-0.001139083644375205,-0.0003348034806549549
1783246493120690000,1.77668994140625,-0.0004398692399263382,-0.000050995033234357834,0.000053971074521541595
1783246493130702000,1.7867021484375,-0.0005735598970204592,0.0002797695342451334,-0.00006880052387714386
1783246493140713000,1.796712890625,0.0010767702478915453,0.00026195868849754333,0.0013845134526491165
1783246493150724900,1.806724853515625,0.0010682479478418827,0.00027873669750988483,-0.0007313680835068226
1783246493160737000,1.816737060546875,0.00042311870492994785,0.0006523451302200556,-0.0010703285224735737
1783246493170748000,1.826747802734375,-0.0007920817006379366,0.00019747717306017876,0.0005360902287065983
1783246493180759800,1.836759765625,0.00044606602750718594,0.0007392709376290441,-0.00009201699867844582
1783246493190772000,1.84677197265625,-0.0006492920219898224,0.0007696310058236122,-0.0013013584539294243
1783246493200783000,1.856783203125,-0.0004977684002369642,-0.0005369002465158701,0.00034102657809853554
1783246493210795000,1.866794921875,-0.0002546217292547226,-0.0008817797061055899,-0.0008776357863098383
1783246493220806000,1.876805908203125,0.0009509208612143993,0.001261743949726224,-0.00006751297041773796
1783246493230818000,1.886818115234375,0.0005634310655295849,-0.000353729585185647,-0.0002890881150960922
1783246493240830000,1.896829833984375,0.0004360924940556288,0.0019174197223037481,-0.0004941308870911598
1783246493250840800,1.9068408203125,0.0005077316891402006,0.001477199257351458,-0.0007543214596807957
1783246493260853000,1.91685302734375,0.0015793382190167904,0.0005155592225492001,0.0005783732049167156
1783246493270865000,1.926864990234375,-0.00012748176231980324,-0.0020842186640948057,-0.0006671873852610588
1783246493280876000,1.9368759765625,0.0002640374004840851,-0.00004344969056546688,-0.0006473218090832233
1783246493290888000,1.946887939453125,0.00046936701983213425,0.0007765375776216388,0.0005833250470459461
1783246493300900000,1.956900146484375,-0.001744318986311555,0.00013385398779064417,0.0023434129543602467
1783246493310911000,1.966910888671875,-0.0006140735931694508,0.0008382601663470268,0.0009644282981753349
1783246493320923000,1.9769228515625,0.00017049722373485565,0.0006064169574528933,0.00029515521600842476
1783246493330934000,1.98693408203125,-0.0004204581491649151,-0.0017637964338064194,0.0008014221675693989
1783246493340946000,1.99694580078125,0.0002708954270929098,-0.0008092701900750399,0.0010200352407991886
1783246493350957800,2.006957763671875,-0.00025934004224836826,-0.0013411033432930708,0.000633610412478447
1783246493360968700,2.01696875,0.0004799400921911001,-0.0009298301301896572,-0.001488882815465331
1783246493370980900,2.02698095703125,-0.0005054294597357512,0.00021106807980686426,-0.000010562129318714142
1783246493380992800,2.03699267578125,0.000864704605191946,0.00035998772364109755,-0.0007172250188887119
1783246493391004000,2.04700390625,0.0007603086996823549,0.00018927908968180418,-0.0002772710286080837
1783246493401016000,2.05701611328125,-0.001049781683832407,0.0013855928555130959,-0.00073207076638937
1783246493411028000,2.067028076171875,0.0001268030609935522,-0.00013480568304657936,-0.00038479454815387726
1783246493421038800,2.077038818359375,-0.00020874710753560066,0.00097969314083457,0.0005896147340536118
1783246493431051000,2.087051025390625,-0.00011793337762355804,-0.0013931833673268557,-0.00006658816710114479
1783246493441063000,2.09706298828125,-0.0005087705794721842,-0.0007055553141981363,0.0008756108582019806
1783246493451073800,2.10707373046875,0.000010013114660978317,-0.0007220669649541378,0.0006511062383651733
1783246493461086000,2.1170859375,0.0006245900876820087,-0.0023736755829304457,-0.0019335385877639055
1783246493471097000,2.12709716796875,-0.00048355129547417164,-0.0008636631537228823,0.00037808530032634735
1783246493481109000,2.13710888671875,-0.0006983280181884766,-0.000356210395693779,0.00022003892809152603
1783246493491121200,2.14712109375,-0.0012919465079903603,0.00003287754952907562,0.0002583884634077549
1783246493501132000,2.157132080078125,-0.0004867096431553364,-0.0006412221118807793,0.0010819090530276299
1783246493511144000,2.16714404296875,0.0018076037522405386,0.00046931602992117405,-0.0004672515206038952
1783246493521155800,2.17715576171875,0.0005398853681981564,0.0011625149054452777,0.00043115392327308655
1783246493531167000,2.1871669921875,0.00034361029975116253,-0.00026094471104443073,-0.0012852533254772425
1783246493541179000,2.197178955078125,0.0011208395007997751,-0.0005732101853936911,0.00038237497210502625
1783246493551190800,2.207190673828125,0.00020124996080994606,-0.000029392540454864502,0.0009482963941991329
1783246493561202200,2.2172021484375,-0.0010066390968859196,0.0005844138795509934,0.0007596705108880997
1783246493571214000,2.227214111328125,0.0007076375186443329,-0.00022918195463716984,0.0007271799258887768
1783246493581225000,2.237224853515625,-0.0002773979213088751,0.0007710014469921589,-0.0007451069541275501
1783246493591236900,2.24723681640625,0.0010664332658052444,-0.002615208039060235,-0.000868943752720952
1783246493601249000,2.2572490234375,0.00016038375906646252,-0.0004019786138087511,-0.0007473225705325603
1783246493611260000,2.267260009765625,-0.0004404254723340273,-0.0005332722794264555,-0.0010032523423433304
1783246493621271800,2.277271728515625,-0.00023869751021265984,-0.0010350393131375313,-0.00032705580815672874
1783246493631284000,2.287283935546875,-0.0009548214729875326,0.0002134506357833743,0.00013606809079647064
1783246493641294800,2.297294921875,-0.0011648766230791807,0.0010555728804320097,-0.0008863320108503103
1783246493651306800,2.307306640625,0.0011488778982311487,-0.0005915921647101641,0.0008873334154486656
1783246493661319400,2.3173193359375,-0.0009023677557706833,-0.0004573534242808819,0.00010072393342852592
1783246493671330600,2.32733056640625,-0.0006347200833261013,-0.0004416408482939005,-0.00015733623877167702
1783246493681342500,2.337342529296875,-0.0011518383398652077,-0.0008024871349334717,-0.0015785768628120422
1783246493691354600,2.347354736328125,0.001670313416980207,-0.001401165733113885,0.00099243875592947
1783246493701365500,2.357365478515625,-0.0003842946607619524,-0.000727813458070159,-0.0005127405747771263
1783246493711377400,2.36737744140625,0.00004527322016656399,-0.0001917190384119749,-0.001982539426535368
1783246493721388300,2.37738818359375,0.00026193284429609776,-0.0007441388443112373,-0.0003840988501906395
1783246493731400400,2.387400390625,0.0003886993508785963,-0.0004242933355271816,-0.00046319467946887016
1783246493741412400,2.397412353515625,-0.00047691655345261097,-0.004020655527710915,-0.0003748498857021332
1783246493751423200,2.40742333984375,0.0005606510676443577,0.0002036506775766611,0.0012568691745400429
1783246493761435400,2.417435302734375,0.0006105517968535423,-0.0015470378566533327,-0.00011975644156336784
1783246493771447300,2.427447265625,0.001094448147341609,-0.002361964900046587,0.0004429696127772331
1783246493781458400,2.43745849609375,-0.0006579449400305748,-0.0021251249127089977,-0.0010225593578070402
1783246493791470300,2.44747021484375,0.0014757798053324223,-0.0013104642275720835,-0.0011583806481212378
1783246493801482500,2.457482421875,-0.0008242924232035875,-0.00039296853356063366,0.00003275182098150253
1783246493811493400,2.467493408203125,-0.0015151163097470999,-0.0005255937576293945,0.0011313054710626602
1783246493821505300,2.47750537109375,0.0006277037318795919,-0.0008110993076115847,-0.0011753917206078768
1783246493831516400,2.487516357421875,-0.0011174660176038742,-0.008726013824343681,-0.0038318950682878494
1783246493841528300,2.4975283203125,0.0006003545131534338,-0.0003699725493788719,-0.000015757977962493896
1783246493851540200,2.507540283203125,-0.00021643680520355701,-0.0035540477838367224,-0.0003068414516746998
1783246493861551400,2.51755126953125,0.0010884248185902834,-0.0009389978367835283,-0.0006147664971649647
1783246493871563500,2.5275634765625,0.0013920250348746777,-0.002961402293294668,0.0005013644695281982
1783246493881575400,2.537575439453125,-0.0016776430420577526,-0.002183909062296152,-0.0009508498478680849
1783246493891586300,2.54758642578125,-0.0028305253945291042,-0.001909337006509304,0.0000012302771210670471
1783246493901598500,2.557598388671875,-0.00034437840804457664,0.001772922812961042,-0.00027643563225865364
1783246493911610400,2.5676103515625,-0.0017460000235587358,-0.007519911043345928,-0.0026493119075894356
1783246493921621200,2.577621337890625,-0.0013702197466045618,-0.0029416284523904324,-0.0008563229348510504
1783246493931633400,2.58763330078125,-0.0003132109995931387,-0.0072588794864714146,-0.0024638071190565825
1783246493941645300,2.597645263671875,-0.00005245022475719452,-0.0030259655322879553,-0.00046922871842980385
1783246493951656400,2.607656494140625,0.0010639468673616648,-0.00535010639578104,-0.0026077469810843468
1783246493961668600,2.617668701171875,-0.001427709124982357,-0.005866581574082375,-0.003238047705963254
1783246493971679500,2.627679443359375,-0.0003446016926318407,-0.0013887425884604454,-0.0005645002238452435
1783246493981691400,2.63769140625,0.0006395368836820126,-0.004506031982600689,-0.0006661997176706791
1783246493991703600,2.64770361328125,0.00030744075775146484,-0.002947816625237465,-0.0017423832323402166
1783246494001714400,2.65771435546875,-0.000872128875926137,-0.003084934316575527,-0.0002440083771944046
1783246494011726300,2.667726318359375,0.0005891476757824421,-0.006083653774112463,-0.0007217796519398689
1783246494021738200,2.67773828125,0.0003385369200259447,-0.0022916418965905905,-0.0017960872501134872
1783246494031749400,2.687749267578125,-0.0015453831292688847,-0.0008431486785411835,0.00008650124073028564
1783246494041761300,2.69776123046875,0.00006412644870579243,0.00006256811320781708,-0.0010825635399669409
1783246494051773200,2.707773193359375,0.00032458361238241196,0.0003970612306147814,0.000026909634470939636
1783246494061784600,2.71778466796875,0.0005188856739550829,-0.001170952571555972,-0.00048357993364334106
1783246494071796500,2.72779638671875,0.0012395370285958052,-0.0002116819377988577,-0.0005783885717391968
1783246494081807400,2.737807373046875,-0.0006420514546334743,0.0012658510822802782,0.0005828510038554668
1783246494091819300,2.7478193359375,0.0002490419428795576,0.00210341508500278,0.0012409184128046036
1783246494101831400,2.75783154296875,-0.0015323834959417582,-0.0023375593591481447,-0.00271024857647717
1783246494111842300,2.76784228515625,0.0015757918590679765,-0.007828198373317719,-0.0034559336490929127
1783246494121854200,2.777854248046875,-0.0010448670946061611,-0.0054681915789842606,-0.000073207076638937
1783246494131866400,2.787866455078125,-0.001388415228575468,-0.005429575685411692,-0.0023177191615104675
1783246494141877500,2.79787744140625,0.0012773079797625542,-0.007162559777498245,-0.0016265192534774542
1783246494151889400,2.807889404296875,-0.00041220150887966156,-0.003549981629475951,-0.002082186285406351
1783246494161901600,2.817901611328125,-0.00113483308814466,-0.0009189017582684755,-0.0004521682858467102
1783246494171912400,2.827912353515625,0.0005711878184229136,-0.0013607200235128403,0.0011590439826250076
1783246494181924400,2.83792431640625,0.0003943003248423338,0.00011837529018521309,0.0012362911365926266
1783246494191936500,2.8479365234375,-0.0008382108062505722,0.004110720008611679,0.001644553616642952
1783246494201947400,2.857947509765625,-0.0005511252675205469,0.0018395762890577316,0.0009634313173592091
1783246494211959300,2.867959228515625,-0.0012028010096400976,-0.003392736427485943,-0.0005609621293842793
1783246494221970400,2.877970458984375,0.0012245823163539171,-0.00682966411113739,-0.0013807893265038729
1783246494231982600,2.887982666015625,0.0004645159933716059,-0.0074901282787323,-0.002750186715275049
1783246494241994500,2.897994384765625,-0.00016938033513724804,-0.00534030981361866,-0.0019634778145700693
1783246494252005400,2.90800537109375,-0.0002577973064035177,-0.010350514203310013,-0.001136033795773983
1783246494262017500,2.918017578125,-0.0007610891479998827,-0.011026302352547646,-0.003224781481549144
1783246494272029400,2.928029541015625,-0.0000809177290648222,-0.009289920330047607,-0.004015207756310701
1783246494282040300,2.938040283203125,-0.00008974806405603886,0.0010832345578819513,-0.0004961858503520489
1783246494292052500,2.948052490234375,-0.00001464691013097763,0.005147218704223633,0.0020631118677556515
1783246494302064400,2.958064453125,-0.0006051894742995501,-0.00394513551145792,-0.0018610942643135786
1783246494312075300,2.9680751953125,0.00009974930435419083,-0.020861800760030746,-0.006706183310598135
1783246494322087200,2.978087158203125,0.0008826670236885548,-0.03191451355814934,-0.009568210691213608
1783246494332098600,2.9880986328125,0.00005122809670865536,-0.03682032227516174,-0.01163296028971672
1783246494342110500,2.9981103515625,-0.001193223288282752,-0.030089886859059334,-0.00947276409715414
1783246494352122400,3.008122314453125,0.00022304593585431576,-0.007451953366398811,0.00003978097811341286
1783246494362133500,3.018133544921875,-0.0008960145059973001,0.011502296663820744,0.002957274205982685
1783246494372145400,3.0281455078125,-0.0006025342736393213,0.025607729330658913,0.008228468708693981
1783246494382157300,3.0381572265625,-0.0013545593246817589,0.03143691644072533,0.010814061388373375
1783246494392168200,3.048168212890625,-0.0017172819934785366,0.026929249987006187,0.007673927582800388
1783246494402180400,3.058180419921875,-0.005074101034551859,0.03200618550181389,0.008284627459943295
1783246494412192300,3.068192138671875,-0.22162024676799774,0.05507715046405792,0.02532033622264862
1783246494422203400,3.078203369140625,-0.41573044657707214,-0.0021719750948250294,0.006363298743963242
1783246494432215600,3.088215576171875,-0.48831090331077576,-0.03368329629302025,-0.003998261876404285
1783246494442226400,3.098226318359375,-0.5879880785942078,-0.02068961411714554,0.0017300546169281006
1783246494452238300,3.10823828125,-0.6232717633247375,-0.022190837189555168,0.003179879393428564
1783246494462250500,3.11825048828125,-0.6047651767730713,-0.029168525710701942,0.0014663306064903736
1783246494472261400,3.128261474609375,-0.5557073354721069,-0.018292974680662155,0.005837642587721348
1783246494482273300,3.138273193359375,-0.45361781120300293,-0.003159744432196021,0.012176292017102242
1783246494492285400,3.148285400390625,-0.25817933678627014,-0.006825585849583149,0.0034658913500607014
1783246494502296300,3.15829638671875,-0.0012478018179535866,0.002748155267909169,-0.001313724322244525
1783246494512308500,3.16830859375,0.00011973106302320957,0.0052153076976537704,0.0010093511082231998
1783246494522320400,3.1783203125,0.0004953157622367144,-0.004043753258883953,-0.0022781966254115105
1783246494532331500,3.18833154296875,0.0004572325851768255,0.00028494896832853556,0.0007383660413324833
1783246494542343400,3.198343505859375,0.0007438808679580688,-0.004057703539729118,-0.0016186882276088
1783246494552354300,3.208354248046875,0.0008053998462855816,0.0014092337805777788,0.0013691121712327003
1783246494562366500,3.218366455078125,0.0004189948085695505,-0.0030998424626886845,-0.0013850268442183733
1783246494572378400,3.22837841796875,0.00046000746078789234,0.0021505793556571007,0.0027934727258980274
1783246494582389200,3.23838916015625,0.0005695230793207884,0.002366588916629553,0.0017031915485858917
1783246494592401400,3.2484013671875,0.0002906902227550745,0.0040249391458928585,0.0017372798174619675
1783246494602413300,3.258413330078125,0.0010924290399998426,0.0022174748592078686,0.0011733495630323887
1783246494612424400,3.268424560546875,0.00031025870703160763,0.0015333087649196386,0.0023459396325051785
1783246494622436400,3.278436279296875,0.0002850973978638649,0.0032217297703027725,0.0007614977657794952
1783246494632448500,3.288448486328125,0.00027098273858428,0.00219082017429173,0.003430783748626709
1783246494642459400,3.29845947265625,0.000014647841453552246,0.002371139358729124,0.0005538985133171082
1783246494652471300,3.30847119140625,-0.0001059933565557003,0.001317859161645174,0.000057485420256853104
1783246494662483200,3.318483154296875,-0.0004203224088996649,-0.00021049240604043007,0.0003454410471022129
1783246494672494000,3.328494140625,-0.0011399085633456707,-0.0010027829557657242,-0.0007922612130641937
1783246494682506200,3.33850634765625,0.00026313657872378826,0.0013883711071684957,0.0006355764344334602
1783246494692517400,3.348517333984375,0.00027139228768646717,0.0006352291675284505,0.00013303803279995918
1783246494702529300,3.358529296875,-0.0009012541268020868,0.0005606201011687517,0.00011536572128534317
1783246494712541400,3.36854150390625,-0.000838936073705554,-0.00044472329318523407,0.0013888892717659473
1783246494722552300,3.37855224609375,0.0005178302526473999,0.00045215326827019453,0.00035277800634503365
1783246494732564200,3.388564208984375,0.0008336810860782862,0.0018540412420406938,0.001372769009321928
1783246494742576400,3.398576416015625,0.0003578693140298128,-0.00001401570625603199,0.0004311078228056431
1783246494752587300,3.408587158203125,-0.0007883554790169001,-0.0017501304391771555,-0.0002519930712878704
1783246494762599200,3.41859912109375,0.00015530595555901527,-0.001302866730839014,-0.0004976796917617321
1783246494772611300,3.428611328125,0.002746828133240342,-0.0030706727411597967,0.0009076702408492565
1783246494782622500,3.43862255859375,0.0016904635122045875,-0.00034537259489297867,-0.001986172515898943
1783246494792634400,3.44863427734375,-0.0007734932005405426,-0.0014662970788776875,-0.0011022693943232298
1783246494802645200,3.458645263671875,-0.0008122283034026623,-0.0005563504528254271,-0.00008125090971589088
1783246494812657400,3.468657470703125,-0.0007376600988209248,-0.00008443836122751236,0.0006372700445353985
1783246494822669300,3.47866943359375,0.0007455062586814165,0.00013426714576780796,-0.0001255297102034092
1783246494832680200,3.48868017578125,-0.0008947344031184912,0.0006940636085346341,-0.0013950588181614876
1783246494842692400,3.4986923828125,0.00028167874552309513,-0.0006200533825904131,-0.0002171061933040619
1783246494852704300,3.508704345703125,0.0007029909174889326,0.0008878284133970737,-0.000932963564991951
1783246494862715100,3.518715087890625,0.0004147496074438095,-0.0011179831344634295,0.0010069352574646473
1783246494872727300,3.528727294921875,0.0010307386983186007,-0.0005446046125143766,-0.00034355372190475464
1783246494882739200,3.5387392578125,0.0008401162922382355,-0.0003826569300144911,0.0015177484601736069
1783246494892750300,3.548750244140625,0.0009048311039805412,-0.0012963875196874142,-0.000002916436642408371
1783246494902762200,3.55876220703125,0.0004733828827738762,-0.0008212148677557707,0.00031568482518196106
1783246494912774400,3.5687744140625,0.0004805736243724823,-0.0005493061617016792,0.00029437942430377007
1783246494922785300,3.578785400390625,0.00020681647583842278,-0.0030412906780838966,-0.0007936088368296623
1783246494932797200,3.588797119140625,0.00011014379560947418,-0.0032942909747362137,-0.0019691281486302614
1783246494942808300,3.598808349609375,0.00012495438568294048,0.020672176033258438,0.009186729788780212
1783246494952820200,3.6088203125,0.001919924863614142,-0.016402754932641983,-0.006941639818251133
1783246494962832100,3.61883203125,-0.00004749605432152748,0.01293813344091177,0.004603662062436342
1783246494972843300,3.62884326171875,0.00008353148587048054,-0.009027885273098946,-0.004314998164772987
1783246494982855400,3.63885546875,-0.0008220060262829065,0.005467684473842382,0.0031557553447782993
1783246494992867300,3.648867431640625,0.0006166333332657814,-0.006207880564033985,-0.0014315396547317505
1783246495002878200,3.658878173828125,-0.0008491268381476402,0.004090921021997929,0.0012133494019508362
1783246495012890400,3.668890380859375,0.0006254655309021473,-0.0033582067117094994,0.0005174651741981506
1783246495022902300,3.67890234375,0.0005933879874646664,0.0024378416128456593,0.0001312694512307644
1783246495032913200,3.6889130859375,0.00004344526678323746,-0.0013161501847207546,-0.0008647525683045387
1783246495042925300,3.69892529296875,-0.00027808547019958496,0.0023324640933424234,0.0002053622156381607
1783246495052936200,3.708936279296875,0.0009746653959155083,-0.0005203140899538994,-0.0010758843272924423
1783246495062948400,3.7189482421875,0.0015626399544999003,0.0025907312519848347,0.0009151664562523365
1783246495072960300,3.728960205078125,0.00016288249753415585,-0.0008628559298813343,0.0003407225012779236
1783246495082971400,3.738971435546875,0.001029450912028551,-0.0006835295353084803,0.0018483339808881283
1783246495092983300,3.7489833984375,-0.0005460751708596945,-0.0011399954091757536,-0.00021614879369735718
1783246495102995500,3.758995361328125,-0.00044070114381611347,0.0014486797153949738,0.000578062143176794
1783246495113006300,3.76900634765625,-0.00022232183255255222,-0.0005558815319091082,-0.0003021126613020897
1783246495123018200,3.779018310546875,-0.000040849437937140465,0.0019007062073796988,0.001604925375431776
1783246495133030100,3.789030029296875,0.00038392492569983006,-0.0005541956052184105,0.0010110405273735523
1783246495143041300,3.799041259765625,-0.00025485618971288204,-0.0004800718743354082,-0.0002707904204726219
1783246495153053200,3.80905322265625,0.0002165231853723526,-0.0001397200394421816,0.000037869904190301895
1783246495163064300,3.819064208984375,0.00045554758980870247,0.00013216410297900438,0.0007080570794641972
1783246495173076500,3.829076416015625,-0.00012688571587204933,-0.0014540145639330149,-0.0011255291756242514
1783246495183088400,3.83908837890625,0.00005884002894163132,-0.0001854316797107458,0.00019445782527327538
1783246495193099300,3.849099365234375,0.0015800376422703266,-0.0009486936032772064,0.0011675767600536346
1783246495203111200,3.859111083984375,0.0013388828374445438,-0.00008633779361844063,-0.00021527428179979324
1783246495213123300,3.869123291015625,0.0010595170315355062,-0.0011284328065812588,-0.00015455391258001328
1783246495223134200,3.87913427734375,-0.00025268178433179855,0.00017196033149957657,-0.00180866289883852
1783246495233146000,3.88914599609375,-0.0006550855468958616,0.0002875415375456214,0.00012106355279684067
1783246495243158300,3.899158203125,0.0001289325300604105,-0.00039949011988937855,0.00033739814534783363
1783246495253169400,3.90916943359375,0.0009920632001012564,-0.0005989610217511654,-0.001234932104125619
1783246495263181300,3.919181396484375,-0.00007175002247095108,0.0006466548657044768,0.00011346349492669106
1783246495273192200,3.929192138671875,0.00012132897973060608,0.00024052278604358435,0.0014133527874946594
1783246495283204400,3.939204345703125,-0.0006331007461994886,0.00024247856345027685,0.0005782898515462875
1783246495293216300,3.94921630859375,0.0002382853999733925,0.00024700595531612635,0.00039426563307642937
1783246495303227100,3.95922705078125,0.0012721708044409752,-0.0010611177422106266,0.0010902401991188526
1783246495313239300,3.9692392578125,-0.00031906808726489544,-0.0008768269326537848,0.0005176607519388199
1783246495323251200,3.979251220703125,-0.00018233037553727627,-0.0004895655438303947,0.000829875934869051
1783246495333262000,3.989261962890625,0.0005849264562129974,-0.000008065951988101006,0.0012653027661144733
1783246495343274200,3.999274169921875,0.00015729013830423355,0.00009552598930895329,-0.00011517200618982315
1783246495353286100,4.0092861328125,0.0012787473388016224,-0.000737776979804039,-0.00020811613649129868
1783246495363297300,4.01929736328125,-0.0010623259004205465,-0.000005320413038134575,0.0004938407801091671
1783246495373309400,4.029309326171875,-0.0010410204995423555,0.0006436919793486595,0.0022571198642253876
1783246495383320300,4.0393203125,0.0001883737277239561,-0.0015654494054615498,-0.00010604644194245338
1783246495393332200,4.049332275390625,0.001017948379740119,0.0009307314176112413,0.00018849922344088554
1783246495403344400,4.059344482421875,0.0004989495500922203,0.001066612428985536,0.0008054827339947224
1783246495413355300,4.069355224609375,0.0005423591937869787,0.0004897718317806721,0.0004909634590148926
1783246495423367200,4.0793671875,0.0003523970954120159,-0.0009951575193554163,0.000731323380023241
1783246495433379000,4.089379150390625,0.0006980753969401121,0.0002453429624438286,0.0013198819942772388
1783246495443390500,4.099390380859375,-0.00036181951873004436,0.00035302608739584684,0.00025445595383644104
1783246495453402400,4.10940234375,-0.00036634691059589386,-0.0013527285773307085,-0.00017111748456954956
1783246495463414300,4.119414306640625,0.0005491962656378746,-0.00030323630198836327,0.001340031623840332
1783246495473425400,4.12942529296875,-0.00012458348646759987,-0.00047927116975188255,-0.0009753208141773939
1783246495483437300,4.139437255859375,0.00010016304440796375,-0.0003247091080993414,-0.0006482820026576519
1783246495493449200,4.14944921875,0.000057019758969545364,0.0002619853476062417,0.0006462805904448032
1783246495503460000,4.159460205078125,-0.0004304016474634409,0.001498210011050105,-0.00022078817710280418
1783246495513472300,4.16947216796875,0.00029690773226320744,-0.0009327235165983438,-0.000264996662735939
1783246495523483400,4.1794833984375,0.0007715122774243355,0.0004679547855630517,-0.00019177980720996857
1783246495533495300,4.189495361328125,0.0013779141008853912,-0.001890007872134447,0.00036109238862991333
1783246495543507500,4.199507568359375,-0.0008150271605700254,-0.0009861604776233435,0.0007018600590527058
1783246495553518300,4.209518310546875,-0.00047307717613875866,0.0017188122728839517,0.0009751003235578537
1783246495563530200,4.2195302734375,0.0014473841292783618,0.00044614216312766075,-0.0017757951281964779
1783246495573542400,4.22954248046875,0.0003578849136829376,-0.0007171265315264463,0.0004988107830286026
1783246495583553300,4.23955322265625,0.0007243999280035496,-0.0003132002893835306,-0.00009666383266448975
1783246495593565200,4.249565185546875,-0.0008548544719815254,0.0005499301478266716,0.0001523415558040142
1783246495603576000,4.259576171875,-0.000047727255150675774,-0.0010868881363421679,-0.0004546213895082474
1783246495613588200,4.269588134765625,-0.00004666205495595932,-0.0010432121343910694,0.0004908009432256222
1783246495623600000,4.27960009765625,-0.00016588298603892326,0.0005938003305345774,0.0006473488174378872
1783246495633611300,4.289611328125,-0.0006915912963449955,0.00017195555847138166,-0.0006301696412265301
1783246495643623400,4.29962353515625,-0.00025210133753716946,0.0015209888806566596,0.0009100101888179779
1783246495653635300,4.30963525390625,-0.0006720819510519505,-0.0005506840534508228,0.00022211577743291855
1783246495663646200,4.319646240234375,0.000829117139801383,-0.00024891505017876625,-0.0001329844817519188
1783246495673658400,4.329658447265625,-0.0005727708339691162,0.0008544324664399028,0.00040284357964992523
1783246495683670300,4.339670166015625,0.0014730301918461919,0.0005766759859398007,0.0008616833947598934
1783246495693681200,4.34968115234375,0.002645886270329356,-0.00022893026471138,-0.00011516408994793892
1783246495703693300,4.359693359375,-0.0006885943002998829,0.00041395821608603,0.00018928712233901024
1783246495713705200,4.369705322265625,0.00023206043988466263,-0.0011264141649007797,0.000576244667172432
1783246495723716400,4.37971630859375,0.0013645733706653118,-0.00028341077268123627,-0.000476958230137825
1783246495733728500,4.389728515625,0.00022340891882777214,0.00025854248087853193,-0.0008492681663483381
1783246495743739400,4.399739501953125,0.0009198393672704697,0.0000511042308062315,-0.0000736829824745655
1783246495753751300,4.409751220703125,0.0007896106690168381,-0.0003505004569888115,-0.000057437457144260406
1783246495763763500,4.419763427734375,0.000007878290489315987,0.0006048339419066906,-0.0008916803635656834
1783246495773774300,4.4297744140625,0.001591393956914544,-0.00020130490884184837,0.0013802624307572842
1783246495783786200,4.4397861328125,0.0001666187308728695,0.0014623913448303938,0.0007671890780329704
1783246495793798100,4.449798095703125,0.0018747702706605196,0.001320711220614612,-0.0006927556823939085
1783246495803809300,4.459809326171875,0.0009477618150413036,0.0001030932180583477,0.0006716977804899216
1783246495813821400,4.469821533203125,0.0011621462181210518,-0.0012340799439698458,0.000046920496970415115
1783246495823833300,4.479833251953125,0.0004154311027377844,-0.0005218095611780882,0.0002608359791338444
1783246495833844500,4.489844482421875,0.000679616816341877,0.00032747257500886917,-0.000004681292921304703
1783246495843856400,4.4998564453125,-0.000905059278011322,0.0008136145770549774,-0.00027555832639336586
1783246495853867300,4.5098671875,-0.00048694293946027756,0.000776596600189805,-0.0004207007586956024
1783246495863879200,4.519879150390625,-0.0006727802101522684,0.00025680719409137964,0.0004466194659471512
1783246495873891300,4.529891357421875,-0.00026105553843081,-0.00024280184879899025,0.0007454263977706432
1783246495883902200,4.539902099609375,0.0010209823958575726,0.0007111744489520788,0.0010923459194600582
1783246495893914000,4.5499140625,0.0002888792660087347,0.0009114440763369203,-0.00004402501508593559
1783246495903926300,4.55992626953125,-0.001176177291199565,-0.001191980205476284,-0.0007819158490747213
1783246495913937400,4.5699375,0.0011072170455008745,-0.00013204198330640793,-0.00015820330008864403
1783246495923949300,4.57994921875,-0.0008017611689865589,0.00011786213144659996,-0.0006016166880726814
1783246495933960400,4.58996044921875,0.001232627546414733,-0.00010344642214477062,-0.00028629833832383156
1783246495943972400,4.599972412109375,0.0014544656733050942,0.0003879200667142868,0.0011209920048713684
1783246495953984300,4.609984375,0.00001369556412100792,-0.0005628284998238087,-0.0005408204160630703
1783246495963995100,4.6199951171875,0.000005649402737617493,0.00018627941608428955,-0.0005598203279078007
1783246495974007300,4.63000732421875,-0.002164826961234212,0.00047017226461321115,0.000852453988045454
1783246495984019200,4.640019287109375,0.0004730941727757454,-0.0009972034022212029,-0.0010740614961832762
1783246495994030300,4.6500302734375,0.00029519503004848957,0.0008395788026973605,0.0016077416948974133
1783246496004042500,4.66004248046875,-0.0004503109958022833,0.0010535098845139146,0.0004602354019880295
1783246496014054400,4.670054443359375,0.00018858141265809536,0.001039661467075348,0.0007382696494460106
1783246496024065300,4.680065185546875,-0.0006826936732977629,0.0005356124602258205,0.0017203902825713158
1783246496034077400,4.690077392578125,0.0019245411967858672,0.001250937581062317,-0.0010045559611171484
1783246496044089300,4.70008935546875,-0.00002093031071126461,0.0011059289099648595,-0.0007766715716570616
1783246496054100200,4.710100341796875,0.0008073127828538418,-0.000847233459353447,0.00012001488357782364
1783246496064112400,4.7201123046875,-0.0003291885368525982,-0.00034364406019449234,-0.0018161633051931858
1783246496074123300,4.730123291015625,0.0011288919486105442,-0.0002648145891726017,0.0017772400751709938
1783246496084135200,4.74013525390625,0.000028422102332115173,0.00023952859919518232,0.000542935449630022
1783246496094147300,4.750147216796875,-0.0006405638996511698,-0.0009660844225436449,-0.0006733299233019352
1783246496104158500,4.760158447265625,0.0001499380450695753,0.000830449047498405,0.00013647275045514107
1783246496114170400,4.77017041015625,0.0002572634257376194,0.0007124710828065872,0.0007005301304161549
1783246496124182300,4.780182373046875,0.0003483113832771778,0.0012974287383258343,0.00003730831667780876
1783246496134193400,4.790193359375,0.000010089948773384094,0.0009853062219917774,0.00023970846086740494
1783246496144205300,4.800205322265625,0.0004857222083956003,0.00009184912778437138,0.0004638596437871456
1783246496154217200,4.81021728515625,0.0007967792917042971,0.00010569766163825989,-0.0009164568036794662
1783246496164228000,4.82022802734375,0.00032816315069794655,-0.00007020309567451477,-0.00010585412383079529
1783246496174240300,4.830240234375,0.0013263160362839699,0.00002939905971288681,0.0014771288260817528
1783246496184251400,4.84025146484375,-0.001450816635042429,-0.0005030147731304169,0.0014078957028687
1783246496194263300,4.85026318359375,0.000514329643920064,-0.0014689431991428137,0.0012819282710552216
1783246496204275500,4.860275390625,0.0022069558035582304,-0.000025992514565587044,0.00025142915546894073
1783246496214286300,4.870286376953125,0.0005565949250012636,0.0010616424260661006,0.0006908504292368889
1783246496224298200,4.88029833984375,0.001100113382562995,0.0014143749140203,-0.0015303152613341808
1783246496234310400,4.890310302734375,-0.00019391649402678013,-0.00029484182596206665,0.0009762519039213657
1783246496244321300,4.9003212890625,0.0007580688688904047,0.0004903713706880808,-0.0005279392935335636
1783246496254333200,4.910333251953125,0.00009201210923492908,0.0005305850645527244,-0.00006907666102051735
1783246496264345300,4.920345458984375,-0.0008139873389154673,0.000670634675770998,-0.0006873735692352057
1783246496274356500,4.9303564453125,0.00018629594705998898,-0.000007139751687645912,0.0009549977257847786
1783246496284368400,4.940368408203125,-0.000018346356227993965,0.0005469766911119223,-0.0002412409521639347
1783246496294379300,4.950379150390625,-0.00046975212171673775,0.0005152850644662976,-0.0006300625391304493
1783246496304391400,4.960391357421875,0.0005607882048934698,0.0020448854193091393,0.00014505954459309578
1783246496314403300,4.9704033203125,0.00011257803998887539,-0.00003291270695626736,-0.0006456330884248018
1783246496324414200,4.980414306640625,0.00029402622021734715,0.0002564924070611596,0.0009996164590120316
1783246496334426400,4.99042626953125,-0.000035673147067427635,0.0004937801277264953,0.00083902757614851
1783246496344438300,5.000438232421875,-0.00029580388218164444,0.0009140531765297055,-0.0005745613016188145
1783246496354449200,5.01044921875,0.00003789016045629978,0.00047383271157741547,0.0018489151261746883
1783246496364461300,5.02046142578125,0.001077152555808425,0.0005783874075859785,0.0013769296929240227
1783246496374473200,5.03047314453125,0.0000070945825427770615,0.0009136793669313192,-0.0006380176637321711
1783246496384484400,5.040484375,-0.00028251763433218,-0.0012522037141025066,0.0006137392483651638
1783246496394496300,5.050496337890625,0.000353711424395442,0.0012410476338118315,-0.0005950694903731346
1783246496404507400,5.06050732421875,0.00013125501573085785,0.00032157497480511665,0.000592745840549469
1783246496414519300,5.070519287109375,0.0005882536061108112,0.00009866827167570591,0.0005725054070353508
1783246496424531200,5.08053125,0.0007514972239732742,-0.000736491521820426,0.00024445028975605965
1783246496434542300,5.090542236328125,0.0006545581854879856,-0.0005732395220547915,-0.0011901946272701025
1783246496444554200,5.10055419921875,0.0013162578688934445,0.0006315875798463821,-0.0008567152544856071
1783246496454566100,5.110566162109375,-0.000984180485829711,0.0010840586619451642,0.0007406487129628658
1783246496464577500,5.12057763671875,-0.0015754036139696836,-0.00012683775275945663,-0.00012239906936883926
1783246496474589400,5.13058935546875,0.0019287836039438844,0.0005810303846374154,0.0013910755515098572
1783246496484601300,5.140601318359375,0.0003039487637579441,-0.0006873076781630516,-0.0005489070899784565
1783246496494612200,5.1506123046875,-0.00024093384854495525,0.0005681063048541546,-0.0007257407996803522
1783246496504624400,5.160624267578125,0.00044944952242076397,0.0016857866430655122,-0.001305734971538186
1783246496514635300,5.17063525390625,-0.0014139644335955381,0.0004729831125587225,-0.0006471353117376566
1783246496524647200,5.180647216796875,-0.00008422299288213253,-0.0008663935586810112,0.0005672462284564972
1783246496534659300,5.190659423828125,-0.000626708846539259,-0.00016704737208783627,-0.0012974990531802177
1783246496544670500,5.20067041015625,-0.000060620950534939766,0.0011595687828958035,-0.00027268286794424057
1783246496554682400,5.210682373046875,0.000415019690990448,0.0009728812146931887,-0.0009690995793789625
1783246496564694500,5.220694580078125,-0.0009330539032816887,0.0009725064737722278,0.001463885884732008
1783246496574705400,5.230705322265625,0.0011359562631696463,0.0002806171542033553,0.001171204261481762
1783246496584717300,5.24071728515625,-0.00041444553062319756,0.0005666643846780062,0.0005973381921648979
1783246496594729500,5.2507294921875,0.0007602749392390251,-0.000591278076171875,0.0018125385977327824
1783246496604740400,5.260740234375,0.0005423228722065687,-0.00012840493582189083,0.0016051717102527618
1783246496614752300,5.270752197265625,0.00015669711865484715,-0.0001835324801504612,0.00018357625231146812
1783246496624763100,5.28076318359375,0.000008990755304694176,0.0005509085021913052,-0.000675656134262681
1783246496634775300,5.290775390625,-0.0005681163165718317,-0.00006747746374458075,0.001056463923305273
1783246496644787200,5.300787109375,0.0004295592661947012,0.0002134012756869197,0.00014622695744037628
1783246496654798300,5.31079833984375,-0.0003121308982372284,-0.00046197627671062946,-0.001017840811982751
1783246496664810500,5.320810546875,-0.0002692616544663906,0.00003256159834563732,-0.00010337959975004196
1783246496674822400,5.330822509765625,-0.0007824527565389872,-0.0011810410069301724,0.0005227294750511646
1783246496684833300,5.340833251953125,-0.0013140412047505379,0.000005654757842421532,0.0010502398945391178
1783246496694845400,5.350845458984375,0.0005246051587164402,-0.0003211152506992221,-0.00031383149325847626
1783246496704856300,5.360856201171875,-0.0007953217718750238,0.00021726929116994143,0.0005968227051198483
1783246496714868200,5.3708681640625,0.0009445212781429291,-0.0004048449918627739,-0.0012439542915672064
1783246496724880100,5.380880126953125,-0.00037709600292146206,-0.0009713313775137067,-0.0014403201639652252
1783246496734891500,5.3908916015625,-0.00046231714077293873,0.00015704985707998276,-0.0007713341619819403
1783246496744903400,5.4009033203125,0.001369999721646309,-0.001377165550366044,-0.00077281822450459
1783246496754915300,5.410915283203125,0.0013010238762944937,-0.00045651081018149853,0.0007467814721167088
1783246496764926500,5.420926513671875,-0.0005891772452741861,0.001840601791627705,-0.0008647127542644739
1783246496774938400,5.4309384765625,-0.001769223716109991,-0.0010188341839239001,0.0013481075875461102
1783246496784950300,5.4409501953125,-0.00017761788330972195,-0.00006062013562768698,0.0016950787976384163
1783246496794961200,5.450961181640625,0.0010370498057454824,-0.00044038682244718075,0.000447654165327549
1783246496804973300,5.460973388671875,-0.00038925185799598694,0.0001751293893903494,0.00023680506274104118
1783246496814984400,5.470984375,0.0011149016208946705,-0.0009383381111547351,0.0001087072305381298
1783246496824996400,5.480996337890625,-0.001115431310608983,-0.00003648200072348118,0.0000696093775331974
1783246496835008300,5.49100830078125,0.0009578394237905741,0.0006053397664800286,-0.0009463867172598839
1783246496845019400,5.501019287109375,-0.0015580852050334215,-0.0006210037972778082,0.0003975303843617439
1783246496855031300,5.51103125,0.0011282453779131174,0.0006722273537889123,0.000441206619143486
1783246496865043500,5.52104345703125,-0.0005075256340205669,0.0016183016123250127,0.0015299199149012566
1783246496875054300,5.531054443359375,-0.002196768531575799,0.00003238918725401163,0.0007285745814442635
1783246496885066200,5.541066162109375,-0.000661166850477457,-0.0000850051874294877,-0.0011660519521683455
1783246496895078400,5.551078369140625,-0.00007926602847874165,0.0006196672329679132,0.0007546199485659599
1783246496905089300,5.56108935546875,0.00017869146540760994,0.0006987926317378879,0.0006617354229092598
1783246496915101200,5.57110107421875,0.0008375574834644794,-0.0006828553741797805,-0.0005217734724283218
1783246496925112300,5.5811123046875,0.0005462625995278358,-0.0011272146366536617,0.0013430751860141754
1783246496935124500,5.59112451171875,-0.000670003006234765,-0.0018907429184764624,0.000008299015462398529
1783246496945136400,5.601136474609375,-0.00033512874506413937,-0.0013311225920915604,-0.0001538572832942009
1783246496955147300,5.611147216796875,0.00011361390352249146,0.0004707722691819072,0.001211545430123806
1783246496965159400,5.621159423828125,-0.001128028379753232,0.00004018412437289953,-0.0005885576829314232
1783246496975171300,5.63117138671875,0.00006773089990019798,0.0009243536042049527,0.000056992750614881516
1783246496985182200,5.64118212890625,0.00007984042167663574,-0.00107304856646806,0.000425524078309536
1783246496995194400,5.6511943359375,0.0011666764039546251,-0.00022243487183004618,0.0009416448883712292
1783246497005206300,5.661206298828125,-0.0008530952036380768,-0.0004540929803624749,0.0014305501244962215
1783246497015217400,5.671217529296875,-0.00031300587579607964,-0.001485801418311894,-0.000558831263333559
1783246497025229300,5.681229248046875,0.0004957308992743492,-0.00035307486541569233,0.0008156937547028065
1783246497035240400,5.691240478515625,-0.00021773017942905426,0.0009635919705033302,-0.0005055004730820656
1783246497045252400,5.70125244140625,-0.0013540659565478563,-0.00015251326840370893,-0.0002171364612877369
1783246497055264300,5.71126416015625,-0.0005913365166634321,-0.0002965902676805854,-0.0010704132728278637
1783246497065275400,5.721275390625,-0.0010470752604305744,-0.0019785913173109293,0.0004051811993122101
1783246497075287300,5.731287353515625,-0.0007005978841334581,0.000057395314797759056,-0.00010934146121144295
1783246497085299200,5.74129931640625,0.0001464453525841236,-0.00036667007952928543,0.0007026437669992447
1783246497095310300,5.751310302734375,0.001712117693386972,-0.000770405400544405,0.0007095681503415108
1783246497105322200,5.761322265625,-0.0005725549999624491,-0.0003104530042037368,-0.0006313489284366369
1783246497115334400,5.77133447265625,-0.0006623035296797752,-0.00002522848080843687,0.00041234400123357773
1783246497125345300,5.78134521484375,0.0003716149367392063,-0.0011255521094426513,0.0009472975507378578
1783246497135357400,5.791357421875,-0.0008494446519762278,-0.00027467228937894106,0.00024688616394996643
1783246497145368300,5.801368408203125,0.0005591763183474541,-0.00027403165586292744,0.0005151079967617989
1783246497155380200,5.811380126953125,0.00040924036875367165,0.000599218881689012,-0.000314466655254364
1783246497165392400,5.821392333984375,-0.0005673689302057028,-0.0010736847762018442,0.0009914343245327473
1783246497175403300,5.8314033203125,-0.0006264911498874426,-0.0008513107895851135,0.0018284660764038563
1783246497185415200,5.841415283203125,0.0008083998691290617,-0.00028937961906194687,0.0014143716543912888
1783246497195427300,5.85142724609375,0.0004043984226882458,-0.0003463712055236101,0.00030756182968616486
1783246497205438500,5.8614384765625,-0.0005864240229129791,-0.00012746918946504593,-0.0002883821725845337
1783246497215450400,5.871450439453125,-0.0008753770962357521,-0.0004262758884578943,-0.0006087603978812695
1783246497225461200,5.881461181640625,-0.00043496815487742424,0.0010661559645086527,-0.0011038226075470448
1783246497235473400,5.891473388671875,0.000701935263350606,-0.0010736940894275904,-0.00007557636126875877
1783246497245485300,5.9014853515625,0.00023606396280229092,-0.0016671286430209875,0.0008598105050623417
1783246497255496200,5.91149609375,-0.0004313243553042412,0.0002527441829442978,0.00034528737887740135
1783246497265508400,5.92150830078125,0.00004889327101409435,0.000877157028298825,0.000700854230672121
1783246497275520300,5.931520263671875,0.00010854820720851421,-0.0020243567414581776,-0.001043250085785985
1783246497285531400,5.941531494140625,-0.000797562999650836,-0.00028148689307272434,-0.0007164203561842442
1783246497295543600,5.95154345703125,-0.0004476236645132303,0.0006415647221729159,-0.0015388044994324446
1783246497305555500,5.961555419921875,-0.00002850010059773922,0.0001945525873452425,0.001027984544634819
1783246497315566300,5.97156640625,-0.00021225819364190102,-0.00047549873124808073,0.0003161216154694557
1783246497325578200,5.981578125,-0.0005615220870822668,-0.001262847101315856,-0.0006788088940083981
1783246497335589400,5.99158935546875,-0.00048109469935297966,0.000490045640617609,-0.00010223453864455223
1783246497345601300,6.001601318359375,-0.0012526328209787607,-0.0010103659005835652,0.0005183718167245388
1783246497355613200,6.01161328125,-0.000737577211111784,0.00011881440877914429,0.0011127893812954426
1783246497365624300,6.021624267578125,-0.00039889058098196983,-0.0009167871903628111,0.00000715767964720726
1783246497375636200,6.03163623046875,-0.0012076927814632654,0.0005149282515048981,0.0006263428367674351
1783246497385648000,6.041648193359375,-0.0003464282490313053,0.00029446964617818594,-0.0007816522847861052
1783246497395659300,6.0516591796875,-0.0002995566464960575,-0.00005200761370360851,-0.00012624822556972504
1783246497405671400,6.06167138671875,0.000643542967736721,-0.0002277386374771595,0.0001525632105767727
1783246497415683300,6.071683349609375,-0.00034901732578873634,-0.00004584470298141241,0.0014692298136651516
1783246497425694200,6.081694091796875,-0.0007418997120112181,-0.0002541708527132869,0.0014029317535459995
1783246497435706400,6.091706298828125,0.0003510615788400173,0.0003293277695775032,0.0008995942771434784
1783246497445717200,6.10171728515625,0.000593091594055295,0.001201849663630128,-0.00022076396271586418
1783246497455729200,6.111729248046875,0.0006825737655162811,-0.001230947906151414,-0.00012595532462000847
1783246497465741300,6.1217412109375,-0.0009881183505058289,0.0004565682029351592,0.000574884470552206
1783246497475752400,6.13175244140625,-0.0006557556334882975,-0.0014750226400792599,0.0009269546717405319
1783246497485764400,6.141764404296875,-0.0005178966093808413,-0.0005140494322404265,-0.0001066066324710846
1783246497495776500,6.151776611328125,0.0006152782589197159,-0.0014141978463158011,-0.0002645319327712059
1783246497505787400,6.161787353515625,-0.000024280976504087448,-0.001941702445037663,0.00019573280587792397
1783246497515799300,6.17179931640625,-0.00026103598065674305,-0.0012061373563483357,-0.0004737861454486847
1783246497525810200,6.18181005859375,0.0004276484251022339,0.00048276607412844896,-0.0014068647287786007
1783246497535822300,6.191822265625,0.00042045791633427143,0.0005091313505545259,-0.0006633100565522909
1783246497545834200,6.201834228515625,0.00018332595936954021,-0.000452390406280756,0.0003939056769013405
1783246497555845400,6.211845458984375,0.00004404271021485329,-0.0000057782744988799095,0.0010575652122497559
1783246497565857500,6.221857421875,0.0005845201667398214,-0.0005586296319961548,0.0002872217446565628
1783246497575869400,6.231869384765625,-0.0009856794495135546,-0.00002706260420382023,0.0007628621533513069
1783246497585880300,6.24188037109375,-0.00031216349452733994,-0.0016370562370866537,0.00040723010897636414
1783246497595892500,6.251892578125,-0.00026848772540688515,-0.0007733930833637714,0.0011084405705332756
1783246497605904400,6.261904296875,-0.00010694796219468117,-0.00003612728323787451,-0.00017218338325619698
1783246497615915300,6.271915283203125,-0.0009703447576612234,0.00006693694740533829,-0.001109616132453084
1783246497625927200,6.28192724609375,0.0006665149703621864,-0.0010931394062936306,-0.00011687260121107101
1783246497635938300,6.291938232421875,-0.00017451122403144836,0.0003905077464878559,-0.000694778747856617
1783246497645950200,6.3019501953125,0.00019818171858787537,0.0006110499380156398,0.000536926556378603
1783246497655962000,6.311962158203125,0.0013768967473879457,-0.0010041572386398911,0.00034597795456647873
1783246497665973200,6.32197314453125,0.00061030313372612,0.0003721837420016527,-0.001210154965519905
1783246497675985400,6.3319853515625,-0.00017692730762064457,-0.001750888186506927,-0.0010149453300982714
1783246497685997300,6.341997314453125,0.0007279850542545319,0.0005777212791144848,-0.000303417444229126
1783246497696008200,6.35200830078125,0.00029974873177707195,-0.0003661029040813446,0.0006774244830012321
1783246497706020400,6.362020263671875,-0.0021845060400664806,-0.00047993240877985954,0.000558758620172739
1783246497716031200,6.37203125,-0.000529351644217968,0.0005227478686720133,-0.0007262164726853371
1783246497726043100,6.382043212890625,0.00018709059804677963,-0.000685548409819603,-0.00028119562193751335
1783246497736055300,6.39205517578125,-0.00020998669788241386,-0.00036303955130279064,0.000458364374935627
1783246497746066400,6.40206640625,0.000023737549781799316,-0.0005417610518634319,0.0010259184055030346
1783246497756078300,6.412078369140625,0.0012764886487275362,-0.00027038506232202053,0.0011646691709756851
1783246497766090500,6.422090576171875,0.0000037567224353551865,-0.00041272316593676805,0.0006475606933236122
1783246497776101400,6.432101318359375,-0.000984009588137269,0.000527639058418572,-0.00016576843336224556
1783246497786113300,6.44211328125,-0.0015535354614257812,-0.0009304701816290617,0.0011093677021563053
1783246497796125200,6.452125244140625,0.0012126900255680084,-0.0006423161830753088,-0.00044511957094073296
1783246497806136300,6.46213623046875,-0.0006839074194431305,0.0010956914629787207,0.001003696583211422
1783246497816148200,6.472148193359375,-0.0005986860487610102,0.00020299979951232672,-0.00007088901475071907
1783246497826159400,6.482159423828125,-0.00036271591670811176,-0.0007668458856642246,-0.00044956011697649956
1783246497836171300,6.492171142578125,0.0001408879179507494,-0.00003101443871855736,0.0004583112895488739
1783246497846183400,6.502183349609375,0.0001761983148753643,-0.0012991715921089053,0.000609145499765873
1783246497856194300,6.5121943359375,-0.0008443249389529228,-0.000980391283519566,-0.00009685847908258438
1783246497866206200,6.522206298828125,-0.0003775875084102154,-0.0010411273688077927,0.0003529186360538006
1783246497876218400,6.53221826171875,0.001028028898872435,-0.002359924605116248,-0.00026706513017416
1783246497886229200,6.542229248046875,-0.00008510565385222435,0.0015122572658583522,0.00037504546344280243
1783246497896241200,6.5522412109375,0.00039133382961153984,0.007061485666781664,0.002630742732435465
1783246497906252300,6.562252197265625,-0.0010106826666742563,0.010646393522620201,0.006515564862638712
1783246497916264200,6.57226416015625,-0.000490034930408001,0.0012201350182294846,0.0009599444456398487
1783246497926276000,6.582276123046875,0.0010756880510598421,0.006279342342168093,0.003526086453348398
1783246497936287200,6.592287353515625,-0.00041728001087903976,0.005634324625134468,0.0029974491335451603
1783246497946299400,6.60229931640625,0.00032488699071109295,0.0034602731466293335,0.0019131926819682121
1783246497956311300,6.612311279296875,-0.0012064306065440178,0.0017137720715254545,0.0010540569201111794
1783246497966322200,6.622322265625,0.00010489649139344692,-0.0009727558353915811,-0.0011095060035586357
1783246497976334300,6.632334228515625,-0.0003363892901688814,-0.0035339179448783398,-0.0012780842371284962
1783246497986346200,6.64234619140625,0.0006843390874564648,-0.006865763571113348,-0.001923976931720972
1783246497996357000,6.652357177734375,-0.00029836734756827354,-0.004888099618256092,-0.0023127985186874866
1783246498006369300,6.662369384765625,-0.0013173851184546947,-0.009035827592015266,-0.004932410549372435
1783246498016380400,6.67238037109375,0.001017408212646842,-0.008838753215968609,-0.004629076924175024
1783246498026392300,6.682392333984375,0.00010456633754074574,-0.0037723309360444546,-0.0016559092327952385
