time,seconds_elapsed,z,y,x
1783246381755774200,0.060774169921875,-0.0012585390359163284,-0.004617580212652683,-0.0007433085702359676
1783246381765786000,0.0707861328125,0.000048540299758315086,0.0020057016517966986,-0.00014489609748125076
1783246381775797200,0.08079736328125,0.0010093527380377054,0.0006660301005467772,-0.0008978953119367361
1783246381785809200,0.09080908203125,0.00027192337438464165,-0.000014141201972961426,0.000044597312808036804
1783246381795821300,0.1008212890625,-0.0006591032724827528,0.00235305936075747,-0.0008057723753154278
1783246381805832200,0.110832275390625,0.00026661157608032227,-0.00030024792067706585,-0.001502455212175846
1783246381815844000,0.120843994140625,-0.0017377820331603289,-0.0008677057921886444,0.000952462200075388
1783246381825855200,0.130855224609375,-0.0004410890396684408,0.0006646770052611828,-0.00008856737986207008
1783246381835867100,0.1408671875,0.0007820206228643656,-0.0022104515228420496,-0.00006121629849076271
1783246381845879000,0.150879150390625,0.00014632404781877995,0.0015805581351742148,0.00013931980356574059
1783246381855890200,0.16089013671875,-0.0007687287870794535,-0.0007234634831547737,-0.0003784424625337124
1783246381865902000,0.170902099609375,-0.0020875262562185526,0.00018147879745811224,0.0002822880633175373
1783246381875913200,0.180913330078125,-0.0016182584222406149,-0.0019957805052399635,0.0007499880157411098
1783246381885925000,0.190925048828125,0.00017751101404428482,0.0007491398137062788,-0.000013273674994707108
1783246381895937300,0.200937255859375,0.00006138812750577927,0.0006617475301027298,0.00018706964328885078
1783246381905948200,0.2109482421875,0.0008259816095232964,0.0000446932390332222,0.0003575119189918041
1783246381915960000,0.2209599609375,-0.0011423388496041298,-0.0012316580396145582,0.0003251461312174797
1783246381925971200,0.23097119140625,-0.00030157878063619137,0.0007787621580064297,0.00010570138692855835
1783246381935983000,0.240983154296875,-0.001953702885657549,0.0012701575178653002,0.0017105340957641602
1783246381945995000,0.2509951171875,0.00016297749243676662,-0.0010518524795770645,0.00025857891887426376
1783246381956006100,0.261006103515625,0.00011375173926353455,-0.000868829432874918,-0.0002918592654168606
1783246381966018300,0.271018310546875,-0.0008148923516273499,-0.000969496788457036,0.0013667573221027851
1783246381976029200,0.281029296875,-0.0008877445943653584,0.0007327921921387315,-0.000524542760103941
1783246381986041000,0.291041015625,-0.00027681561186909676,-0.00028666574507951736,-0.0008126965258270502
1783246381996053200,0.30105322265625,0.0014902112307026982,-0.0004489743150770664,-0.0006540184840559959
1783246382006064000,0.311064208984375,0.0001522391103208065,0.0013185658026486635,0.0018831747584044933
1783246382016076000,0.321075927734375,-0.0013974548783153296,0.0008967614267021418,-0.00044317031279206276
1783246382026087200,0.331087158203125,-0.00046481587924063206,-0.000899807084351778,-0.0006050905212759972
1783246382036099000,0.34109912109375,0.0013138146605342627,-0.00037471414543688297,-0.0007299305871129036
1783246382046111200,0.351111328125,-0.001028435304760933,0.00018188648391515017,0.000030135735869407654
1783246382056122000,0.3611220703125,0.00007959781214594841,0.0006130161928012967,0.0002766433171927929
1783246382066134300,0.37113427734375,0.0010250200284644961,-0.0006999222096055746,-0.00028901221230626106
1783246382076145200,0.381145263671875,0.0004901259671896696,0.0014637482818216085,-0.0003574988804757595
1783246382086157000,0.391156982421875,-0.0011085695587098598,0.0009375077206641436,0.00032746605575084686
1783246382096169200,0.401169189453125,-0.0017519332468509674,-0.00013271300122141838,-0.00018223514780402184
1783246382106180000,0.41118017578125,0.0016372057143598795,-0.001056829933077097,-0.0016552298329770565
1783246382116192000,0.42119189453125,0.00023813080042600632,-0.0005161685403436422,-0.0020314271096140146
1783246382126203100,0.431203125,-0.0010622907429933548,0.0006630790885537863,0.0007726154290139675
1783246382136215300,0.44121533203125,-0.0011626600753515959,-0.0004560223314911127,-0.00011893874034285545
1783246382146227200,0.451227294921875,0.0005715906154364347,-0.0008770681452006102,0.0007934602908790112
1783246382156238000,0.461238037109375,-0.001441826345399022,-0.0003166366368532181,-0.0005240621976554394
1783246382166250200,0.471250244140625,-0.0000029203947633504868,0.001364883384667337,-0.000609283335506916
1783246382176261000,0.48126123046875,0.0005053062923252583,0.0004940511425957084,0.0005755629390478134
1783246382186273000,0.49127294921875,0.0008073088247328997,-0.0009552410338073969,-0.0011461707763373852
1783246382196285200,0.50128515625,0.00034527620300650597,-0.0009751745965331793,0.0000817994587123394
1783246382206296300,0.51129638671875,0.0008046715520322323,-0.001450548879802227,0.00006235809996724129
1783246382216308200,0.52130810546875,-0.000769088976085186,0.0007184118730947375,-0.00044679827988147736
1783246382226319000,0.531319091796875,-0.001495599513873458,0.00005395314656198025,-0.00008593965321779251
1783246382236331300,0.541331298828125,-0.00043542287312448025,-0.0008336128666996956,0.0001930217258632183
1783246382246343200,0.55134326171875,-0.001054341671988368,0.0009131544502452016,0.000509937759488821
1783246382256354000,0.56135400390625,0.00043546571396291256,0.00014433590695261955,0.0002614464610815048
1783246382266366200,0.5713662109375,0.0018016673857346177,-0.0007206588052213192,-0.00013642990961670876
1783246382276377000,0.581377197265625,-0.00019869999960064888,-0.0016483212821185589,0.0017726472578942776
1783246382286389000,0.591388916015625,0.000022875145077705383,-0.00035216077230870724,0.0008956682868301868
1783246382296401200,0.601401123046875,-0.000005652196705341339,-0.0005188051145523787,-0.0018701879307627678
1783246382306412300,0.611412353515625,0.0009546836372464895,-0.0013987135607749224,-0.0005319495685398579
1783246382316424200,0.621424072265625,-0.00017617293633520603,0.0002893987111747265,-0.00014778878539800644
1783246382326435000,0.63143505859375,0.00027603190392255783,-0.00025788089260458946,-0.0008692392148077488
1783246382336447200,0.641447265625,0.0002716637682169676,0.0003830995410680771,-0.0005019423551857471
1783246382346459100,0.651459228515625,0.0003387755714356899,0.0015450366772711277,-0.00013256166130304337
1783246382356470000,0.661469970703125,-0.0006055508274585009,0.001694381469860673,-0.0002561025321483612
1783246382366482200,0.671482177734375,-0.0002723895013332367,-0.00010564923286437988,-0.0018167148809880018
1783246382376493300,0.681493408203125,0.00047779176384210587,0.0003129495307803154,0.00013507623225450516
1783246382386505200,0.691505126953125,-0.0013765671756118536,-0.0005925253499299288,-0.0007264567539095879
1783246382396517400,0.701517333984375,-0.0021236662287265062,0.0005532614886760712,-0.0006825984455645084
1783246382406528300,0.7115283203125,-0.0002767639234662056,0.000811588135547936,0.0004258090630173683
1783246382416540200,0.7215400390625,0.000805191695690155,0.0002852517645806074,-0.0011480990797281265
1783246382426551000,0.731551025390625,-0.000021453481167554855,-0.000835140235722065,-0.00024422211572527885
1783246382436563200,0.741563232421875,0.001092075719498098,-0.0014545922167599201,0.0019720871932804585
1783246382446575000,0.7515751953125,0.00018447032198309898,-0.00040077930316329,-0.0005675032734870911
1783246382456586200,0.761586181640625,-0.0003233442548662424,-0.0013471569400280714,-0.000714633148163557
1783246382466598400,0.771598388671875,-0.00014837458729743958,0.0011029511224478483,-0.00005976157262921333
1783246382476609300,0.781609375,-0.0010536597110331059,0.0004125352716073394,-0.0016711496282368898
1783246382486621200,0.79162109375,0.0011743407230824232,0.0004048121627420187,-0.0007989644072949886
1783246382496633000,0.801633056640625,0.0006893340032547712,0.0005212882533669472,-0.00008208537474274635
1783246382506644200,0.811644287109375,0.0005878675729036331,-0.00004623131826519966,0.0004273774102330208
1783246382516656000,0.82165625,0.00004936661571264267,0.000608437811024487,-0.00014650216326117516
1783246382526667000,0.8316669921875,0.00011887494474649429,0.0002939184196293354,-0.0007478438783437014
1783246382536679200,0.84167919921875,0.00003668805584311485,-0.002043797168880701,-0.001509673660621047
1783246382546691000,0.851691162109375,-0.0004418820608407259,0.0010750310029834509,0.0005215192213654518
1783246382556702500,0.861702392578125,0.00028410833328962326,0.0006743008270859718,0.0013538841158151627
1783246382566714400,0.87171435546875,-0.0012322955299168825,-0.0008402387611567974,-0.0011707923840731382
1783246382576725200,0.881725341796875,0.0005123836454004049,-0.00023056985810399055,0.0003982912749052048
1783246382586737400,0.8917373046875,0.000004785135388374329,0.0006181795615702868,-0.002492570085451007
1783246382596749300,0.901749267578125,0.000722130062058568,0.000006314599886536598,0.000513054896146059
1783246382606760200,0.91176025390625,0.0026324153877794743,-0.00015267613343894482,0.0006134561263024807
1783246382616772000,0.921772216796875,0.0006655626930296421,-0.0003273405600339174,0.0010307440534234047
1783246382626783500,0.931783447265625,-0.0006367228925228119,0.0013744193129241467,-0.001056641573086381
1783246382636795400,0.94179541015625,-0.0008256181608885527,-0.00018831854686141014,0.0006834599189460278
1783246382646807300,0.951807373046875,-0.0005497147794812918,-0.000012017320841550827,-0.00028886040672659874
1783246382656818400,0.961818359375,-0.0009206996764987707,0.0001910197315737605,0.0007847221568226814
1783246382666830300,0.971830322265625,0.00012858607806265354,-0.0010148596484214067,-0.0013253004290163517
1783246382676841200,0.98184130859375,-0.00011841603554785252,-0.0006355128716677427,0.00012511853128671646
1783246382686853000,0.99185302734375,0.0008270060643553734,-0.00044562947005033493,-0.00022189132869243622
1783246382696865300,1.001865234375,0.0003977238666266203,-0.0010161064565181732,0.0006629857234656811
1783246382706876200,1.011876220703125,0.0005298166070133448,0.00019909394904971123,0.0008656522259116173
1783246382716888000,1.02188818359375,0.0005491611082106829,-0.0005531024653464556,-0.00011906679719686508
1783246382726899500,1.0318994140625,0.000754490727558732,0.00045170809607952833,-0.0012506439816206694
1783246382736911400,1.041911376953125,-0.0008838330395519733,0.0006864148890599608,-0.0011708429083228111
1783246382746923300,1.05192333984375,-0.0015725265257060528,0.0006608485709875822,0.0010819248855113983
1783246382756934400,1.061934326171875,0.00011044437997043133,0.0005398601060733199,-0.000058558303862810135
1783246382766946300,1.0719462890625,-0.00032658036798238754,-0.0001861175987869501,-0.0014897410292178392
1783246382776957200,1.081957275390625,0.000801480608060956,0.001440421910956502,-0.00016935216262936592
1783246382786969000,1.091968994140625,-0.000263517489656806,0.0007666420424357057,-0.0018122564069926739
1783246382796981200,1.101981201171875,-0.00016444292850792408,-0.0016519792843610048,0.000158682931214571
1783246382806992400,1.111992431640625,-0.0010944188106805086,0.0018506101332604885,0.00025988277047872543
1783246382817004300,1.12200439453125,-0.0006042146123945713,0.00017539411783218384,0.0007953047752380371
1783246382827015400,1.132015380859375,-0.00026572681963443756,0.00017246464267373085,0.0002719936892390251
1783246382837027300,1.14202734375,0.0005498016253113747,-0.0006952763069421053,0.0010964521206915379
1783246382847039200,1.152039306640625,0.0006952101830393076,-0.0011783738154917955,-0.0004926561377942562
1783246382857050000,1.162050048828125,-0.0005013416521251202,0.00022969883866608143,-0.001202872721478343
1783246382867062300,1.172062255859375,-0.0004973469767719507,0.00048216653522104025,-0.000499797984957695
1783246382877074200,1.18207421875,-0.0010232699569314718,-0.0003107544034719467,0.0007884185761213303
1783246382887085300,1.192085205078125,-0.0005910389591008425,0.00011188932694494724,-0.0001173228956758976
1783246382897097500,1.202097412109375,-0.00021560047753155231,0.00001302710734307766,-0.0007024682126939297
1783246382907108400,1.2121083984375,0.0003423315938562155,0.0004215560620650649,-0.0008124569430947304
1783246382917120300,1.222120361328125,-0.0004969246219843626,0.0001598317176103592,-0.0006839074194431305
1783246382927132400,1.23213232421875,-0.00048227724619209766,0.0005387994460761547,-0.0006775157526135445
1783246382937143300,1.242143310546875,0.0019181360257789493,0.0005058791721239686,0.0006465334445238113
1783246382947155200,1.2521552734375,0.000304260291159153,0.0013442423660308123,0.000676626805216074
1783246382957166000,1.262166015625,0.0006855896208435297,-0.0006751618348062038,0.0006089699454605579
1783246382967178200,1.27217822265625,0.0001327174250036478,0.0010388485388830304,-0.00046534929424524307
1783246382977190100,1.282190185546875,0.00008903676643967628,-0.0010206056758761406,0.0006815553642809391
1783246382987201300,1.292201171875,-0.0024912997614592314,-0.0007449686527252197,-0.001200234517455101
1783246382997213400,1.30221337890625,0.0002990474458783865,-0.0007111893501132727,-0.0008014636114239693
1783246383007224300,1.312224365234375,0.0016636512009426951,0.00013276655226945877,-0.0010491374414414167
1783246383017236200,1.322236328125,-0.00015835301019251347,-0.001049416372552514,0.00008131284266710281
1783246383027248400,1.332248291015625,-0.0017248245421797037,0.000813464866951108,-0.000007370486855506897
1783246383037259300,1.34225927734375,-0.0018817686941474676,0.0005384535761550069,-0.0008952321950346231
1783246383047271200,1.352271240234375,0.000022391323000192642,-0.0004458506591618061,0.0014659264124929905
1783246383057282300,1.3622822265625,-0.000164432218298316,-0.00023356848396360874,0.000026293564587831497
1783246383067294500,1.37229443359375,0.000032375333830714226,-0.0003981518093496561,-0.00016651907935738564
1783246383077306400,1.382306396484375,0.000954722985625267,0.00008031376637518406,0.0002516508102416992
1783246383087317200,1.392317138671875,-0.0029401499778032303,0.0006739323725923896,0.0010756328701972961
1783246383097329400,1.402329345703125,-0.00004712352529168129,0.001124948961660266,0.0013899439945816994
1783246383107340300,1.41234033203125,-0.0013283705338835716,-0.0002577642444521189,-0.0007072952575981617
1783246383117352200,1.422352294921875,0.00016109878197312355,-0.0005859753582626581,-0.00006958330050110817
1783246383127364400,1.4323642578125,-0.0007102875970304012,0.0006606501992791891,-0.0013662762939929962
1783246383137375200,1.442375244140625,-0.0008675323333591223,-0.001161554828286171,0.001577151007950306
1783246383147387400,1.452387451171875,0.00013115303590893745,-0.0004571485333144665,-0.0006247502751648426
1783246383157398300,1.462398193359375,0.0015086134662851691,0.00254493928514421,-0.0006392714567482471
1783246383167410400,1.472410400390625,0.0008646610658615828,-0.0009536552242934704,0.001220680307596922
1783246383177422300,1.48242236328125,0.001099820714443922,-0.00006752647459506989,-0.0005078865215182304
1783246383187433200,1.49243310546875,-0.0012458914425224066,0.0007671082857996225,0.00001222873106598854
1783246383197445400,1.5024453125,0.0004771426320075989,-0.0006527015939354897,-0.0005262666381895542
1783246383207456300,1.512456298828125,-0.0006666851695626974,0.0003561037592589855,0.000014089047908782959
1783246383217468200,1.52246826171875,0.00017680577002465725,0.0002597076818346977,0.0005438369698822498
1783246383227480000,1.53247998046875,-0.0006610245909541845,-0.0009155452717095613,-0.0007906733080744743
1783246383237491500,1.542491455078125,0.0005989277269691229,-0.0011631271336227655,-0.0004301206208765507
1783246383247503400,1.55250341796875,0.0016008088132366538,0.0003029429353773594,0.001484958454966545
1783246383257514200,1.56251416015625,0.0005543536972254515,0.000702728983014822,0.0015312633477151394
1783246383267526400,1.5725263671875,0.00026220502331852913,-0.00024402467533946037,0.00008117221295833588
1783246383277538300,1.582538330078125,-0.0006533334963023663,-0.0011206369381397963,-0.00008538784459233284
1783246383287549200,1.592549072265625,-0.0006637200713157654,0.000870075891725719,-0.0007029748521745205
1783246383297561000,1.60256103515625,0.00046061351895332336,0.0004057397600263357,-0.0014931682962924242
1783246383307572500,1.612572509765625,-0.001405196962878108,0.0003647271078079939,-0.00016877846792340279
1783246383317584400,1.62258447265625,0.0001782733015716076,-0.00015022512525320053,0.00018078414723277092
1783246383327596300,1.63259619140625,0.0006613708101212978,0.0005957263056188822,0.000726199708878994
1783246383337607400,1.642607421875,-0.0003977611195296049,-0.0006126833613961935,-0.00037132902070879936
1783246383347619300,1.652619384765625,0.0013828283408656716,0.0005282147321850061,-0.00010314863175153732
1783246383357630200,1.662630126953125,-0.0003020288422703743,0.001243331702426076,-0.00003974977880716324
1783246383367642400,1.672642333984375,0.0006284795235842466,-0.0005748083349317312,-0.00036891642957925797
1783246383377654300,1.682654296875,-0.0008534062653779984,-0.0007004467770457268,0.00013854727149009705
1783246383387665200,1.6926650390625,0.0005660583265125751,0.000002095010131597519,0.002018472645431757
1783246383397677000,1.702677001953125,-0.00003065820783376694,-0.0000016335397958755493,0.0002693859860301018
1783246383407688400,1.7126884765625,0.00012353877536952496,-0.0008719544857740402,0.0012675384059548378
1783246383417700400,1.722700439453125,0.00018917140550911427,0.000179960741661489,-0.001955828396603465
1783246383427712300,1.732712158203125,0.0005987656768411398,0.000028959475457668304,-0.00019521266222000122
1783246383437723400,1.742723388671875,0.001744681503623724,0.0016191459726542234,-0.0001673591323196888
1783246383447735300,1.7527353515625,0.0015428138431161642,-0.0004493312444537878,-0.00017188629135489464
1783246383457746200,1.76274609375,-0.0005585388280451298,0.00008636072743684053,0.00011215871199965477
1783246383467758000,1.772758056640625,-0.0005747841205447912,0.00017078302334994078,0.0005651623941957951
1783246383477770200,1.782770263671875,-0.0006091129034757614,0.0013806053902953863,0.0003491104580461979
1783246383487781400,1.792781494140625,-0.0007550541777163744,-0.00032781227491796017,0.00044445181265473366
1783246383497793300,1.802793212890625,0.00039745913818478584,0.00037318526301532984,-0.0003268187865614891
1783246383507804400,1.812804443359375,0.00037349085323512554,-0.0000979278702288866,-0.0005819494836032391
1783246383517816300,1.82281640625,-0.0004725637845695019,-0.0008317606989294291,-0.0012194043956696987
1783246383527828200,1.832828125,-0.0011657844297587872,0.00002524442970752716,-0.0001634610816836357
1783246383537839000,1.842839111328125,0.0003300919197499752,0.0002069359179586172,-0.0006597465835511684
1783246383547851300,1.852851318359375,0.00015645381063222885,-0.0018141369801014662,0.00041723577305674553
1783246383557862700,1.862862548828125,-0.00015039602294564247,-0.00026336777955293655,0.0012671775184571743
1783246383567874800,1.872874755859375,-0.0008521389681845903,-0.0012913479004055262,-0.000813550315797329
1783246383577886700,1.88288671875,0.0016647573793306947,-0.0006405375897884369,-0.0003709597513079643
1783246383587897900,1.89289794921875,0.0008743312209844589,-0.0008445356506854296,-0.00021543120965361595
1783246383597910000,1.902909912109375,-0.0005306408274918795,0.0005846655694767833,0.0013347030617296696
1783246383607921000,1.9129208984375,0.00016843900084495544,-0.0003050966188311577,-0.000441625714302063
1783246383617932800,1.922932861328125,0.001369250356219709,-0.001251796493306756,-0.00017356034368276596
1783246383627945000,1.932945068359375,-0.0006518224254250526,0.0009658175986260176,-0.00012082979083061218
1783246383637955800,1.942955810546875,-0.0001185922883450985,-0.000004319939762353897,-0.0002806386910378933
1783246383647967700,1.9529677734375,0.00024945661425590515,-0.00004906114190816879,-0.000612468458712101
1783246383657979000,1.962978759765625,0.0006722949910908937,0.0005390426376834512,-0.000642669852823019
1783246383667991000,1.972990966796875,-0.00016100797802209854,-0.0005086448509246111,0.000727260485291481
1783246383678003000,1.9830029296875,0.00034672534093260765,-0.00035861809737980366,0.0003446093760430813
1783246383688013800,1.993013916015625,0.0008772269356995821,-0.0005423764232546091,0.0011877664364874363
1783246383698026000,2.00302587890625,-0.0001977384090423584,0.00036706181708723307,-0.00017039617523550987
1783246383708036900,2.013036865234375,0.0014803193043917418,0.0010738647542893887,0.0011047250591218472
1783246383718048800,2.023048828125,-0.00025338586419820786,-0.0001481533981859684,-0.00015779724344611168
1783246383728060700,2.033060791015625,-0.00014046789146959782,0.0010585247073322535,0.0010523432865738869
1783246383738071800,2.04307177734375,-0.00025818031281232834,-0.0003271442838013172,-0.000364718958735466
1783246383748083700,2.053083740234375,-0.000029148533940315247,-0.00016575679183006287,-0.0002882862463593483
1783246383758094800,2.0630947265625,0.000446526100859046,0.000051268842071294785,0.0005388571880757809
1783246383768107000,2.07310693359375,0.0002470554318279028,-0.0007482122164219618,-0.0015210979618132114
1783246383778119000,2.083118896484375,0.0007151523604989052,-0.0006582941859960556,-0.0008191557135432959
1783246383788129800,2.0931298828125,-0.00011122645810246468,-0.00010648719035089016,0.0009430581703782082
1783246383798141700,2.1031416015625,0.0009213816374540329,-0.000411429675295949,-0.0005021840333938599
1783246383808152800,2.11315283203125,0.0011754471343010664,0.0008431855821982026,0.00043871067464351654
1783246383818164700,2.123164794921875,0.0005644564516842365,-0.0005795364268124104,-0.0000887908972799778
1783246383828176600,2.1331767578125,-0.0005849637091159821,-0.0011547792237251997,-0.0011276898439973593
1783246383838188000,2.14318798828125,0.0005210884846746922,-0.00012657511979341507,-0.0003342665731906891
1783246383848200000,2.153199951171875,0.000285398680716753,-0.0009550845716148615,0.0013893311843276024
1783246383858211800,2.1632119140625,-0.0005114804953336716,-0.0008308433461934328,-0.00038262782618403435
1783246383868222700,2.17322265625,0.0018158559687435627,0.00005013041663914919,0.0007228506729006767
1783246383878235000,2.18323486328125,0.00026532914489507675,0.0004511184524744749,0.0011535570956766605
1783246383888245800,2.193245849609375,0.0010088838171213865,-0.001333465799689293,-0.0007575275376439095
1783246383898257700,2.203257568359375,0.000013677636161446571,-0.0004261573776602745,0.0008883518166840076
1783246383908269800,2.213269775390625,0.0002807925920933485,-0.000829093623906374,0.00006596790626645088
1783246383918281000,2.223281005859375,0.0007681529968976974,0.00021937454584985971,-0.0005315113812685013
1783246383928292900,2.23329296875,0.0006499085575342178,-0.0008339055348187685,0.0002655726857483387
1783246383938303700,2.2433037109375,-0.00028582336381077766,0.0002485142322257161,-0.0009264231193810701
1783246383948316000,2.25331591796875,0.001463074586354196,-0.0009728113655000925,-0.00024998048320412636
1783246383958327800,2.263327880859375,0.0005339239723980427,0.001323239179328084,0.00027401139959692955
1783246383968338700,2.273338623046875,0.0008644221816211939,0.00019112939480692148,-0.0009294711053371429
1783246383978350800,2.283350830078125,0.0002834869083017111,-0.0002725839149206877,0.0006830575875937939
1783246383988361700,2.29336181640625,-0.0006467553321272135,0.001008929219096899,-0.0004660962149500847
1783246383998373600,2.30337353515625,0.0011880234815180302,-0.00020849751308560371,-0.00023882649838924408
1783246384008385800,2.3133857421875,-0.00009801704436540604,0.00013531651347875595,0.00044347532093524933
1783246384018397000,2.32339697265625,-0.0007118950597941875,-0.00006158393807709217,-0.00028499867767095566
1783246384028408800,2.333408935546875,-0.00043758959509432316,-0.0005436160136014223,-0.0006202906370162964
1783246384038419700,2.343419677734375,0.0003117271699011326,0.000008267117664217949,0.0004396284930408001
1783246384048431900,2.353431884765625,0.0005878971423953772,-0.00025511952117085457,-0.0007002041675150394
1783246384058443800,2.36344384765625,0.00001667696051299572,0.0017917158547788858,-0.00022455351427197456
1783246384068454700,2.37345458984375,0.0013943301746621728,0.0008960947161540389,-0.00008606910705566406
1783246384078466800,2.383466796875,0.000978456111624837,0.0006695979973301291,-0.00015851715579628944
1783246384088478000,2.39347802734375,0.0003970880061388016,-0.00020684837363660336,-0.00039367424324154854
1783246384098489900,2.40348974609375,-0.00018175155855715275,-0.0015264679677784443,-0.0009065789636224508
1783246384108502000,2.413501953125,0.00018336763605475426,-0.0007086112163960934,0.0007893219590187073
1783246384118513000,2.423512939453125,-0.000383228762075305,0.0000357672106474638,-0.001000713324174285
1783246384128524800,2.43352490234375,0.00016271928325295448,-0.0007464031223207712,0.0005724160000681877
1783246384138535700,2.44353564453125,-0.00008768355473876,-0.00020944001153111458,0.00014035729691386223
1783246384148547800,2.4535478515625,-0.0007316358387470245,0.0005767251132056117,-0.0001001264899969101
1783246384158559700,2.463559814453125,-0.00008832616731524467,0.0010936360340565443,0.0007160212844610214
1783246384168571000,2.47357080078125,-0.0002989822532981634,-0.0005596543196588755,-0.0005891942419111729
1783246384178582800,2.483582763671875,0.0001877029426395893,-0.0007465074304491282,-0.001630587736144662
1783246384188594000,2.493593994140625,-0.0012016682885587215,0.0012846855679526925,0.00003388803452253342
1783246384198605800,2.503605712890625,-0.0006259451620280743,0.0008512982167303562,0.0003664097748696804
1783246384208618000,2.513617919921875,0.00008378736674785614,-0.0005034517962485552,-0.0004461207427084446
1783246384218628900,2.52362890625,-0.0009975088760256767,0.0003184736706316471,-0.0007121856324374676
1783246384228640800,2.533640869140625,0.0005612391978502274,-0.00030151032842695713,0.0006835772655904293
1783246384238651600,2.543651611328125,0.0011163742747157812,0.00040252855978906155,-0.0007669883780181408
1783246384248663800,2.553663818359375,-0.0010338621214032173,0.000011043855920433998,-0.0009909600485116243
1783246384258675700,2.56367578125,0.00046825455501675606,0.00032994698267430067,-0.00028846412897109985
1783246384268686800,2.573686767578125,0.00011245626956224442,0.0005107756005600095,0.0006316583603620529
1783246384278699000,2.583698974609375,-0.00013985252007842064,0.0009442289592698216,-0.0016529124695807695
1783246384288710000,2.5937099609375,0.00002419808879494667,-0.0004693767987191677,-0.0002723298966884613
1783246384298721800,2.6037216796875,-0.00008608330972492695,-0.00027026631869375706,0.0008556069806218147
1783246384308734000,2.61373388671875,0.0004960836376994848,-0.0001624082215130329,-0.001426456030458212
1783246384318744800,2.623744873046875,-0.0002299018669873476,0.000035063596442341805,0.001080883201211691
1783246384328756700,2.6337568359375,0.00037996191531419754,0.00029046088457107544,0.001599400769919157
1783246384338768000,2.643767822265625,-0.000036484794691205025,0.0004296556580811739,0.00013236980885267258
1783246384348780000,2.653780029296875,-0.0004905536770820618,-0.00015623983927071095,0.00011399388313293457
1783246384358792000,2.6637919921875,0.0007626893930137157,0.0007265579188242555,0.00028803665190935135
1783246384368802800,2.673802734375,0.00042313640005886555,0.0005406693089753389,0.0003229239955544472
1783246384378815000,2.68381494140625,0.00027244072407484055,0.0007857291493564844,-0.00024236692115664482
1783246384388825900,2.693825927734375,-0.00015632831491529942,-0.00010749511420726776,0.00030198320746421814
1783246384398837800,2.703837646484375,0.0015205303207039833,-0.00003128289245069027,-0.00016727857291698456
1783246384408849700,2.713849609375,0.0008909590542316437,-0.0009261048398911953,-0.0008727498352527618
1783246384418860800,2.72386083984375,0.0010541738010942936,-0.0009367095772176981,-0.00030227797105908394
1783246384428872700,2.733872802734375,-0.0011234930716454983,-0.0008184651378542185,-0.0009907050989568233
1783246384438883800,2.7438837890625,-0.0004272577352821827,-0.0003979019820690155,0.0004261224530637264
1783246384448896000,2.75389599609375,-0.0006560233887284994,0.0005318076582625508,0.0007454357109963894
1783246384458908000,2.763907958984375,0.00006334087811410427,-0.0014810995198786259,0.001131352037191391
1783246384468918800,2.773918701171875,0.00027586123906075954,-0.0009095852728933096,0.00048340484499931335
1783246384478930700,2.7839306640625,-0.0002672257833182812,-0.0004419849719852209,-0.00011828402057290077
1783246384488942800,2.79394287109375,0.0002901738043874502,-0.0006864629685878754,-0.00030656950548291206
1783246384498953700,2.80395361328125,-0.0003260576631873846,0.0005489978939294815,0.0004844553768634796
1783246384508965600,2.813965576171875,-0.00024136900901794434,0.0011700470931828022,-0.0010194319766014814
1783246384518977000,2.82397705078125,0.0008864139672368765,0.0018066175980493426,0.0000592479482293129
1783246384528989000,2.833989013671875,0.001036616275086999,0.0006902203895151615,0.000011310912668704987
1783246384539000800,2.844000732421875,-0.00032239919528365135,0.00012222537770867348,-0.0018569862004369497
1783246384549012000,2.854011962890625,0.0003633648157119751,-0.0018913906533271074,-0.0006561670452356339
1783246384559023900,2.86402392578125,0.00013810023665428162,-0.00041430164128541946,-0.0005544521845877171
1783246384569034800,2.87403466796875,0.0001639330293983221,-0.0003077751025557518,0.00017072679474949837
1783246384579047000,2.884046875,-0.00021616392768919468,-0.00007779966108500957,-0.0013767192140221596
1783246384589058800,2.894058837890625,-0.00038527464494109154,0.00004230882041156292,-0.0005455468781292439
1783246384599070000,2.904070068359375,0.0016355823026970029,-0.00032027484849095345,-0.00028265733271837234
1783246384609081900,2.914081787109375,-0.00008908077143132687,0.0012406038586050272,0.00026728538796305656
1783246384619093000,2.924093017578125,-0.0009529551025480032,0.0012288512662053108,0.001449765171855688
1783246384629105000,2.93410498046875,0.0018771860050037503,0.0003406871110200882,-0.0003598523326218128
1783246384639117000,2.944116943359375,-0.00041500129736959934,0.0018641825299710035,-0.0013427864760160446
1783246384649128000,2.9541279296875,-0.000048283953219652176,0.0010806805221363902,-0.0005204020999372005
1783246384659139800,2.964139892578125,-0.0011512984056025743,-0.0006811993662267923,0.0011700112372636795
1783246384669150700,2.974150634765625,-0.0011158783454447985,0.0010176310315728188,-0.00020577805116772652
1783246384679163000,2.984162841796875,0.0016033697174862027,-0.00015203049406409264,-0.0004994631744921207
1783246384689174800,2.9941748046875,0.0020020450465381145,0.00020643090829253197,0.00019109435379505157
1783246384699186000,3.00418603515625,-0.0003627287223935127,-0.0002017014194279909,0.00032807607203722
1783246384709198000,3.014197998046875,0.000036212848499417305,0.0008582366863265634,0.0009339451789855957
1783246384719209000,3.024208984375,0.000622826162725687,-0.0007706703618168831,0.0004306044429540634
1783246384729220900,3.034220947265625,0.0009264266118407249,-0.001472146948799491,-0.0021795600187033415
1783246384739233000,3.04423291015625,0.00011140154674649239,-0.00034345011226832867,0.0010452638380229473
1783246384749244000,3.054243896484375,0.0007918390911072493,0.00030902435537427664,0.0003230143338441849
1783246384759255800,3.064255859375,-0.00019150902517139912,0.0015070983208715916,0.0006325617432594299
1783246384769267000,3.074266845703125,0.0006255488842725754,0.0001845724182203412,-0.000182365532964468
1783246384779279000,3.084279052734375,0.00044604064896702766,-0.0003951683174818754,0.00012820353731513023
1783246384789291000,3.094291015625,0.00045269844122231007,-0.00017519132234156132,0.0005833376199007034
1783246384799302000,3.104302001953125,-0.0003953913692384958,0.0006949950475245714,-0.0012416495010256767
1783246384809314000,3.11431396484375,0.0005795918405056,-0.0004046240355819464,-0.00021074013784527779
1783246384819325000,3.124324951171875,0.0010550348088145256,-0.00023008347488939762,0.000001085922122001648
1783246384829336800,3.1343369140625,0.0006411795038729906,-0.0016644620336592197,0.0007483689114451408
1783246384839348700,3.1443486328125,0.00014636595733463764,0.0014730833936482668,0.00046600308269262314
1783246384849360000,3.15435986328125,-0.00009917747229337692,0.0015798761742189527,-0.0000075069256126880646
1783246384859371800,3.164371826171875,0.0002564720343798399,-0.0006450777873396873,0.0003577917814254761
1783246384869383000,3.1743828125,0.0017656852724030614,0.00030806753784418106,-0.0003207819536328316
1783246384879395000,3.18439501953125,0.0001451300922781229,-0.0003339853137731552,-0.0005959421396255493
1783246384889407000,3.194406982421875,0.0012383577413856983,0.0003544418141245842,0.0006064749322831631
1783246384899417900,3.20441796875,0.00014415127225220203,-0.0015632517170161009,0.0008560940623283386
1783246384909430000,3.214429931640625,-0.0012156586162745953,-0.0008252898696810007,0.0016475855372846127
1783246384919441000,3.22444091796875,0.0006340374238789082,0.0012036045081913471,-0.0009700371883809566
1783246384929452800,3.234452880859375,0.00018556113354861736,-0.00023876363411545753,0.0006137448363006115
1783246384939464700,3.244464599609375,-0.0019487044773995876,0.0011112866923213005,0.000874771736562252
1783246384949476000,3.25447607421875,0.00048755528405308723,-0.00022908230312168598,0.00019433395937085152
1783246384959488000,3.264488037109375,0.0005516421515494585,0.0002227850491181016,-0.00011884141713380814
1783246384969499000,3.274498779296875,0.0007844024803489447,-0.0001383395865559578,-0.000148136168718338
1783246384979511000,3.284510986328125,0.0000015853438526391983,0.00005059712566435337,-0.0008588389027863741
1783246384989523000,3.29452294921875,0.0017241179011762142,0.0013028155080974102,0.000578469131141901
1783246384999533800,3.304533935546875,-0.0003418216947466135,-0.00045931944623589516,-0.0009351244661957026
1783246385009545700,3.314545654296875,-0.001678728498518467,-0.0007850241381675005,0.00019938219338655472
1783246385019557000,3.32455712890625,-0.0007319282740354538,0.0002998305717483163,-0.0009522214531898499
1783246385029569000,3.334569091796875,-0.0004216700326651335,0.00009183760266751051,0.0010776398703455925
1783246385039581000,3.344580810546875,0.00023484975099563599,0.000005779555067420006,0.00005771033465862274
1783246385049592000,3.354592041015625,-0.000477013411000371,-0.00013057433534413576,0.0006241644732654095
1783246385059604000,3.36460400390625,-0.0005259106401354074,-0.0005975608946755528,0.0009263907559216022
1783246385069615900,3.374615966796875,0.0006040683947503567,-0.0012779986718669534,-0.00005738111212849617
1783246385079626800,3.384626708984375,0.0004506681580096483,0.00046631472650915384,0.000537509098649025
1783246385089639000,3.394638916015625,-0.00032617594115436077,-0.00030094210524111986,-0.0005189664661884308
1783246385099649800,3.40464990234375,0.0016298649134114385,-0.0008075638907030225,-0.0017688411753624678
1783246385109661700,3.41466162109375,0.00009135669097304344,-0.0010099640348926187,0.0005518374964594841
1783246385119673900,3.424673828125,-0.001365291653200984,-0.0007030501728877425,0.0006556236185133457
1783246385129685000,3.43468505859375,-0.0011453141923993826,0.00010228983592242002,0.0015547065995633602
1783246385139697000,3.44469677734375,-0.0010419825557619333,0.00040946307126432657,-0.0003413558006286621
1783246385149707800,3.454707763671875,-0.0005660757888108492,-0.0009026763727888465,0.001212598755955696
1783246385159720000,3.464719970703125,-0.0002119590062648058,0.00005918636452406645,0.000292433425784111
1783246385169730800,3.474730712890625,0.00006554229184985161,-0.00024894147645682096,-0.00039386283606290817
1783246385179742700,3.48474267578125,0.0008583690505474806,-0.0009542271727696061,-0.00009353738278150558
1783246385189755000,3.4947548828125,-0.00004444248043000698,-0.0012261358788236976,-0.0008051339536905289
1783246385199766000,3.50476611328125,0.0016954938182607293,-0.0007598326774314046,-0.0005450388416647911
1783246385209778000,3.51477783203125,-0.00040281075052917004,-0.00018139404710382223,0.0003553759306669235
1783246385219789000,3.5247890625,0.00011041038669645786,3.7602148950099945e-8,0.00014408398419618607
1783246385229801000,3.534801025390625,0.00009762728586792946,0.00039285386446863413,-0.00012995535507798195
1783246385239812900,3.544812744140625,-0.0001873951405286789,-0.0010772565146908164,-0.00015056272968649864
1783246385249823700,3.55482373046875,0.00040622358210384846,-0.0008756552124395967,0.0011501251719892025
1783246385259836000,3.5648359375,-0.0012247576378285885,0.00021676253527402878,-0.0008185200858861208
1783246385269847800,3.574847900390625,0.0009547735098749399,-0.001207496039569378,0.002282997127622366
1783246385279859000,3.58485888671875,0.00044643902219831944,-0.0005921570118516684,0.0008189817890524864
1783246385289871000,3.59487109375,-0.00029977853409945965,-0.0007213202770799398,0.0007366901263594627
1783246385299882000,3.604882080078125,0.0004041807260364294,-0.0023275644052773714,0.0006168335676193237
1783246385309894000,3.614893798828125,0.0008574507664889097,-0.00016907206736505032,-0.0003466983325779438
1783246385319906000,3.624906005859375,0.0009529390372335911,-0.001117759384214878,0.0006075669080018997
1783246385329917000,3.6349169921875,0.0009446830954402685,-0.00023252470418810844,-0.0006798054091632366
1783246385339928800,3.6449287109375,0.0007268199697136879,-0.00044816057197749615,0.00045718858018517494
1783246385349939700,3.654939697265625,-0.0002452337648719549,0.0005033869529142976,-0.0010323175229132175
1783246385359952000,3.664951904296875,0.0005466081202030182,0.00008773512672632933,-0.00030321069061756134
1783246385369963800,3.6749638671875,-0.0000209116842597723,-0.0005671360995620489,-0.0011684719938784838
1783246385379975000,3.684974853515625,0.00006715650670230389,-0.0003152363933622837,-0.0017468202859163284
1783246385389987000,3.694987060546875,0.0005664990749210119,0.0005934340879321098,0.00042472127825021744
1783246385399998000,3.704998046875,0.0001463131047785282,-0.00009067589417099953,-0.0005311858840286732
1783246385410009900,3.715009765625,-0.00012852530926465988,-0.000463251955807209,0.000697063747793436
1783246385420022000,3.72502197265625,0.0010593715123832226,0.0003814598312601447,0.0020027663558721542
1783246385430033000,3.735032958984375,-0.0020285637583583593,0.0012371335178613663,-0.0014446955174207687
1783246385440044800,3.745044921875,0.00009543984197080135,0.0003738946979865432,0.0013477723114192486
1783246385450056000,3.755055908203125,0.0008336680475622416,0.0006790929473936558,0.0013594902120530605
1783246385460068000,3.765068115234375,-0.0011791454162448645,0.0006717111682519317,0.0012711798772215843
1783246385470080000,3.775080078125,0.00006854557432234287,0.000046667177230119705,-0.00019489042460918427
1783246385480091000,3.7850908203125,0.0007973103784024715,-0.0001370287500321865,-0.001229331362992525
1783246385490103000,3.79510302734375,-0.0011324158404022455,-0.0007439632900059223,0.001461260486394167
1783246385500114000,3.805114013671875,-0.0003916227724403143,-0.0006116747390478849,-0.0004676668904721737
1783246385510125800,3.815125732421875,0.0016374395927414298,-0.0013203418347984552,0.0009107855148613453
1783246385520138000,3.825137939453125,-0.0005047519225627184,-0.00020461180247366428,-0.0006629489362239838
1783246385530148900,3.83514892578125,-0.0005191329400986433,-0.0001888992264866829,-0.0004941048100590706
1783246385540160800,3.845160888671875,0.0007465619128197432,-0.00001138215884566307,0.0010859952308237553
1783246385550172000,3.855171875,0.0008371092844754457,0.0005763774970546365,-0.0006293468177318573
1783246385560183800,3.865183837890625,0.0004983246326446533,0.0011325950035825372,-0.00017435569316148758
1783246385570195700,3.87519580078125,-0.00007558660581707954,-0.00015477696433663368,-0.0001429300755262375
1783246385580206800,3.885206787109375,0.000025015324354171753,0.0006105785723775625,0.000867045484483242
1783246385590218800,3.89521875,-0.0006434379611164331,-0.0006749292369931936,0.0008521317504346371
1783246385600229600,3.905229736328125,-0.000022018328309059143,0.00010298378765583038,0.00041626766324043274
1783246385610241800,3.91524169921875,0.0008927774615585804,-0.0005726602394133806,0.0007491628639400005
1783246385620253700,3.925253662109375,-0.0007384533528238535,-0.000055702170357108116,-0.00031124288216233253
1783246385630264800,3.935264892578125,0.0004905953537672758,-0.00006742007099092007,-0.0006545241922140121
1783246385640276700,3.94527685546875,-0.0006250974256545305,-0.0008553573861718178,-0.000021443702280521393
1783246385650287900,3.955287841796875,0.00019568880088627338,0.00046636955812573433,0.000967920757830143
1783246385660299800,3.9652998046875,0.00013580219820141792,0.0014281992334872484,0.0018641841597855091
1783246385670311700,3.975311767578125,0.0001997179351747036,-0.00037263031117618084,0.001529158093035221
1783246385680322800,3.98532275390625,-0.00015459535643458366,0.0002498998073861003,0.00043128058314323425
1783246385690334700,3.995334716796875,0.0010060102213174105,-0.0006507812067866325,-0.000255814753472805
1783246385700345900,4.005345947265625,-0.00035287789069116116,-0.0001350759994238615,0.0003705667331814766
1783246385710358000,4.01535791015625,0.0011952174827456474,0.00041380152106285095,0.0007127826102077961
1783246385720370000,4.025369873046875,0.00021892902441322803,-0.0006387599278241396,0.0005575902760028839
1783246385730380800,4.035380859375,-0.0007419392932206392,0.0007633945206180215,-0.00033084023743867874
1783246385740392700,4.045392822265625,-0.000287206145003438,-0.0006287866272032261,0.0009341542609035969
1783246385750403800,4.05540380859375,-0.0015213149599730968,0.0004021229688078165,-0.0007657413370907307
1783246385760415700,4.065415771484375,0.00008157803677022457,-0.00027994229458272457,-0.000056084711104631424
1783246385770427600,4.075427734375,-0.0003139013424515724,-0.00032494962215423584,-0.0001423712819814682
1783246385780438800,4.085438720703125,0.0005949398037046194,-0.001447909977287054,-0.00016755098477005959
1783246385790450700,4.09545068359375,-0.0005353055894374847,-0.000284907640889287,0.00041035469621419907
1783246385800461800,4.1054619140625,-0.0006193662993609905,0.0005014664493501186,-0.00015140464529395103
1783246385810473700,4.1154736328125,0.0010496368631720543,-6.752088665962219e-9,-0.00009787501767277718
1783246385820486000,4.12548583984375,0.0007965599652379751,0.00016366050112992525,-0.00037709157913923264
1783246385830496800,4.135496826171875,0.00030067935585975647,0.00014848052524030209,0.00014222506433725357
1783246385840508700,4.1455087890625,0.0011889536399394274,0.0007756961276754737,-0.00003467034548521042
1783246385850519800,4.155519775390625,-0.0004989576991647482,-0.00044882530346512794,0.0007949043065309525
1783246385860531700,4.16553173828125,-0.0004577399231493473,-0.0006614788435399532,0.000009356532245874405
1783246385870543600,4.175543701171875,-0.0013030271511524916,0.0013289677444845438,-0.0005216775462031364
1783246385880554800,4.1855546875,-0.0007512315642088652,-0.0005825203843414783,-0.0007825172506272793
1783246385890567000,4.19556689453125,-0.00029716244898736477,0.00022548274137079716,-0.0010989008005708456
1783246385900577800,4.205577880859375,0.0011228241492062807,0.0005296060116961598,-0.0007216187659651041
1783246385910589700,4.215589599609375,0.0003078968729823828,0.000559699721634388,0.0016400725580751896
1783246385920601900,4.225601806640625,-0.0014640777371823788,0.0008067245362326503,0.0008007758297026157
1783246385930612700,4.23561279296875,0.000006786081939935684,-0.00029502506367862225,-0.0005142930895090103
1783246385940624600,4.245624755859375,-0.0002738689072430134,0.0006392250070348382,0.001183872576802969
1783246385950635800,4.2556357421875,0.000289389630779624,0.0018749317387118936,-0.001101386034861207
1783246385960648000,4.26564794921875,-0.0007789167575538158,0.00013006955850869417,-0.00037333834916353226
1783246385970659800,4.275659912109375,-0.0007783845067024231,0.0002786739496514201,-0.00027879606932401657
1783246385980670700,4.285670654296875,0.0006551565602421761,0.0004501908551901579,-0.00023879902437329292
1783246385990683000,4.295682861328125,0.00038431305438280106,0.000057108234614133835,0.000889049842953682
1783246386000693800,4.30569384765625,0.0005646222271025181,0.0003437985433265567,-0.0014043317642062902
1783246386010705700,4.31570556640625,0.0007499782368540764,0.00048681022599339485,-0.0009710353333503008
1783246386020717800,4.3257177734375,-0.0009704965632408857,-0.0015829694457352161,-0.00013109995052218437
1783246386030728700,4.335728759765625,0.001217822777107358,0.00034169701393693686,-0.00018915673717856407
1783246386040740600,4.34574072265625,-0.00019808881916105747,-0.0007474096491932869,0.00044272327795624733
1783246386050751700,4.355751708984375,0.0001798137091100216,-0.0004427439998835325,0.00045097898691892624
1783246386060764000,4.365763916015625,0.0008751805871725082,-0.0010308756027370691,-0.0007074233144521713
1783246386070775800,4.37577587890625,-0.0006092654075473547,0.0010519827483221889,-0.0008562938310205936
1783246386080786700,4.38578662109375,0.0011597531847655773,0.0011081101838499308,-0.0001017577014863491
1783246386090798800,4.395798828125,0.00029475847259163857,-0.00021042092703282833,-0.00018484797328710556
1783246386100809700,4.405809814453125,0.00037992047145962715,-0.00047381920740008354,-0.00018017832189798355
1783246386110821600,4.415821533203125,0.0007162776309996843,0.00006307405419647694,0.00042968522757291794
1783246386120833800,4.425833740234375,0.0004959932994097471,0.002058530692011118,0.0014605391770601273
1783246386130845000,4.435844970703125,0.0009681717492640018,-0.0005308608524501324,-0.000024972017854452133
1783246386140856800,4.44585693359375,-0.00004729698412120342,-0.0007616558577865362,-0.0007496429607272148
1783246386150867700,4.45586767578125,0.0012683046516031027,-0.00034353951923549175,0.000925219152122736
1783246386160879900,4.4658798828125,0.00010336469858884811,-0.00014011934399604797,0.00042537692934274673
1783246386170891800,4.475891845703125,0.0017249634256586432,0.0006945152999833226,-0.0014138021506369114
1783246386180902700,4.485902587890625,0.0008147438056766987,0.00022285839077085257,-0.0007841328624635935
1783246386190914800,4.495914794921875,0.0003172655124217272,0.0020322101190686226,0.0007064384408295155
1783246386200926000,4.505926025390625,-0.0005994387902319431,-0.000551269855350256,-0.0011445947457104921
1783246386210937900,4.515937744140625,0.0010176326613873243,-0.0016932333819568157,0.00029963767156004906
1783246386220950000,4.525949951171875,-0.0018361108377575874,-0.00022460403852164745,0.0003951024264097214
1783246386230961000,4.5359609375,0.0005807080306112766,0.0012169650290161371,-0.0006595095619559288
1783246386240972800,4.545972900390625,0.0005261469632387161,-0.0002670660614967346,-0.00030894065275788307
1783246386250983700,4.555983642578125,-0.0002190053928643465,0.0004282852169126272,-0.0005225264467298985
1783246386260995800,4.565995849609375,0.00040832720696926117,-0.00019396678544580936,-0.00017339736223220825
1783246386271007700,4.5760078125,0.00022883014753460884,-0.00019982573576271534,0.00038879597559571266
1783246386281018600,4.5860185546875,-0.00021537835709750652,-0.000026543857529759407,0.0010112044401466846
1783246386291030800,4.59603076171875,-0.0016167336143553257,0.0005007620202377439,-0.00037576956674456596
1783246386301042000,4.6060419921875,0.0011477118823677301,0.0011562914587557316,0.00011442508548498154
1783246386311053800,4.6160537109375,-0.0007077124901115894,0.00037385476753115654,0.0017586606554687023
1783246386321066000,4.62606591796875,-0.0006571863777935505,-0.000853358767926693,-0.0004644240252673626
1783246386331076900,4.636076904296875,0.0001007493119686842,-0.0004738583229482174,-0.0011941301636397839
1783246386341088800,4.6460888671875,-0.0008466539438813925,-0.0008414741605520248,0.0007052281871438026
1783246386351099600,4.656099609375,-0.0007936570327728987,0.00013057957403361797,-0.0014993364457041025
1783246386361111800,4.66611181640625,-0.000735101755708456,-0.00033577741123735905,0.0016761203296482563
1783246386371123700,4.676123779296875,0.0010939573403447866,0.0005915352376177907,-0.0005385642871260643
1783246386381134800,4.686134765625,-0.00031712441705167294,-0.00017744279466569424,-0.0007602991536259651
1783246386391147000,4.69614697265625,0.0014682586770504713,-0.000893566757440567,-0.0011541808489710093
1783246386401158000,4.706157958984375,0.0007940402720123529,-0.00024048006162047386,-0.00011907611042261124
1783246386411169800,4.716169677734375,0.0008544940501451492,-0.00023462111130356789,0.0002274010330438614
1783246386421181700,4.726181640625,-0.0003590141423046589,0.0012356278020888567,-0.0004436420276761055
1783246386431192800,4.73619287109375,0.00042794994078576565,0.0015687892446294427,0.0007819449529051781
1783246386441204700,4.746204833984375,-0.0000765433069318533,-0.0002617861609905958,-0.0005281600169837475
1783246386451216000,4.7562158203125,-0.0015178460162132978,0.00034514826256781816,0.0008545531891286373
1783246386461227800,4.766227783203125,-0.0017977484967559576,-0.00010808021761476994,-0.0003476426936686039
1783246386471239700,4.77623974609375,0.0003556834999471903,-0.0004060880746692419,-0.0001316606067121029
1783246386481250800,4.786250732421875,-0.0007447339594364166,-0.0001795017160475254,0.0016877036541700363
1783246386491262700,4.7962626953125,0.0006126794032752514,-0.0004972168244421482,-0.0005858368240296841
1783246386501273900,4.80627392578125,-0.0007063718512654305,0.00005088956095278263,-0.0011926942970603704
1783246386511285800,4.81628564453125,0.0012513180263340473,0.00033531500957906246,-0.00027976278215646744
1783246386521297700,4.826297607421875,-0.0006612646393477917,-0.0007704945746809244,-0.0003321496769785881
1783246386531308800,4.836308837890625,0.00018535437993705273,-0.0000916547141969204,0.00001539289951324463
1783246386541320700,4.84632080078125,-0.0010773881804198027,0.0012156032025814056,0.00004980061203241348
1783246386551331800,4.856331787109375,0.0005918813403695822,0.0005988151533529162,0.0003035999834537506
1783246386561343000,4.866343017578125,-0.0009269709698855877,0.0010836621513590217,0.0006570713594555855
1783246386571355000,4.87635498046875,-0.0005155126564204693,-0.00004525179974734783,-0.00012003909796476364
1783246386581365800,4.88636572265625,-0.0004245953168720007,-0.00003998028114438057,0.0008597257547080517
1783246386591378000,4.8963779296875,0.0019978161435574293,0.0006172878202050924,-0.0010015573352575302
1783246386601389000,4.90638916015625,-0.0004815245047211647,0.000015796395018696785,0.00013228226453065872
1783246386611401000,4.91640087890625,0.0007323441095650196,0.0005223295884206891,0.0009919507429003716
1783246386621413000,4.9264130859375,0.0017404691316187382,-0.00015625031664967537,0.0004680459387600422
1783246386631424000,4.936424072265625,0.0007734752725809813,0.0006677316268905997,0.0008470136672258377
1783246386641436000,4.946435791015625,0.00043853186070919037,0.0013959775678813457,-0.001688026124611497
1783246386651446800,4.95644677734375,0.0008420005906373262,0.0006313840858638287,-0.0013934806920588017
1783246386661459000,4.966458984375,-0.0006034718826413155,0.00010612839832901955,-0.001597546972334385
1783246386671470800,4.976470947265625,-0.0006817688699811697,0.00030133803375065327,-0.00008194195106625557
1783246386681481700,4.986481689453125,0.0005024692509323359,0.0002508931793272495,0.0003832140937447548
1783246386691494000,4.996493896484375,0.0006803683936595917,0.0010687500471249223,0.000813846942037344
1783246386701505000,5.006505126953125,0.0007450343109667301,0.00022986717522144318,-0.0011377464979887009
1783246386711517000,5.016516845703125,-0.0003572481218725443,-0.0005701463669538498,0.0007826588116586208
1783246386721529000,5.026529052734375,-0.0008569029159843922,-0.0002538238186389208,-0.00036327727138996124
1783246386731540000,5.0365400390625,0.0001569623127579689,0.0011086493032053113,-0.00019469903782010078
1783246386741551900,5.0465517578125,0.0004502569790929556,0.0005771884461864829,0.0004685232415795326
1783246386751562800,5.056562744140625,-0.0003233912866562605,0.0018304720288142562,-0.00023295311257243156
1783246386761575000,5.066574951171875,-0.0007030407432466745,0.0005485302535817027,0.0001101628877222538
1783246386771586800,5.0765869140625,-0.00017174007371068,-0.0010517630726099014,0.0009658364579081535
1783246386781598000,5.086597900390625,-0.0002211050596088171,0.0003244334366172552,0.0006192759610712528
1783246386791610000,5.096610107421875,-0.00019394094124436378,0.00011484255082905293,0.0005090208724141121
1783246386801621000,5.10662109375,0.0028617868665605783,0.001172571792267263,-0.00012288475409150124
1783246386811633000,5.1166328125,0.0016388633521273732,0.00018533808179199696,-0.0004086419939994812
1783246386821645000,5.12664501953125,-0.0009911321103572845,-0.0004947511479258537,0.0001449817791581154
1783246386831656000,5.136656005859375,-0.0004867296665906906,-0.0003823656588792801,-0.0017980604898184538
1783246386841667800,5.146667724609375,0.00027515925467014313,0.0010915974853560328,-0.0001336834393441677
1783246386851679000,5.156678955078125,0.0007678440306335688,0.000336591387167573,0.00022957194596529007
1783246386861691000,5.16669091796875,-0.00041650934144854546,0.0019498536130413413,-0.00023005623370409012
1783246386871702800,5.176702880859375,0.00013609672896564007,0.0009655492613092065,-0.0018276867922395468
1783246386881714000,5.1867138671875,-0.0003453402314335108,0.00059798255097121,0.00042552920058369637
1783246386891726000,5.19672607421875,0.00039235525764524937,0.0018720388179644942,-0.000548921525478363
1783246386901737000,5.206737060546875,0.0016626558499410748,0.00036416854709386826,0.00004417635500431061
1783246386911748900,5.216748779296875,-0.00005854526534676552,0.0012992043048143387,0.00012273946776986122
1783246386921760800,5.2267607421875,-0.0008963297586888075,0.0005834525218233466,-0.0010141122620552778
1783246386931772000,5.23677197265625,-0.0003905955236405134,0.00030994589906185865,0.0002572806552052498
1783246386941783800,5.24678369140625,0.00144611403811723,0.0009394685039296746,0.001529846340417862
1783246386951795000,5.256794921875,0.0002048145979642868,-0.00006747269071638584,-0.0003519435413181782
1783246386961807000,5.26680712890625,0.0002052981872111559,0.00016080355271697044,0.0006275107152760029
1783246386971819000,5.276819091796875,-0.0010698235128074884,0.00028437410946935415,0.0009976900182664394
1783246386981830000,5.286829833984375,0.0002289989497512579,-0.000509507954120636,0.00022487808018922806
1783246386991841800,5.296841796875,-0.00009803706780076027,-0.0000011106021702289581,0.0017767022363841534
1783246387001853000,5.30685302734375,-0.0012218067422509193,0.000049090711399912834,-0.0000935988500714302
1783246387011864800,5.31686474609375,-0.0009003630839288235,0.0007777316495776176,-0.001125840237364173
1783246387021876700,5.326876708984375,-0.00013246550224721432,-0.0004918002523481846,0.0006137914024293423
1783246387031888100,5.33688818359375,-0.00016868463717401028,0.0007481676293537021,-0.0012677318882197142
1783246387041900000,5.346900146484375,-0.0004482970107346773,0.0007116867927834392,-0.0009997696615755558
1783246387051911000,5.356910888671875,-0.0011092934291809797,-0.000639601144939661,0.0007579168304800987
1783246387061923000,5.366923095703125,0.0001884005032479763,-0.0015261718071997166,0.00022042542695999146
1783246387071935000,5.37693505859375,-0.0002752558793872595,0.0008823911193758249,0.0012271003797650337
1783246387081945900,5.38694580078125,-0.000919183949008584,0.00026381562929600477,0.00009111827239394188
1783246387091957800,5.396957763671875,0.00029521738179028034,0.0006808667676523328,0.0005782106891274452
1783246387101969000,5.406968994140625,-0.0007101136725395918,0.0003732092445716262,0.00024084094911813736
1783246387111980800,5.416980712890625,-0.001202265964820981,0.0010371352545917034,0.0006893170066177845
1783246387121992700,5.42699267578125,0.0004150706809014082,0.0007407080847769976,-0.0003850669600069523
1783246387132004000,5.437004150390625,-0.00022861547768115997,0.0003865075996145606,-0.00047641340643167496
1783246387142016000,5.44701611328125,0.000554187223315239,0.0006323280977085233,0.0012432043440639973
1783246387152027000,5.45702685546875,-0.0006386428140103817,-0.00002307584509253502,-0.0001269918866455555
1783246387162038800,5.467038818359375,-0.000022473745048046112,0.00014510622713714838,-0.00005696481093764305
1783246387172051000,5.477051025390625,-0.00007147598080337048,0.0005136876134201884,0.0010461164638400078
1783246387182061800,5.487061767578125,-0.0000788422767072916,-0.0003119485918432474,0.0007969080470502377
1783246387192073700,5.49707373046875,0.00027535809203982353,-0.0004696075338870287,-0.0009812847711145878
1783246387202085000,5.507085205078125,-0.001500345766544342,-0.0001167661976069212,0.0008292561396956444
1783246387212097000,5.517096923828125,-0.0003977969754487276,0.0020654278341680765,-0.00010604597628116608
1783246387222109000,5.52710888671875,0.00037403195165097713,-0.0011184713803231716,-0.0007124552503228188
1783246387232119800,5.537119873046875,0.0012355645885691047,0.0001646396704018116,0.0006859707646071911
1783246387242132000,5.547132080078125,-0.00006178650073707104,-0.00028326548635959625,0.00033615995198488235
1783246387252142800,5.557142822265625,0.0013507540570572019,-0.00033306656405329704,-0.0004718429408967495
1783246387262154800,5.56715478515625,0.00042956392280757427,-0.000885956222191453,-0.0000674854964017868
1783246387272167000,5.5771669921875,0.0013643335551023483,0.0001974176848307252,0.0015197587199509144
1783246387282178000,5.587177978515625,0.0010135774500668049,-0.0005379917565733194,0.0015959502197802067
1783246387292190000,5.59718994140625,-0.0013454505242407322,-0.0004394548013806343,0.0005109780468046665
1783246387302200800,5.607200927734375,0.00021872343495488167,-0.00005983840674161911,0.0008106906898319721
1783246387312213000,5.617212890625,-0.001075040316209197,-0.00020870915614068508,0.0007989727891981602
1783246387322225000,5.627224853515625,0.000718728406354785,-0.0006883023306727409,0.0012146052904427052
1783246387332235800,5.63723583984375,-0.00019287155009806156,0.0006046624621376395,0.0008372357115149498
1783246387342248000,5.647248046875,-0.00039225630462169647,-0.00193023681640625,-0.000647163949906826
1783246387352258800,5.6572587890625,-0.0017483376432210207,-0.00022554723545908928,-0.0002588750794529915
1783246387362270700,5.667270751953125,-0.0005264750216156244,0.0008894618367776275,0.00017775222659111023
1783246387372283000,5.677282958984375,0.000011217314749956131,-0.00002400251105427742,-0.00015567569062113762
1783246387382294000,5.6872939453125,-0.0006650704890489578,-0.0005259558092802763,-0.0003236476331949234
1783246387392306000,5.697305908203125,0.0017669281223788857,0.000531585537828505,0.000867051538079977
1783246387402316800,5.70731689453125,0.0019403178011998534,0.0003650703001767397,0.0014276523143053055
1783246387412329000,5.717328857421875,0.00046918774023652077,0.0000321750994771719,0.001010068692266941
1783246387422340900,5.7273408203125,-0.0007975117769092321,0.000410728738643229,0.0016215424984693527
1783246387432351700,5.737351806640625,-0.0005812630988657475,0.0005074014188721776,0.0011136778630316257
1783246387442364000,5.747364013671875,0.000629400135949254,-0.00047359964810311794,0.001577794086188078
1783246387452375000,5.757375,-0.0008792805019766092,0.00012428010813891888,-0.00018654996529221535
1783246387462387000,5.767386962890625,-0.0006415066309273243,-0.0005931700579822063,0.001052782405167818
1783246387472399000,5.777399169921875,-0.000565606402233243,-0.0006557544693350792,0.0001345244236290455
1783246387482410000,5.787409912109375,0.0008007122669368982,-0.0012184453662484884,-0.0004287799820303917
1783246387492422000,5.797421875,0.0009272124152630568,-0.0008168406784534454,0.00023461319506168365
1783246387502432800,5.807432861328125,-0.00022294605150818825,-0.00013046409003436565,-0.0012820479460060596
1783246387512445000,5.81744482421875,0.000051892129704356194,0.0008309369441121817,0.0015504900366067886
1783246387522456800,5.827456787109375,0.0006487795617431402,-0.0007464578375220299,0.0013070618733763695
1783246387532468000,5.837468017578125,-0.0005304680671542883,0.00023038964718580246,0.0007030568085610867
1783246387542480000,5.84747998046875,-0.0007782496977597475,-0.0007031396962702274,0.0005324119701981544
1783246387552491000,5.857490966796875,-0.00038170511834323406,-0.0004362908657640219,0.0011065895669162273
1783246387562504000,5.86750390625,-0.001183181768283248,0.000043552136048674583,-0.000703857745975256
1783246387572515800,5.877515869140625,-0.0008308456744998693,0.0001255776733160019,0.00020854128524661064
1783246387582527000,5.88752685546875,-0.0004523403476923704,0.0006574242142960429,0.001489385962486267
1783246387592539000,5.897538818359375,-0.0004771077074110508,0.0008694118587300181,0.0013743373565375805
1783246387602550000,5.907550048828125,-0.0004923732485622168,-0.0010844867210835218,0.0014271554537117481
1783246387612562000,5.91756201171875,0.0006109743844717741,-0.0001779466401785612,-0.0003129541873931885
1783246387622573800,5.92757373046875,0.00019739335402846336,0.0007618798408657312,-0.0006080572493374348
1783246387632584700,5.937584716796875,-0.00032165669836103916,-0.0003862089943140745,0.0002958192490041256
1783246387642596900,5.947596923828125,-0.000015966128557920456,-0.0009194833692163229,0.0006334828212857246
1783246387652608000,5.95760791015625,-0.0008990706410259008,-0.0005165471229702234,-0.0005947668105363846
1783246387662620000,5.967619873046875,0.00015456974506378174,-0.000355470459908247,-0.0016338981222361326
1783246387672632000,5.977632080078125,0.000099176075309515,-0.0006337705999612808,-0.0002615712583065033
1783246387682643000,5.987642822265625,0.00014432216994464397,0.0012149078538641334,0.0007105888798832893
1783246387692654800,5.99765478515625,-0.0010128212161362171,-0.000058349454775452614,-0.0009075475391000509
1783246387702665700,6.007665771484375,-0.00018317298963665962,-0.00009192805737257004,0.00005034729838371277
1783246387712678000,6.017677978515625,-0.0007943687960505486,0.001651643542572856,0.0004466255195438862
1783246387722689000,6.02768896484375,0.0007746871560811996,0.0015303740510717034,-0.00008259527385234833
1783246387732701000,6.037700927734375,0.0010220948606729507,0.0005916097434237599,-0.0006237495690584183
1783246387742713000,6.047713134765625,-0.00006239907816052437,-0.0008745740633457899,0.00008899392560124397
1783246387752724000,6.057723876953125,-0.00013110856525599957,0.0008029511664062738,-0.0007304609753191471
1783246387762735900,6.06773583984375,0.0010313901584595442,-0.0003013252280652523,-0.0001553380861878395
1783246387772746800,6.077746826171875,0.000512606231495738,-0.00008294591680169106,0.0006239027716219425
1783246387782759000,6.087759033203125,-0.000011613825336098671,-0.0005090928170830011,0.00014068325981497765
1783246387792770800,6.097770751953125,0.0007630998734384775,0.001641942304559052,0.00047464389353990555
1783246387802781700,6.10778173828125,-0.000092353206127882,-0.00028104078955948353,-0.001618664711713791
1783246387812793900,6.1177939453125,0.0001862135250121355,-0.0007372403051704168,0.0011086785234510899
1783246387822805000,6.127804931640625,-0.0002341677900403738,-0.0005135666579008102,0.0006081312894821167
1783246387832817000,6.13781689453125,-0.0005436271894723177,-0.0005678951274603605,-0.000265385489910841
1783246387842829000,6.1478291015625,-0.001790191512554884,0.00033589056693017483,0.0005235327407717705
1783246387852840000,6.15783984375,0.0010790983214974403,-0.0007336349226534367,-0.0002684914506971836
1783246387862851800,6.167851806640625,-0.0002761753275990486,0.0006234057946130633,-0.00032440898939967155
1783246387872862700,6.17786279296875,0.000073231291025877,0.0015499196015298367,0.00008012540638446808
1783246387882875000,6.187875,-0.0007717534899711609,-0.0010454668663442135,-0.00013114651665091515
1783246387892886800,6.19788671875,0.000949979992583394,-0.00015330803580582142,0.00036180438473820686
1783246387902898000,6.20789794921875,0.00008279690518975258,-0.00011812848970293999,0.0004624752327799797
1783246387912910000,6.21791015625,-0.00040536047890782356,0.0011897499207407236,0.00038337940350174904
1783246387922921000,6.2279208984375,-0.0008901562541723251,-0.0009769995231181383,0.0004075155593454838
1783246387932932900,6.237932861328125,0.00038709607906639576,0.0006067825015634298,-0.0006111436523497105
1783246387942945000,6.247945068359375,0.00042220274917781353,-0.00017735688015818596,-0.0007521309889853001
1783246387952956000,6.257955810546875,-0.0006015163380652666,0.000649821013212204,-0.00046797143295407295
1783246387962967800,6.2679677734375,-0.0007085453253239393,0.0010461703641340137,0.0011081523261964321
1783246387972979000,6.27797900390625,0.0004254286177456379,-0.00015677954070270061,-0.0018341077957302332
1783246387982991000,6.2879912109375,-0.00039397343061864376,0.000765901175327599,-0.00018328707665205002
1783246387993003000,6.2980029296875,0.00022201566025614738,0.00041889131534844637,-0.00026105111464858055
1783246388003014000,6.308013916015625,0.000647406792268157,0.001206784974783659,-0.00007284479215741158
1783246388013026000,6.318026123046875,0.0004529959987848997,-0.00007020076736807823,0.0006190445274114609
1783246388023037000,6.328036865234375,-0.0002576147671788931,-0.0005696713924407959,0.0008752895519137383
1783246388033048800,6.338048828125,0.0011623827740550041,0.0003051770618185401,-0.00007173046469688416
1783246388043061000,6.34806103515625,0.0002295803278684616,0.0015189158730208874,0.0014252807013690472
1783246388053072000,6.35807177734375,0.000005608424544334412,-0.0005801876541227102,-0.0005182940512895584
1783246388063083800,6.368083740234375,-0.0006456573028117418,-0.0007731989026069641,-0.0023855569306761026
1783246388073095000,6.378094970703125,-0.0008113058283925056,0.0002787496196106076,0.00183581979945302
1783246388083107000,6.388107177734375,-0.0007812189869582653,0.0003161319764330983,0.0008732718415558338
1783246388093119000,6.398118896484375,-0.0005021197721362114,-0.0012029351200908422,0.0006407778710126877
1783246388103129900,6.4081298828125,-0.0000478250440210104,0.0003023275639861822,-0.0005963952280580997
1783246388113142000,6.41814208984375,-0.0005245308857411146,0.001893299981020391,-0.0020723191555589437
1783246388123153000,6.42815283203125,0.0011834327597171068,0.0007078868802636862,-0.000703978817909956
1783246388133164800,6.438164794921875,0.0007181784603744745,0.000353420153260231,0.00004330417141318321
1783246388143176700,6.4481767578125,-0.00038470816798508167,-0.0004970482550561428,0.0005518859252333641
1783246388153188000,6.45818798828125,-0.0006251917220652103,0.0001959062647074461,-0.0006374819204211235
1783246388163200000,6.468199951171875,-0.0011037732474505901,0.0008065421134233475,-0.000741950236260891
1783246388173211000,6.4782109375,0.0010286197066307068,0.0005317038157954812,0.00003995373845100403
1783246388183223000,6.48822314453125,-0.000859967665746808,0.00029120733961462975,0.0007692030631005764
1783246388193235000,6.49823486328125,0.00008492195047438145,-0.00046513043344020844,0.000619799830019474
1783246388203245800,6.508245849609375,-0.00048607541248202324,0.001154054538346827,0.00009902613237500191
1783246388213258000,6.518258056640625,-0.00010178121738135815,-0.0003224019892513752,0.0002313852310180664
1783246388223268900,6.528268798828125,-0.0005501809064298868,-0.00016129552386701107,0.0014396770857274532
1783246388233281000,6.538281005859375,-0.0003373941872268915,-0.00016449135728180408,0.00002314150333404541
1783246388243293000,6.54829296875,-0.00039902329444885254,-0.0016505711246281862,0.0006767590530216694
1783246388253304000,6.558303955078125,0.0008963383734226227,-0.00044842041097581387,0.00010311417281627655
1783246388263316000,6.56831591796875,-0.001850788714364171,0.0005979315610602498,0.000060259830206632614
1783246388273326800,6.578326904296875,0.00013885879889130592,-0.0006883752066642046,0.0004613315686583519
1783246388283339000,6.588339111328125,-0.00015471153892576694,-0.00036104442551732063,0.0011439453810453415
1783246388293351000,6.598350830078125,-0.0011347548570483923,-0.0000015178229659795761,0.0001319441944360733
1783246388303361800,6.60836181640625,0.000130172586068511,0.00040528702083975077,-0.000037845224142074585
1783246388313373700,6.618373779296875,0.000013792421668767929,0.0008969064801931381,-0.0003901817835867405
1783246388323385000,6.628385009765625,0.0013409388484433293,-0.0011579964775592089,0.000894465483725071
1783246388333397000,6.63839697265625,-0.0009088998194783926,-0.0014155241660773754,0.0010691690258681774
1783246388343407900,6.648407958984375,-0.0007500713691115379,-0.0011071613989770412,0.0005866033025085926
1783246388353420000,6.658419921875,0.001528262859210372,-0.00002059154212474823,0.001018834300339222
1783246388363432000,6.668431884765625,0.00016284058801829815,0.0005047123413532972,-0.001787995221093297
1783246388373442800,6.67844287109375,0.00019266805611550808,0.001024827710352838,-0.0006279223598539829
1783246388383454700,6.688454833984375,0.0003317291848361492,-0.0002041321713477373,0.0019830530509352684
1783246388393466000,6.698466064453125,0.0000699404627084732,0.00040599796921014786,-0.0008335059974342585
1783246388403478000,6.70847802734375,-0.0005356993060559034,0.000459856353700161,-0.0005980394780635834
1783246388413490000,6.718489990234375,0.00033861654810607433,-0.0009124705102294683,-0.00023451773449778557
1783246388423501000,6.7285009765625,-0.00046796933747828007,0.001210506772622466,-0.0023220235016196966
1783246388433513000,6.738512939453125,-0.0011321618221700191,0.0028744498267769814,0.0007225023582577705
1783246388443523800,6.74852392578125,-0.0012366615701466799,-0.0009328834712505341,0.00027682865038514137
1783246388453535700,6.75853564453125,-0.0005508977919816971,0.0003454337129369378,-0.00006538769230246544
1783246388463548000,6.7685478515625,0.00020117126405239105,0.0007127136923372746,0.0008557871915400028
1783246388473558800,6.778558837890625,-0.0005514379590749741,-0.0006079478189349174,0.0001457887701690197
1783246388483570700,6.78857080078125,0.0008335371967405081,0.00004946650005877018,-0.0008147754706442356
1783246388493582000,6.79858203125,-0.0006983131170272827,-0.00015346636064350605,-0.00010557565838098526
1783246388503594000,6.808593994140625,-0.0003318020608276129,-0.002755040070042014,-0.00046814512461423874
1783246388513606000,6.81860595703125,0.00039124605245888233,0.00010785809718072414,0.0000596935860812664
1783246388523617000,6.828616943359375,-0.000246566953137517,-0.0010137022472918034,0.0008706669323146343
1783246388533629000,6.83862890625,-0.0011296714656054974,-0.0013034543953835964,-0.0010177802760154009
1783246388543639800,6.848639892578125,-0.000018336577340960503,-0.00015585217624902725,0.00021278159692883492
1783246388553651700,6.858651611328125,-0.00035788980312645435,-0.00007515843026340008,0.0001717689447104931
1783246388563663400,6.868663330078125,-0.0002247476950287819,0.0006454070098698139,0.0016353609971702099
1783246388573674500,6.878674560546875,-0.000059898244217038155,0.0011543371947482228,-0.0006307228468358517
1783246388583686400,6.888686279296875,-0.001044737407937646,0.00025092216674238443,-0.0002421969547867775
1783246388593697300,6.898697265625,0.0010647526942193508,0.00025278644170612097,-0.0005870764143764973
1783246388603709200,6.908709228515625,-0.0015015846583992243,0.00004694005474448204,0.00030551524832844734
1783246388613721300,6.918721435546875,0.0009322783444076777,0.00003735278733074665,0.0009910129010677338
1783246388623732200,6.928732177734375,-0.0008049369789659977,-0.0002833902835845947,-0.00046342238783836365
1783246388633744100,6.938744140625,-0.0003857554402202368,-0.00029271142557263374,-0.0005289358086884022
1783246388643755500,6.948755615234375,-0.0009071757085621357,0.0002392198657616973,0.0005817343480885029
1783246388653767400,6.958767333984375,-0.0005130278877913952,0.0009865029715001583,-0.0009961887262761593
1783246388663779300,6.968779296875,-0.0009447098709642887,-0.0003289114683866501,0.00008301669731736183
1783246388673790200,6.978790283203125,-0.0011761384084820747,0.0006708392174914479,0.00026331283152103424
1783246388683802400,6.98880224609375,-0.0010828669182956219,0.00003654207102954388,-0.00022327713668346405
1783246388693813200,6.998813232421875,-0.00012279720976948738,0.0007705091265961528,-0.0013718982227146626
1783246388703825200,7.0088251953125,-0.00034150644205510616,0.0005564175080507994,-0.00019655190408229828
1783246388713837300,7.01883740234375,-0.0011487107258290052,0.0005742606008425355,0.0005557909607887268
1783246388723848400,7.028848388671875,-0.00009051128290593624,-0.00021804310381412506,-0.001793894451111555
1783246388733860400,7.0388603515625,-0.0003307284787297249,0.00042218074668198824,-0.001466592075303197
1783246388743871200,7.048871337890625,-0.0007899424526840448,-0.0005510777700692415,0.0001386706717312336
1783246388753883400,7.05888330078125,-0.0008187044877558947,-0.0003361606504768133,-0.00039742374792695045
1783246388763894300,7.068894287109375,-0.0002641333267092705,0.0008256149012595415,-0.0009142691269516945
1783246388773906200,7.07890625,0.00024053570814430714,0.001660516019910574,0.0016817804425954819
1783246388783918300,7.08891845703125,-0.0014571510255336761,0.00013240077532827854,-0.0001704101450741291
1783246388793929200,7.09892919921875,-0.0005572689697146416,0.0013705042656511068,0.0009305402636528015
1783246388803941400,7.10894140625,0.00026937411166727543,-0.0006158484611660242,-0.000624124426394701
1783246388813952500,7.118952392578125,0.00041558174416422844,0.0009370406623929739,-0.00039429357275366783
1783246388823964400,7.12896435546875,0.0006543421186506748,0.00021830853074789047,0.00003315135836601257
1783246388833976300,7.138976318359375,0.0006218515336513519,0.00016611069440841675,0.0009665894322097301
1783246388843987200,7.1489873046875,-0.0008047728333622217,-0.0003123609349131584,-0.0013684523291885853
1783246388853999400,7.158999267578125,0.0005608960054814816,-0.00025510299019515514,0.00044409511610865593
1783246388864010200,7.16901025390625,-0.0010493025183677673,-0.00040946505032479763,-0.0017805357929319143
1783246388874022100,7.179022216796875,-0.0012501049786806107,-0.0003676535561680794,0.000044794753193855286
1783246388884034300,7.189034423828125,0.0007284788880497217,-0.0002215169370174408,0.0003276560455560684
1783246388894045400,7.19904541015625,0.0008051779586821795,0.0001369444653391838,-0.0019461510237306356
1783246388904057300,7.209057373046875,-0.0003424007445573807,-0.0002587810158729553,0.0013746325857937336
1783246388914068200,7.219068115234375,0.0005934340879321098,-0.0007786299102008343,-0.00014203786849975586
1783246388924080400,7.229080322265625,0.00007810164242982864,-0.00027294503524899483,0.00030260859057307243
1783246388934092300,7.23909228515625,0.000793160405009985,-0.00011981325224041939,0.000931114424020052
1783246388944103200,7.249103271484375,-0.0007679190021008253,0.00011459807865321636,-0.0007073991000652313
1783246388954115300,7.259115234375,-0.00003208755515515804,0.0002757192123681307,-0.0018288560677319765
1783246388964126500,7.26912646484375,-0.0013966062106192112,0.001414225553162396,-0.0017333489377051592
1783246388974138400,7.279138427734375,0.000032712239772081375,0.00043444859329611063,-0.000590320210903883
1783246388984150500,7.289150634765625,0.0010831577237695456,-0.0003613161388784647,0.0009287022985517979
1783246388994161400,7.299161376953125,0.00047409278340637684,-0.0002582517918199301,-0.0005496181547641754
1783246389004173300,7.30917333984375,0.00012296694330871105,-0.0008121305145323277,0.0005119428969919682
1783246389014184200,7.31918408203125,-0.001317803282290697,-0.0002078590914607048,0.0002600080333650112
1783246389024196400,7.3291962890625,0.001278359442949295,-0.00010396377183496952,-0.0005603102035820484
1783246389034208300,7.339208251953125,0.00107915501575917,0.0003820630954578519,-0.00037415511906147003
1783246389044219100,7.34921923828125,-0.00022050784900784492,-0.0012954010162502527,0.0009283963590860367
1783246389054231300,7.359231201171875,-0.0005640555173158646,-0.000026404857635498047,-0.00048414431512355804
1783246389064242400,7.369242431640625,-0.0004785077180713415,-0.0010936709586530924,-0.0003329846076667309
1783246389074254300,7.37925439453125,0.0003505342174321413,-0.0011341511271893978,0.0004979213699698448
1783246389084266500,7.3892666015625,-0.0013792437966912985,0.000365768326446414,0.00033502979204058647
1783246389094277400,7.39927734375,-0.0011177214328199625,0.0006195675814524293,0.000008526258170604706
1783246389104289300,7.409289306640625,0.0008723696228116751,-0.00048679765313863754,-0.0003683874383568764
1783246389114300200,7.419300048828125,0.00016503408551216125,-0.0012588480021804571,0.0002401447854936123
1783246389124312300,7.429312255859375,-0.00024331058375537395,-0.00017513800412416458,-0.00040608877316117287
1783246389134323500,7.439323486328125,-0.0013453266583383083,0.0003580269403755665,-0.0010726777836680412
1783246389144335400,7.44933544921875,0.00002700742334127426,0.0012230055872350931,-0.0011392601300030947
1783246389154347500,7.459347412109375,-0.0007029648404568434,-0.00023187929764389992,0.0002557039260864258
1783246389164358400,7.4693583984375,0.0008534637745469809,0.0010550763690844178,-0.0007834602147340775
1783246389174370300,7.479370361328125,-0.0012267313431948423,-0.0006762444972991943,-0.0002492303028702736
1783246389184381200,7.489381103515625,-0.0011418373323976994,-0.00024127704091370106,-0.00040620286017656326
1783246389194393300,7.499393310546875,-0.001992184668779373,-0.00029986677691340446,0.0011818399652838707
1783246389204405200,7.5094052734375,-0.0009712220635265112,0.00018558255396783352,-0.0007357792928814888
1783246389214416400,7.51941650390625,0.00025729392655193806,-0.0007222890853881836,-0.0017935868818312883
1783246389224428300,7.52942822265625,-0.00035697571001946926,-0.001845268765464425,-0.0006796489469707012
1783246389234439400,7.539439453125,0.0008198751602321863,-0.000032188836485147476,-0.00015154434368014336
1783246389244451300,7.549451416015625,-0.0002081387210637331,-0.0002883533015847206,0.0008520977571606636
1783246389254463500,7.55946337890625,0.0005066536832600832,0.0001867546234279871,-0.00022941222414374352
1783246389264474400,7.569474365234375,0.0008166264742612839,0.0011393537279218435,-0.0007073529995977879
1783246389274486300,7.579486328125,0.000775347463786602,0.0027228693943470716,0.000633548479527235
1783246389284497200,7.5894970703125,0.0010599996894598007,0.0009618570329621434,-0.001570477383211255
1783246389294509300,7.59950927734375,-0.001532853813841939,0.0015900966245681047,0.0007531307637691498
1783246389304521200,7.609521240234375,0.000031133415177464485,-0.0010064456146210432,0.000054576899856328964
1783246389314532400,7.619532470703125,0.0011089146137237549,0.0007294026436284184,-0.0009481031447649002
1783246389324544500,7.62954443359375,0.00020465278066694736,0.00032317405566573143,0.001263586338609457
1783246389334555400,7.639555419921875,-0.0001173233613371849,-0.00045979535207152367,-0.0003076787106692791
1783246389344567300,7.6495673828125,-0.00014558504335582256,0.000051303766667842865,-0.0018421481363475323
1783246389354579200,7.6595791015625,-0.000718963798135519,-0.0012531124521046877,-0.0004905937239527702
1783246389364590300,7.66959033203125,0.0006053254473954439,-0.00006104609929025173,-0.0004619513638317585
1783246389374602200,7.679602294921875,0.0012319671222940087,-0.0002543914597481489,0.000765499658882618
1783246389384613400,7.68961328125,-0.00013608881272375584,0.0003892105305567384,-0.0012238719500601292
1783246389394625500,7.69962548828125,-0.0007944223470985889,0.0010078628547489643,0.0018230504356324673
1783246389404637400,7.709637451171875,0.0007112431339919567,0.00010644178837537766,-0.000011432915925979614
1783246389414648300,7.7196484375,-0.001358565641567111,-0.0008935751393437386,-0.000416765920817852
1783246389424660500,7.729660400390625,-0.0006256862543523312,-0.0007761472370475531,0.00032395077869296074
1783246389434671400,7.73967138671875,0.00023850961588323116,0.0004672827199101448,-0.0016217546071857214
1783246389444683300,7.749683349609375,-0.00042637460865080357,0.001343391602858901,-0.0010807805228978395
1783246389454695200,7.759695068359375,-0.00046179466880857944,0.00019370485097169876,0.00045533059164881706
1783246389464706300,7.769706298828125,-0.0004923141095787287,-0.0007034167647361755,-0.0001292489469051361
1783246389474718200,7.77971826171875,-0.0008963155560195446,-0.00014441926032304764,-0.00012072641402482986
1783246389484729300,7.789729248046875,0.00012727174907922745,0.00021040881983935833,0.00010540755465626717
1783246389494741500,7.799741455078125,0.0008708261884748936,0.00037659017834812403,0.0013877195306122303
1783246389504752400,7.80975244140625,0.000029246322810649872,-0.00023786630481481552,-0.0008588857017457485
1783246389514764300,7.819764404296875,0.001243647770024836,0.00041700503788888454,0.0009299595840275288
1783246389524776200,7.829776123046875,-0.0008087430614978075,0.000643228180706501,0.0005592778325080872
1783246389534787300,7.839787353515625,0.0003273612819612026,0.0007510861614719033,-0.0008037281222641468
1783246389544799200,7.84979931640625,-0.00035141524858772755,0.00017211027443408966,0.001103539951145649
1783246389554810400,7.859810302734375,-0.0007868418470025063,0.001672002486884594,-0.001138308783993125
1783246389564825300,7.869825439453125,-0.0005916105583310127,0.000220997491851449,0.001895194873213768
1783246389574837200,7.879837158203125,-0.0012491450179368258,0.0006692075403407216,-0.0002917926758527756
1783246389584848400,7.889848388671875,0.00019242032431066036,0.0014303929638117552,0.00000536162406206131
1783246389594860300,7.8998603515625,0.0010033529251813889,0.000043418724089860916,-0.0005243411287665367
1783246389604871200,7.90987109375,0.0005422963295131922,-0.0003468214999884367,-0.00008959602564573288
1783246389614883000,7.919883056640625,0.0002887633163481951,-0.001495975535362959,-0.0007785558700561523
1783246389624895200,7.929895263671875,-0.0014795821625739336,-0.002191831124946475,-0.001007826765999198
1783246389634906400,7.93990625,0.0003793039359152317,0.0012907846830785275,-0.00047040078788995743
1783246389644918300,7.949918212890625,0.0000991937704384327,0.00012123538181185722,-0.0009339200332760811
1783246389654929400,7.959929443359375,-0.0006100060418248177,-0.0006574727594852448,-0.0000564083456993103
1783246389664941300,7.96994140625,0.0012343006674200296,0.00166831084061414,0.00030747707933187485
1783246389674953200,7.979953125,-0.00042378343641757965,0.0007955930195748806,0.00008137477561831474
1783246389684964000,7.989964111328125,-0.0007709923665970564,0.0010127699933946133,-0.0007638842798769474
1783246389694976300,7.999976318359375,0.0006588590331375599,0.000052966875955462456,0.0008915369398891926
1783246389704987400,8.0099873046875,0.00014189165085554123,0.00048803421668708324,0.00004482269287109375
1783246389714999300,8.019999267578125,-0.0012757088989019394,0.00018150440882891417,-0.00006916048005223274
1783246389725011500,8.030011474609376,0.0016175444470718503,-0.0016912263818085194,0.0006828401237726212
1783246389735022300,8.040022216796874,-0.00040725688450038433,-0.001009190920740366,-0.00038748420774936676
1783246389745034200,8.0500341796875,-0.0002942869905382395,-0.0005341921932995319,-0.00041437894105911255
1783246389755045000,8.060045166015625,0.0031057707965373993,-0.00020529190078377724,-0.000357920303940773
1783246389765057300,8.070057373046875,0.0015769641613587737,-0.001328601036220789,0.0001266663894057274
1783246389775068200,8.080068115234376,-0.00006380933336913586,-0.0006830508355051279,-0.00045816367492079735
1783246389785080300,8.090080322265624,0.0013651278568431735,0.0004437339957803488,-0.000115926843136549
1783246389795092200,8.10009228515625,0.001857280032709241,0.001491954317316413,0.0004755612462759018
1783246389805103400,8.110103271484375,0.0006058653816580772,-0.00029942113906145096,-0.0009822011925280094
1783246389815115300,8.120115234375,-0.0004974822513759136,-0.0007566860876977444,-0.0010594327468425035
1783246389825126100,8.130126220703126,0.0010518219787627459,-0.00041513540782034397,-0.00036327866837382317
1783246389835138300,8.14013818359375,0.00041479384526610374,-0.0011174108367413282,-0.00003464473411440849
1783246389845150200,8.150150146484375,-0.0020031752064824104,-0.0007183928973972797,-0.00044116564095020294
1783246389855161000,8.1601611328125,-0.000018853694200515747,-0.0004933557938784361,-0.00048803724348545074
1783246389865173200,8.17017333984375,0.0014050801983103156,-0.0011017539072781801,-0.00016164733096957207
1783246389875184400,8.180184326171876,-0.0003978798631578684,-0.00001172209158539772,-0.0017422335222363472
1783246389885196300,8.1901962890625,-0.001532545080408454,-0.0022180937230587006,-0.0003526005893945694
1783246389895208400,8.20020849609375,-0.001999929780140519,-0.0004516190383583307,0.000579505693167448
1783246389905219300,8.21021923828125,0.0007086773402988911,-0.0005307632964104414,-0.00030047399923205376
1783246389915231200,8.220231201171876,-0.00009027100168168545,0.00042424630373716354,-0.0003121918998658657
1783246389925242000,8.2302421875,0.0006223092786967754,-0.0002630900125950575,0.00041093258187174797
1783246389935254300,8.240254150390625,0.00020579085685312748,-0.0009592403657734394,0.00012650713324546814
1783246389945266200,8.25026611328125,0.00006187870167195797,0.0004594480851665139,-0.00018809502944350243
1783246389955277300,8.26027734375,0.0004259326960891485,0.00013720558490604162,-0.00024402141571044922
1783246389965289500,8.27028955078125,-0.00022037699818611145,0.0012387795140966773,-0.0010809784289449453
1783246389975300400,8.28030029296875,0.001435310230590403,0.0009889750508591533,-0.0004775063134729862
1783246389985312300,8.290312255859375,0.0004196611698716879,-0.0011134592350572348,-0.0006223092786967754
1783246389995324400,8.300324462890625,0.0008367123082280159,0.0008186642080545425,0.0005550743080675602
1783246390005335300,8.310335205078125,-0.0017091345507651567,-0.0011690794490277767,0.00005488283932209015
1783246390015347200,8.32034716796875,0.000024583423510193825,0.0002634349511936307,-0.0008886749856173992
1783246390025358000,8.330358154296874,-0.0008900018874555826,0.00017766770906746387,0.0008421647362411022
1783246390035370200,8.340370361328125,0.0012551745167002082,-0.000375204486772418,0.0006866357289254665
1783246390045381400,8.35038134765625,0.000027443747967481613,0.0008361879736185074,0.00017660809680819511
1783246390055393300,8.360393310546876,0.001144906273111701,-0.0012714376207441092,-0.0004771980457007885
1783246390065405400,8.370405517578124,0.00005392194725573063,0.0007402685005217791,-0.000697743147611618
1783246390075416300,8.380416259765624,-0.00009601423516869545,-0.0008650850504636765,-0.0008143894374370575
1783246390085428200,8.39042822265625,0.002065971028059721,0.0004723093006759882,0.0012819739058613777
1783246390095439000,8.400439208984375,-0.001012909458950162,-0.00008881860412657261,-0.0011540194973349571
1783246390105451300,8.410451171875,-0.00017945398576557636,-0.0000014118850231170654,-0.00011848146095871925
1783246390115463200,8.420463134765624,-0.00021700444631278515,-0.00006399606354534626,-0.0002574981190264225
1783246390125474300,8.430474365234375,-0.00011963164433836937,-0.0003954193089157343,-0.0009876766707748175
1783246390135486500,8.440486572265625,0.0000398918054997921,-0.00020633474923670292,0.0004754639230668545
1783246390145497300,8.450497314453125,0.0011401071678847075,-0.0007684654556214809,0.0007456634193658829
1783246390155509200,8.46050927734375,0.0015976381255313754,0.00023261690512299538,-0.0009049638174474239
1783246390165521400,8.470521484375,-0.0004158993251621723,0.00009511865209788084,0.0005485876463353634
1783246390175532300,8.4805322265625,-0.00011975574307143688,-0.0017419299110770226,0.00011475849896669388
1783246390185544200,8.490544189453125,-0.00030296831391751766,-0.0006676224293187261,0.0016089552082121372
1783246390195555300,8.500555419921875,-0.0013016536831855774,0.0006506422068923712,0.00027444493025541306
1783246390205567200,8.510567138671876,-0.0006786067970097065,-0.0011655903654173017,-0.000279388390481472
1783246390215579400,8.520579345703124,0.0013145029079169035,-0.0007077929330989718,-0.000018665101379156113
1783246390225590300,8.53059033203125,-0.0005697838496416807,-0.0002578530693426728,-0.0008075125515460968
1783246390235602400,8.5406025390625,0.0005932184867560863,-0.0014669281663373113,0.0010244757868349552
1783246390245613300,8.55061328125,-0.0013968858402222395,0.0009664094541221857,0.00013979850336909294
1783246390255625200,8.560625244140626,0.0012835857924073935,0.001047369558364153,-0.0006466326303780079
1783246390265637400,8.570637451171875,0.0003998680040240288,0.00005086592864245176,0.0013109245337545872
1783246390275648300,8.580648193359375,0.0005793650634586811,0.00025193451438099146,0.000033406540751457214
1783246390285660200,8.59066015625,0.0012685760157182813,-0.0006027717608958483,9.899958968162537e-7
1783246390295671300,8.60067138671875,0.00027468428015708923,0.0010750195942819118,-0.000015521887689828873
1783246390305683500,8.610683349609374,0.0006233151070773602,-0.0006458541611209512,-0.0004766155034303665
1783246390315694300,8.6206943359375,0.00014794082380831242,0.00014537095557898283,-0.0005035134963691235
1783246390325706200,8.630706298828125,0.0005589367356151342,-0.00036732153967022896,-0.0011211663950234652
1783246390335718400,8.640718505859375,-0.0007939490024000406,-0.0016365840565413237,-0.000188527163118124
1783246390345729300,8.650729248046876,-0.0002911125775426626,0.00010826578363776207,-0.000016995705664157867
1783246390355741200,8.6607412109375,-0.0003560937475413084,0.0010494268499314785,0.0006828829646110535
1783246390365752300,8.67075244140625,0.0014086384326219559,-0.0011556621175259352,0.0015303599648177624
1783246390375764500,8.680764404296875,-0.00001881597563624382,0.00017485313583165407,-0.00047579919919371605
1783246390385776400,8.6907763671875,0.0009962350595742464,0.000726399477571249,-0.0008613690733909607
1783246390395787300,8.700787353515626,0.0006391049828380346,0.0010486419778317213,0.0011642309837043285
1783246390405799400,8.71079931640625,-0.002157304435968399,0.06944163143634796,0.025628959760069847
1783246390415810300,8.720810302734375,-0.0014771330170333385,0.04044274240732193,0.005813708063215017
1783246390425822200,8.730822265625,0.0009588343091309071,-0.04150451347231865,-0.0012852074578404427
1783246390435834000,8.740834228515626,-0.0016787603963166475,0.03340834379196167,0.007140501402318478
1783246390445845200,8.75084521484375,-0.0020627917256206274,0.0333094447851181,0.007153279613703489
1783246390455857200,8.760857177734374,0.001272284658625722,-0.014064994640648365,-0.001859922893345356
1783246390465868300,8.770868408203125,0.001155610429123044,-0.0009309304878115654,-0.0017856031190603971
1783246390475880400,8.78088037109375,0.001512207672931254,-0.009019216522574425,-0.006532421335577965
1783246390485892400,8.790892333984376,0.002110574161633849,-0.034290462732315063,-0.011575193144381046
1783246390495903200,8.8009033203125,0.0008226693607866764,-0.02422797679901123,-0.011198622174561024
1783246390505915400,8.810915283203125,0.0016254554502665997,-0.01972280628979206,-0.0089742885902524
1783246390515926300,8.82092626953125,0.00045286561362445354,-0.03291424363851547,-0.0037078873720020056
1783246390525938200,8.830938232421875,0.0007650963962078094,0.012120776809751987,0.0019561867229640484
1783246390535950000,8.8409501953125,0.0007792110554873943,0.0014710626564919949,-0.002046277979388833
