time,seconds_elapsed,z,y,x
1783246381755774200,0.060774169921875,0.00914016878902912,-0.01052417049333453,0.0028622575633227825
1783246381765786000,0.0707861328125,-0.01614507911503315,-0.011346848520450294,-0.004955893957882654
1783246381775797200,0.08079736328125,-0.04906593646407127,-0.004157046614214777,0.0030375935806310735
1783246381785809200,0.09080908203125,0.0007633855879306793,0.011556472683139144,0.00465789510870818
1783246381795821300,0.1008212890625,-0.007316460493206977,-0.002977043049409985,-0.0018435455074533819
1783246381805832200,0.110832275390625,-0.019288053315877914,0.0016704539628699421,-0.006277128057705704
1783246381815844000,0.120843994140625,0.004357610687613487,0.018514803921058774,-0.009208836411335505
1783246381825855200,0.130855224609375,-0.02541851889491081,-0.013104907701537011,0.008695269999164156
1783246381835867100,0.1408671875,-0.004469254368543624,-0.005470576898194849,0.0007018372595775873
1783246381845879000,0.150879150390625,-0.03379822470545769,0.007245587214082479,0.005432372912811115
1783246381855890200,0.16089013671875,-0.015840543210506437,-0.020479381992295383,-0.0088370416735881
1783246381865902000,0.170902099609375,-0.040381110227108,-0.007600501598976552,-0.0011243575375643558
1783246381875913200,0.180913330078125,-0.0091062665194273,-0.003710106564313173,0.02094406547815306
1783246381885925000,0.190925048828125,-0.02182838544845581,0.009826872411556541,0.001669860307825729
1783246381895937300,0.200937255859375,-0.011352584141492842,-0.007263707392662763,-0.01500392570629483
1783246381905948200,0.2109482421875,-0.021378303593397138,0.00246036223154515,0.006787054907798301
1783246381915960000,0.2209599609375,-0.005070142871141433,-0.007502740312926471,0.016163989311479963
1783246381925971200,0.23097119140625,-0.022131752309203147,0.0014027429373934864,-0.002881665516691282
1783246381935983000,0.240983154296875,-0.02408054828941822,-0.020660072321444747,-0.01120368403996108
1783246381945995000,0.2509951171875,-0.01450549521446228,0.006318352833949029,-0.0029982068517361766
1783246381956006100,0.261006103515625,-0.021835984233021737,-0.005844269048795103,0.008993627324653789
1783246381966018300,0.271018310546875,-0.023033669584989546,-0.008508154495805501,-0.0029962934558629057
1783246381976029200,0.281029296875,-0.030814824980497358,-0.004476159033365548,-0.011275507167156319
1783246381986041000,0.291041015625,-0.012707505881786346,0.0026765622654929756,0.009044304915831889
1783246381996053200,0.30105322265625,-0.01988894181847572,-0.012012911213748156,0.006377928400924429
1783246382006064000,0.311064208984375,-0.013306640818715096,-0.002091930777952075,-0.006591973010404035
1783246382016076000,0.321075927734375,-0.029771453407406806,-0.0010830459963530302,-0.010543546480662188
1783246382026087200,0.331087158203125,-0.017650222980976103,0.005641038094274699,0.0014800185578409582
1783246382036099000,0.34109912109375,-0.009869067585468292,0.006843326556123793,0.012274471059651113
1783246382046111200,0.351111328125,-0.011515081226825713,0.008930179300159215,-0.00374303843624657
1783246382056122000,0.3611220703125,-0.03485913193523884,-0.000035948096215724944,0.0021979461524053476
1783246382066134300,0.37113427734375,-0.025726561930775643,-0.007477094415016472,0.0001276974832988344
1783246382076145200,0.381145263671875,-0.024231939458847045,-0.0026465689860284327,0.0040524149126722475
1783246382086157000,0.391156982421875,-0.016600421667098998,-0.0004151201395317912,0.003937268666981254
1783246382096169200,0.401169189453125,-0.021986206358671188,0.0022460253611207006,-0.010521884921414312
1783246382106180000,0.41118017578125,-0.020339023673534393,0.00028068010490387677,0.007328520823759026
1783246382116192000,0.42119189453125,-0.017340426379442213,0.004619074635393917,0.00186601306758821
1783246382126203100,0.431203125,-0.017788754668831824,0.0008618409937247634,-0.004029798938776366
1783246382136215300,0.44121533203125,-0.023175708404183388,-0.002884432862512767,-0.013034680593095253
1783246382146227200,0.451227294921875,-0.023923311901092526,0.0038432314246892928,0.00887975515401922
1783246382156238000,0.461238037109375,-0.017788754668831824,0.004020853013917803,0.0011610910850693471
1783246382166250200,0.471250244140625,-0.03499649457931518,0.0006941928092390299,-0.005499465065961703
1783246382176261000,0.48126123046875,-0.03170329825282096,-0.001281089319102466,-0.007349154903122689
1783246382186273000,0.49127294921875,-0.03200140441656112,-0.0032526451203972098,0.007189669475494883
1783246382196285200,0.50128515625,-0.014342413607239722,-0.0026934768676757813,-0.01460624760861974
1783246382206296300,0.51129638671875,-0.025565233889222144,-0.012411226348951459,0.0015987952324561774
1783246382216308200,0.52130810546875,-0.024965514430403707,-0.0018150135327130556,0.006241081780078821
1783246382226319000,0.531319091796875,-0.013442249897122383,-0.00499167080745101,0.001747679350967519
1783246382236331300,0.541331298828125,-0.003865443256497383,0.004445106307975948,0.007330568933661561
1783246382246343200,0.55134326171875,-0.015385785180330276,0.004548018693178892,-0.004185795501375105
1783246382256354000,0.56135400390625,-0.020175942066311837,0.006845226252265274,0.010663471649459097
1783246382266366200,0.5713662109375,-0.013589549413323401,0.00005848872158676386,0.015064040129387285
1783246382276377000,0.581377197265625,-0.0173322430729866,-0.00169156981613487,-0.01511843263116898
1783246382286389000,0.591388916015625,-0.019131985971331596,0.002746558761782944,0.005612275507382583
1783246382296401200,0.601401123046875,-0.021373627418279646,-0.0029973917176946995,-0.0026124475207179782
1783246382306412300,0.611412353515625,-0.01718202094733715,-0.0048409006925299765,-0.008526589768216944
1783246382316424200,0.621424072265625,-0.02331248652637005,0.002233969597145915,-0.0064123147277161474
1783246382326435000,0.63143505859375,-0.026902035450935363,0.0014329919451847673,-0.012427054105745627
1783246382336447200,0.641447265625,-0.00445464132130146,0.003038162119500339,0.011371279708808288
1783246382346459100,0.651459228515625,-0.021962825483083724,0.014421397127583621,0.01175198383879615
1783246382356470000,0.661469970703125,-0.025252514678239822,0.0025313085759058594,-0.007282759153004735
1783246382366482200,0.671482177734375,-0.025549451798200607,0.0033739334125071764,0.0005532043028157204
1783246382376493300,0.681493408203125,-0.018367431339621543,0.011012648130021988,-0.002080030277604237
1783246382386505200,0.691505126953125,-0.015521978780627249,-0.013726912057399749,0.008378144041122868
1783246382396517400,0.701517333984375,-0.02779401585459709,0.0006754515761509538,0.005125695283547975
1783246382406528300,0.7115283203125,-0.01731763002574444,0.0018271788945421576,0.00018310604852158575
1783246382416540200,0.7215400390625,-0.011329787787795066,-0.0003251403011381626,0.01020702626898419
1783246382426551000,0.731551025390625,-0.010128595304489136,-0.004317753601260483,0.017721171608625446
1783246382436563200,0.741563232421875,-0.019409049347043038,0.003095262601599097,0.006241883214388508
1783246382446575000,0.7515751953125,-0.028240006056427954,-0.005828158164210617,0.00026592549376655366
1783246382456586200,0.761586181640625,-0.024198037189245222,-0.00750354403052479,0.014660763407987542
1783246382466598400,0.771598388671875,-0.027790508723258972,0.008388802432455123,-0.003555559889995493
1783246382476609300,0.781609375,-0.013424714240431785,0.002684234115295112,0.002548643303196877
1783246382486621200,0.79162109375,-0.02195171956717968,-0.0068057710247114295,0.002632969718938693
1783246382496633000,0.801633056640625,-0.012823825737833977,-0.001119067157804966,0.012635331128141842
1783246382506644200,0.811644287109375,-0.005044423907995223,0.002356865324452519,0.0029140676656621506
1783246382516656000,0.82165625,-0.016564765831828115,0.0029132205655798315,0.004637247329612728
1783246382526667000,0.8316669921875,-0.019407295781373977,0.009622764674201607,0.0009885452464688568
1783246382536679200,0.84167919921875,-0.01281798051893711,-0.00008004296626895666,0.0032793002318823707
1783246382546691000,0.851691162109375,-0.014164134430885314,-0.007430478794313967,0.0015124161402345635
1783246382556702500,0.861702392578125,-0.029877251869440076,0.002176722984574735,-0.00568970410816837
1783246382566714400,0.87171435546875,-0.020000000977516173,-0.013112287290394306,0.004513376638060436
1783246382576725200,0.881725341796875,-0.023738602983951567,0.002244162197597325,0.006797334273217711
1783246382586737400,0.8917373046875,-0.02193944460749626,-0.003680734339356422,0.010766340652178042
1783246382596749300,0.901749267578125,-0.01580079572200775,-0.002130618820525706,0.009372655520786066
1783246382606760200,0.91176025390625,-0.029119711500406265,0.0016402049550786613,0.0008270117089385166
1783246382616772000,0.921772216796875,-0.03510813826024532,0.0036527138212695716,-0.013347034477896522
1783246382626783500,0.931783447265625,-0.022688217148184774,-0.006673413349315524,-0.02474701284151524
1783246382636795400,0.94179541015625,-0.014006898042559623,0.005689955269917845,-0.008759051383798941
1783246382646807300,0.951807373046875,-0.022388941940665243,0.0037951179666444656,0.013641759091173298
1783246382656818400,0.961818359375,-0.03032148850560188,0.0017407792527228594,-0.012169967222271953
1783246382666830300,0.971830322265625,-0.025835283002257344,-0.009561499473638832,-0.012153550377010833
1783246382676841200,0.98184130859375,-0.018801731103658674,0.004496690364740789,0.010483605587505735
1783246382686853000,0.99185302734375,-0.025534838750958442,0.005976882452517747,0.014244540440046694
1783246382696865300,1.001865234375,-0.009224339941143989,0.008826024805940687,0.00381201658580685
1783246382706876200,1.011876220703125,-0.023593057033419608,0.006075557054020464,0.0043215141776367086
1783246382716888000,1.02188818359375,-0.030474633240699767,-0.0027917496103793383,0.010383997120952698
1783246382726899500,1.0318994140625,-0.022541502153873443,-0.010329561236687004,0.005567682880407664
1783246382736911400,1.041911376953125,-0.01580430285334587,0.007243102996051311,0.003915547742228955
1783246382746923300,1.05192333984375,-0.022986323311924933,0.006176131351664662,-0.003767764168838039
1783246382756934400,1.061934326171875,-0.01969780316054821,-0.005562164171785116,0.004543509198131505
1783246382766946300,1.0719462890625,-0.022241057902574538,0.010126257216930388,-0.0015809969975729473
1783246382776957200,1.081957275390625,-0.008920973080396652,0.004378580410405993,0.00419336460318882
1783246382786969000,1.091968994140625,-0.013709376400709152,-0.005498232090100645,-0.003267691992479376
1783246382796981200,1.101981201171875,-0.018045944300293923,-0.003922288010269403,-0.0024688149660592896
1783246382806992400,1.111992431640625,-0.021789807003736495,-0.004162088115513324,-0.0023562602529651486
1783246382817004300,1.12200439453125,-0.0143085113376379,0.006472739678062498,-0.009725412197923286
1783246382827015400,1.132015380859375,-0.02793079397678375,-0.00041723903138190507,0.009456041221611667
1783246382837027300,1.14202734375,-0.0259855051279068,0.005105214184522628,0.01941871450782055
1783246382847039200,1.152039306640625,-0.028080431580543515,0.003023439474403858,0.012259556618309578
1783246382857050000,1.162050048828125,-0.017006079858541488,-0.006888627002574503,0.0050719740686239675
1783246382867062300,1.172062255859375,-0.01341711545586586,0.005427943332865834,-0.014944103544147219
1783246382877074200,1.18207421875,-0.026735446712374687,0.004850947162508964,0.00013570954310707748
1783246382887085300,1.192085205078125,-0.017159224593639374,0.002471687343157828,-0.007496360804489813
1783246382897097500,1.202097412109375,-0.014165303474664687,-0.007290120475552976,0.0011479256428196093
1783246382907108400,1.2121083984375,-0.022092004820704458,-0.007993227243609726,0.014116039239149539
1783246382917120300,1.222120361328125,-0.022838439273834228,0.000625146161019802,0.0023494240868021732
1783246382927132400,1.23213232421875,-0.03031856589615345,0.00028718291092664003,0.0036591800946742296
1783246382937143300,1.242143310546875,-0.034809447574615474,-0.004018843719922006,-0.004747196810378227
1783246382947155200,1.2521552734375,-0.012663082218170165,0.008251110994815826,-0.013032591383997351
1783246382957166000,1.262166015625,-0.010570493853092193,-0.0029112478042021394,-0.010942516919702756
1783246382967178200,1.27217822265625,-0.020294015488028526,-0.0035825711945071813,-0.012008029542653821
1783246382977190100,1.282190185546875,-0.028375030612945554,-0.0013295681033283471,0.005065418746962677
1783246382987201300,1.292201171875,-0.021193010154366494,-0.002797046840004623,-0.0011493572647916152
1783246382997213400,1.30221337890625,-0.015950433325767517,-0.00038392128366976976,-0.002315590315859299
1783246383007224300,1.312224365234375,-0.01086041671037674,-0.002690261997282505,-0.0042438344151014456
1783246383017236200,1.322236328125,-0.03240647808611393,0.0032489187933504578,0.002958326932496857
1783246383027248400,1.332248291015625,-0.011906710892915725,0.0032643355581909415,-0.0004951265731826424
1783246383037259300,1.34225927734375,-0.02971241669654846,-0.0066472925273701544,-0.006191315221064724
1783246383047271200,1.352271240234375,-0.016097148320078847,0.001941562521830201,-0.012551991093088872
1783246383057282300,1.3622822265625,-0.021785130828619003,0.0037743674395605917,-0.0010152437404380178
1783246383067294500,1.37229443359375,-0.024632336953282354,0.0013370572900399565,-0.005231722074444406
1783246383077306400,1.382306396484375,-0.03241466139256954,0.0055552229743450875,0.004792547489178832
1783246383087317200,1.392317138671875,-0.0051829555958509445,0.0029204905565828085,0.003742367149388883
1783246383097329400,1.402329345703125,-0.019851532417535782,0.007661876397393644,0.004442151732486672
1783246383107340300,1.41234033203125,-0.008481997141242027,-0.005138349269144237,0.01011544812854845
1783246383117352200,1.422352294921875,-0.014017419436573982,-0.0077033409189432855,0.00012595990065019576
1783246383127364400,1.4323642578125,-0.02090016468763351,-0.008030125187896192,0.0014322064938955008
1783246383137375200,1.442375244140625,-0.026886837881803512,0.006675714904256165,-0.0035076290950411928
1783246383147387400,1.452387451171875,-0.021350246542692183,-0.00021378888115286825,-0.00007509507980430498
1783246383157398300,1.462398193359375,-0.01581248615980148,-0.004144150600023567,-0.009283698595699387
1783246383167410400,1.472410400390625,-0.02883271125257015,0.004120988920144736,0.005186670506454538
1783246383177422300,1.48242236328125,-0.01416822608411312,-0.00005874444991350174,-0.0007817226789309643
1783246383187433200,1.49243310546875,-0.0014507833302021026,0.007012436045333742,-0.009538872083299793
1783246383197445400,1.5024453125,-0.01835807898938656,0.010861658819392323,0.002417756065679714
1783246383207456300,1.512456298828125,-0.03406827381849289,0.005278378794342279,0.0018453972545335998
1783246383217468200,1.52246826171875,-0.015212766700983047,-0.005218538365885615,0.004744128070457373
1783246383227480000,1.53247998046875,-0.014762684845924377,-0.008239201361313462,0.013218245582631788
1783246383237491500,1.542491455078125,-0.027930209454894064,0.004471007934212685,-0.004396778220799751
1783246383247503400,1.55250341796875,-0.008327683362364769,-0.0019555545145645736,0.0107330297543318
1783246383257514200,1.56251416015625,-0.02509177115857601,-0.0013993819365277886,0.007389272284379694
1783246383267526400,1.5725263671875,-0.015514964517951011,0.008627798820100724,-0.0011539809242705815
1783246383277538300,1.582538330078125,-0.025241993284225463,0.00041095542106777425,0.0057603787411819206
1783246383287549200,1.592549072265625,-0.017908581656217573,0.007565320687741041,0.0009221472130622714
1783246383297561000,1.60256103515625,-0.006532616639137268,0.0046215953860431905,0.006251036918512545
1783246383307572500,1.612572509765625,-0.03391571360528469,-0.0003340177273377776,-0.0033936199270887296
1783246383317584400,1.62258447265625,-0.009821721312403678,0.0003444295234978199,-0.005687087459396571
1783246383327596300,1.63259619140625,-0.019548165556788445,0.005893916876800358,0.020387399709771853
1783246383337607400,1.642607421875,-0.005931728136539459,-0.0047235944557934995,-0.003878505950758699
1783246383347619300,1.652619384765625,-0.013712883532047271,-0.007862111677229404,0.005672147901880089
1783246383357630200,1.662630126953125,-0.025536592316627502,-0.003778532158024609,0.002555342472041957
1783246383367642400,1.672642333984375,-0.025236148065328597,0.004568476959317922,0.012730224603670648
1783246383377654300,1.682654296875,-0.025534254229068756,-0.0024962372625246644,-0.00031662135125370695
1783246383387665200,1.6926650390625,-0.01102116023004055,0.0014455591658130288,0.00440249785882188
1783246383397677000,1.702677001953125,-0.02748597281873226,0.002160977426171303,0.0070477950530825175
1783246383407688400,1.7126884765625,-0.025392215409874914,-0.00799088915605098,-0.0008937225528876297
1783246383417700400,1.722700439453125,-0.026437925070524212,0.0023058657895773647,-0.0009759711759747006
1783246383427712300,1.732712158203125,-0.01775543692111969,-0.003923274390958249,0.006184679984301328
1783246383437723400,1.742723388671875,-0.015957447588443755,-0.004882365214079618,-0.005192851368780248
1783246383447735300,1.7527353515625,-0.00952361514866352,-0.005176343191973865,0.0014970792904961854
1783246383457746200,1.76274609375,-0.013414777368307113,0.00711564069148153,-0.007063191268325318
1783246383467758000,1.772758056640625,-0.015211013135313986,-0.014713438876718282,-0.004984133671678137
1783246383477770200,1.782770263671875,-0.006083119305968284,0.006079027652740478,-0.00590927427613642
1783246383487781400,1.792781494140625,-0.02059972043633461,-0.003907419234700501,0.0009441603987594135
1783246383497793300,1.802793212890625,-0.011772855380177498,-0.00641205899938941,0.002143469168944284
1783246383507804400,1.812804443359375,-0.027481296643614768,0.0017417291007936,0.002309162858361378
1783246383517816300,1.82281640625,-0.01730652410984039,0.005648527280986308,0.009100779776845593
1783246383527828200,1.832828125,-0.022541502153873443,-0.0028027093958109617,-0.008156021156464703
1783246383537839000,1.842839111328125,-0.020746435430645943,0.010991166950576007,-0.00531910809695255
1783246383547851300,1.852851318359375,-0.01925415104627609,0.009599602994322776,0.0026368010772624983
1783246383557862700,1.862862548828125,-0.020305705925822256,-0.010797872868180274,-0.0016065104647423139
1783246383567874800,1.872874755859375,-0.015817746856808663,0.0028510055169463154,0.007686720860993955
1783246383577886700,1.88288671875,-0.016116437542438505,0.007774250730685889,-0.0015407563187298365
1783246383587897900,1.89289794921875,-0.009383914417028426,-0.003558898057974875,-0.009549838718597312
1783246383597910000,1.902909912109375,-0.01806289543509483,-0.006843582284450531,-0.007861986096354667
1783246383607921000,1.9129208984375,-0.007587678650021553,-0.004166325899213552,-0.007891120859293733
1783246383617932800,1.922932861328125,-0.015816577813029288,-0.0071782210662961,-0.0057050980401225386
1783246383627945000,1.932945068359375,-0.03182663237154484,0.0029626857304945586,0.001073138806980569
1783246383637955800,1.942955810546875,-0.031525603598356246,0.005768354268372059,-0.007320565846166573
1783246383647967700,1.9529677734375,-0.02119827085137367,0.002115713512338698,0.00380504342232598
1783246383657979000,1.962978759765625,-0.004286299017071724,-0.00020308482404798268,0.003614217574940994
1783246383667991000,1.972990966796875,-0.007578910821676253,-0.00033953415267169474,0.0065794103563530364
1783246383678003000,1.9830029296875,-0.007578910821676253,-0.002130472690053284,-0.005921268391318154
1783246383688013800,1.993013916015625,-0.026288287466764447,-0.007399389536306262,0.01219017660995014
1783246383698026000,2.00302587890625,-0.019257658177614212,-0.001957600341178477,0.002925379077543039
1783246383708036900,2.013036865234375,-0.01731178480684757,-0.005419686961174011,0.009249367067834828
1783246383718048800,2.023048828125,-0.01626665966808796,0.007514394218102097,0.0037082023015944285
1783246383728060700,2.033060791015625,0.0009410802423954009,0.0007814327012747526,-0.010789292269502766
1783246383738071800,2.04307177734375,-0.012377251014113426,-0.00175637868065387,0.006226365984848234
1783246383748083700,2.053083740234375,-0.02674304549694061,-0.006223879483528435,0.013830415814358274
1783246383758094800,2.0630947265625,-0.007592939347028732,0.008674341375567019,0.0016847861656104214
1783246383768107000,2.07310693359375,-0.016270166799426077,0.00518880081474781,0.010269732224673497
1783246383778119000,2.083118896484375,-0.01851122372448444,-0.01031136799287051,0.0035915262525202706
1783246383788129800,2.0931298828125,-0.009233692291378975,-0.0032644816886633634,0.007666602804861031
1783246383798141700,2.1031416015625,-0.020608488264679908,0.0002313610704615712,-0.0019279678213177248
1783246383808152800,2.11315283203125,-0.024199790754914283,0.005765212463214993,0.004903732229094021
1783246383818164700,2.123164794921875,-0.023151743006706235,0.004410765646956861,0.004054716467612888
1783246383828176600,2.1331767578125,-0.012226444366574286,-0.000723857295140624,0.011855683958576991
1783246383838188000,2.14318798828125,-0.016416297271847725,-0.007150529341772198,0.012092335408797953
1783246383848200000,2.153199951171875,-0.02524433137178421,-0.006578172813914716,0.003486789519700687
1783246383858211800,2.1632119140625,-0.01686521008312702,-0.008209573408029972,0.015656316067266744
1783246383868222700,2.17322265625,-0.021056232032179833,0.0021564473815262318,0.007792421141616069
1783246383878235000,2.18323486328125,-0.023302549654245375,0.002651829683035612,0.010191015849099493
1783246383888245800,2.193245849609375,-0.018365093252062797,-0.006613134529441594,0.006112507513945456
1783246383898257700,2.203257568359375,-0.020757541346549988,-0.004261749097704887,0.005565239761571865
1783246383908269800,2.213269775390625,-0.02031213566660881,-0.005813764312677085,0.007224672290217131
1783246383918281000,2.223281005859375,-0.01612228276133537,0.006156622933596373,0.0021280432709492743
1783246383928292900,2.23329296875,-0.0340805487781763,-0.0014413579147309064,-0.013884337958681861
1783246383938303700,2.2433037109375,-0.014027356308698653,0.002852795615233481,0.004342862926342059
1783246383948316000,2.25331591796875,-0.016717910566926,0.0018976868474856019,0.018343427126237655
1783246383958327800,2.263327880859375,-0.021505729365348815,-0.00649820291288197,-0.004282120598875917
1783246383968338700,2.273338623046875,-0.011181319227814674,0.0008336012799292803,0.007593829829595051
1783246383978350800,2.283350830078125,-0.009536474630236625,0.002959616990573704,-0.003415758693660609
1783246383988361700,2.29336181640625,-0.013277999246120453,0.0004274681644514203,0.005371776715817395
1783246383998373600,2.30337353515625,-0.02150456032156944,-0.010731200840137898,0.0029696954265935344
1783246384008385800,2.3133857421875,-0.024048399585485457,-0.005649878987856209,-0.007252067187218926
1783246384018397000,2.32339697265625,-0.031980946150422095,0.006211969850026071,0.00485557082198793
1783246384028408800,2.333408935546875,-0.030334347987174985,-0.007565101492032408,0.009908659810340031
1783246384038419700,2.343419677734375,-0.0066927756369113914,-0.0021349296694621444,0.012866936510486994
1783246384048431900,2.353431884765625,-0.020607319220900533,-0.004864975687861442,0.009338623103732242
1783246384058443800,2.36344384765625,-0.020304536882042885,-0.003319499811530113,-0.009274923917488194
1783246384068454700,2.37345458984375,-0.014918752190470695,0.010163082095980644,-0.006382894553698133
1783246384078466800,2.383466796875,-0.013422376152873039,-0.004347125826217234,-0.006176035453542135
1783246384088478000,2.39347802734375,-0.02404606149792671,0.002806764516420662,-0.008481449151970445
1783246384098489900,2.40348974609375,-0.014914660537242889,0.0015380962874740362,0.004188469232362694
1783246384108502000,2.413501953125,-0.006235094997286797,0.00526420413851738,-0.010559292039065622
1783246384118513000,2.423512939453125,-0.03451601758599281,-0.010164251139760017,-0.001298739140224643
1783246384128524800,2.43352490234375,-0.023740941071510313,0.0026668080564588308,0.0028915909723727963
1783246384138535700,2.44353564453125,-0.024790157863497732,0.0013723112665116786,0.001464533294341527
1783246384148547800,2.4535478515625,-0.01670972726047039,0.0006302241949364542,-0.00009405550860101357
1783246384158559700,2.463559814453125,-0.014019757524132728,-0.0126147130317986,-0.001036119848396629
1783246384168571000,2.47357080078125,-0.009831658184528351,-0.0010453443344682456,-0.004342239588545635
1783246384178582800,2.483582763671875,-0.024491467177867886,-0.0020522198220714926,-0.007628645414649508
1783246384188594000,2.493593994140625,-0.019704232901334762,-0.009668247783742845,0.005531253010290674
1783246384198605800,2.503605712890625,-0.01940320412814617,0.0001686345651745796,-0.007633568184939213
1783246384208618000,2.513617919921875,-0.023141806134581566,-0.012303126331977545,-0.002838872121158056
1783246384218628900,2.52362890625,-0.018652678021788598,-0.002578508718498051,0.007154771692049689
1783246384228640800,2.533640869140625,-0.016859364864230154,-0.0026712285032495856,0.0021990946465870365
1783246384238651600,2.543651611328125,-0.030626024410128593,-0.006122099609486759,0.006836956180841662
1783246384248663800,2.553663818359375,-0.014165303474664687,-0.0018018617901951074,0.007243313058605417
1783246384258675700,2.56367578125,-0.020296938097476958,0.0033434286763891576,-0.003727162730391137
1783246384268686800,2.573686767578125,-0.013562076884508133,-0.0019312237909063696,-0.010667905795981642
1783246384278699000,2.583698974609375,-0.008170446974039076,0.0004945055186748505,-0.005426196617062669
1783246384288710000,2.5937099609375,-0.01969078889787197,0.004332914637774229,-0.00011790445835795253
1783246384298721800,2.6037216796875,-0.02074000568985939,-0.001458272516913712,-0.0019637789202155546
1783246384308734000,2.61373388671875,-0.009815291571617125,0.005101560922712087,0.009742224052117672
1783246384318744800,2.623744873046875,-0.012658990564942359,0.010953355690836906,-0.0008307951182010583
1783246384328756700,2.6337568359375,-0.015203998872637748,0.007391315827704966,-0.008276953255548142
1783246384338768000,2.643767822265625,-0.008619359785318375,-0.006528561518527567,-0.010966728912352118
1783246384348780000,2.653780029296875,-0.017446809363365172,-0.0037227833827957507,-0.0014324508057790807
1783246384358792000,2.6637919921875,-0.022833763098716736,-0.007767053804919123,0.00888937008244684
1783246384368802800,2.673802734375,-0.016249708533287048,0.0012143807584419845,-0.010786561456299385
1783246384378815000,2.68381494140625,-0.01819324381649494,0.0032604996332898733,-0.010070225313911213
1783246384388825900,2.693825927734375,-0.025523732835054398,-0.003230287158116698,-0.00477739101924235
1783246384398837800,2.703837646484375,-0.02133154184222221,0.00029744857661426064,0.0010090126457624137
1783246384408849700,2.713849609375,-0.013698270484805106,0.0011560746999457478,0.004955610830092337
1783246384418860800,2.72386083984375,-0.0063636898130178445,-0.0007029606375843286,-0.006824717753776349
1783246384428872700,2.733872802734375,-0.007707505637407302,0.0010248130030930042,-0.00544523239438422
1783246384438883800,2.7438837890625,-0.019081717088818548,-0.011048523161001503,0.0036908013589330947
1783246384448896000,2.75389599609375,-0.019383330383896828,-0.0009657032269984483,0.0011088060586946084
1783246384458908000,2.763907958984375,-0.014446458503603935,-0.013055844395421444,0.005584024377143942
1783246384468918800,2.773918701171875,-0.021031682112812995,0.0015059841161593793,0.0015291686289245262
1783246384478930700,2.7839306640625,-0.03031096711158752,-0.00024929858595132827,0.009357944292132742
1783246384488942800,2.79394287109375,-0.023879472759366034,-0.010355645526014267,-0.00005534234985243529
1783246384498953700,2.80395361328125,-0.029867314997315406,-0.006090498894825577,0.0044772504453314465
1783246384508965600,2.813965576171875,-0.022835516664385793,-0.0005393675737082958,0.014897834983316715
1783246384518977000,2.82397705078125,-0.012959434816241264,0.0005042597277089953,0.003868359016079921
1783246384528989000,2.833989013671875,-0.018348142117261886,-0.007236563657410443,0.00695438114858698
1783246384539000800,2.844000732421875,-0.022087328645586966,-0.0036929362338036296,-0.0028454548422829247
1783246384549012000,2.854011962890625,-0.01355564714372158,0.004025090797618031,-0.011076109854248352
1783246384559023900,2.86402392578125,-0.025074820023775098,0.001262713412195444,0.0015455078423721716
1783246384569034800,2.87403466796875,-0.009958499434590339,-0.007782324439287185,-0.0027682271708967163
1783246384579047000,2.884046875,-0.03329962753355503,-0.004554594564437866,0.014402208369923754
1783246384589058800,2.894058837890625,-0.02357201424539089,-0.004581920962780713,0.0007791242964682169
1783246384599070000,2.904070068359375,-0.013695347875356673,0.0049683629970997565,-0.005520185910293366
1783246384609081900,2.914081787109375,-0.014445873981714248,-0.0026048122035339473,-0.0023732273707864804
1783246384619093000,2.924093017578125,-0.019237784433364866,0.0025636399429291483,0.003511675082496367
1783246384629105000,2.93410498046875,-0.007870002722740172,-0.00031012539509683845,0.009739413323812186
1783246384639117000,2.944116943359375,-0.03121288438737392,-0.00408178942091763,-0.004554030592145863
1783246384649128000,2.9541279296875,-0.0172930801063776,-0.0011870908927172422,-0.003501539564260747
1783246384659139800,2.964139892578125,-0.018040683603286742,0.003583228781633079,0.00001064925817772746
1783246384669150700,2.974150634765625,-0.011755904245376586,0.0002918590860441327,-0.00250175140456995
1783246384679163000,2.984162841796875,-0.02073123786151409,0.0015580430969595908,0.001790851772413589
1783246384689174800,2.9941748046875,-0.022075053685903546,-0.0028512612452730535,-0.003282293623278383
1783246384699186000,3.00418603515625,-0.01968202106952667,-0.00475862923655659,-0.012672886659554206
1783246384709198000,3.014197998046875,-0.019984218886494636,-0.0008007949888706207,0.0007145734435645864
1783246384719209000,3.024208984375,-0.033901100558042525,-0.005126256972551346,0.005695588142971973
1783246384729220900,3.034220947265625,-0.02222878294289112,0.007442096166871488,-0.003064445054938551
1783246384739233000,3.04423291015625,-0.013850246176123618,-0.00406355964448303,0.0011231017288169823
1783246384749244000,3.054243896484375,-0.022229367464780807,-0.004076163397729397,0.00963820883850567
1783246384759255800,3.064255859375,-0.028217209702730176,-0.003571063419803977,-0.0008732734199031255
1783246384769267000,3.074266845703125,-0.022981062614917752,0.0034935412041842934,0.0038810107183875515
1783246384779279000,3.084279052734375,-0.03390402316749096,-0.011199549004249274,0.00022881292034871876
1783246384789291000,3.094291015625,-0.0280681566208601,-0.0014735796838998795,0.003073272248788271
1783246384799302000,3.104302001953125,-0.021633739659190177,-0.0053555356837809084,0.001532885822816752
1783246384809314000,3.11431396484375,-0.024924597898125646,-0.008241027992218732,-0.0019242323611164465
1783246384819325000,3.124324951171875,-0.017741992917656896,-0.003589731587655842,-0.0023512141850893383
1783246384829336800,3.1343369140625,-0.01684533633887768,-0.0017620412364602088,0.008591626961599104
1783246384839348700,3.1443486328125,-0.022233459118008614,-0.0024733678435906767,0.006434394128783606
1783246384849360000,3.15435986328125,-0.018939093747735024,0.008523352064937352,0.012853775634814518
1783246384859371800,3.164371826171875,-0.01535071386694908,0.00006086334176361561,-0.005309963525983039
1783246384869383000,3.1743828125,-0.01489887844622135,0.009559599777497351,0.006669595690723508
1783246384879395000,3.18439501953125,-0.02821487161517143,-0.004708908343315124,0.004219549357215874
1783246384889407000,3.194406982421875,-0.021182488760352135,-0.003042874827235937,0.004344774038926698
1783246384899417900,3.20441796875,-0.01759293983578682,-0.008985453151352704,-0.004725110559444874
1783246384909430000,3.214429931640625,-0.02597147660255432,-0.004508453867770731,-0.006610332934290636
1783246384919441000,3.22444091796875,-0.02297814000546932,0.0036955300496891138,-0.0020179134103818796
1783246384929452800,3.234452880859375,-0.029261750319600103,0.0006686930418014526,0.0012026081222575157
1783246384939464700,3.244464599609375,-0.018639818540215493,-0.002566599084995687,0.010766578114195726
1783246384949476000,3.25447607421875,-0.013703531181812285,-0.002223594333603978,0.00534579060790129
1783246384959488000,3.264488037109375,-0.009665069445967674,0.0009610270518809556,-0.0010289023730321787
1783246384969499000,3.274498779296875,-0.023134791871905324,-0.012890643896348773,0.0017896005302434786
1783246384979511000,3.284510986328125,-0.02492927407324314,-0.0028948446586728096,0.003565745640581008
1783246384989523000,3.29452294921875,-0.023581951117515564,-0.004718114563077688,-0.002450231279886793
1783246384999533800,3.304533935546875,-0.016399346137046814,0.010997888952307402,0.011448176303342916
1783246385009545700,3.314545654296875,-0.011911387068033217,-0.009914404564537108,0.009669330062554217
1783246385019557000,3.32455712890625,-0.02074000568985939,-0.007675247335620224,-0.007338418879976961
1783246385029569000,3.334569091796875,-0.021185411369800566,0.009300072058476508,-0.00782454244608525
1783246385039581000,3.344580810546875,-0.035254853254556656,-0.007964549138396977,0.005500102103489916
1783246385049592000,3.354592041015625,-0.022387188374996186,-0.01019066422265023,0.0037401295265299265
1783246385059604000,3.36460400390625,-0.022390110984444617,0.008006853910163045,-0.005482388350286055
1783246385069615900,3.374615966796875,-0.026132804644107818,0.00775346367098391,-0.0015389045716496183
1783246385079626800,3.384626708984375,-0.01834931116104126,-0.0074165963994339106,0.006698629988962784
1783246385089639000,3.394638916015625,-0.02882745055556297,-0.00553450897987932,-0.0012147415180457754
1783246385099649800,3.40464990234375,-0.023436405166983604,-0.002793795436993241,-0.004784446381113958
1783246385109661700,3.41466162109375,-0.01371112996637821,-0.007389160403236747,-0.00471262553720735
1783246385119673900,3.424673828125,-0.016104747104644775,-0.009796185012347995,0.014331070229317991
1783246385129685000,3.43468505859375,-0.025388708278536794,-0.0031982845846563576,0.0002595505519071594
1783246385139697000,3.44469677734375,-0.021797990310192108,-0.01051295497957617,0.0018866311639314517
1783246385149707800,3.454707763671875,-0.00803483789563179,-0.0020332228606566786,-0.0004585345895728096
1783246385159720000,3.464719970703125,-0.024347090271115302,0.002503653384000063,-0.008008269549114629
1783246385169730800,3.474730712890625,-0.01731003124117851,-0.011511720225960016,0.004581845614255871
1783246385179742700,3.48474267578125,-0.027484803774952885,-0.005089432093501091,-0.001355940087023191
1783246385189755000,3.4947548828125,-0.02733575069308281,0.005098857508972287,0.011266949401365127
1783246385199766000,3.50476611328125,-0.022694646888971326,-0.0037780572339892386,0.002050868115201592
1783246385209778000,3.51477783203125,-0.017157471027970314,-0.0045356706682592625,-0.004518742366344667
1783246385219789000,3.5247890625,-0.017311200284957886,-0.00040485447384417056,0.006519686375616583
1783246385229801000,3.534801025390625,-0.009679682493209838,0.002293444699421525,0.007419105733640026
1783246385239812900,3.544812744140625,-0.01656593487560749,0.011045783214643596,-0.005558693573065101
1783246385249823700,3.55482373046875,-0.014772037196159361,-0.0011805515540763735,-0.010363920164015144
1783246385259836000,3.5648359375,-0.01641863535940647,0.00034461218658834693,-0.00669444015432382
1783246385269847800,3.574847900390625,-0.01985971572399139,-0.005659925457835197,-0.0098024594895076
1783246385279859000,3.58485888671875,-0.004001052334904671,-0.001384147834777832,0.0032436238470138047
1783246385289871000,3.59487109375,-0.02824585127532482,-0.0020504662564024326,0.0023990513652097432
1783246385299882000,3.604882080078125,-0.018819266760349274,-0.012640395462326705,0.006220002459431998
1783246385309894000,3.614893798828125,-0.014480945295095443,0.006703223965689539,-0.006969994276249781
1783246385319906000,3.624906005859375,-0.019866145464777947,0.0029173852840438485,-0.0032286705897655336
1783246385329917000,3.6349169921875,-0.03348433645069599,0.009519998419471085,-0.007130393019330222
1783246385339928800,3.6449287109375,-0.008943184912204742,-0.0027655922558158636,-0.0024949540543137117
1783246385349939700,3.654939697265625,-0.006695698246359825,0.0041955885263159865,-0.004737399218860082
1783246385359952000,3.664951904296875,-0.015969138026237485,-0.0005367372252047061,-0.0017108042395673692
1783246385369963800,3.6749638671875,-0.02135433819591999,-0.002091930777952075,-0.0013059954314958303
1783246385379975000,3.684974853515625,-0.02104921776950359,-0.0020826880255714057,0.004089054845343344
1783246385389987000,3.694987060546875,-0.014314356556534766,-0.004060235176235437,-0.000693110530427657
1783246385399998000,3.704998046875,-0.020600304958224295,-0.001794299538247287,-0.0010668186640483326
1783246385410009900,3.715009765625,-0.016559505134820938,-0.0033060192754492163,0.005375384311855305
1783246385420022000,3.72502197265625,-0.020754034215211867,0.006390102895908058,-0.004945103135809768
1783246385430033000,3.735032958984375,-0.021054478466510772,-0.00270447318572551,-0.00011933379704132676
1783246385440044800,3.745044921875,-0.025843466308712957,-0.004927446464821696,0.00824791210744297
1783246385450056000,3.755055908203125,-0.011181903749704361,0.008904789130575954,-0.00015367902463767676
1783246385460068000,3.765068115234375,-0.007142272970080375,-0.001554243704676628,0.0017069523316458799
1783246385470080000,3.775080078125,-0.022255670949816703,-0.007551767086423933,0.0025904389015980996
1783246385480091000,3.7850908203125,-0.031981530672311784,0.0014101225262507795,-0.0050393458740785714
1783246385490103000,3.79510302734375,-0.01821370208263397,0.010361709940619766,-0.007307818245736416
1783246385500114000,3.805114013671875,-0.01986146928966045,0.00008059095554053783,-0.0014313845099881292
1783246385510125800,3.815125732421875,-0.020609072786569593,-0.010849639588035642,-0.006039572425186633
1783246385520138000,3.825137939453125,-0.01821545564830303,-0.0012591332156211138,0.005804053486126941
1783246385530148900,3.83514892578125,-0.018510639202594756,-0.002547967449761927,-0.006272111672582104
1783246385540160800,3.845160888671875,-0.01970949359834194,-0.006092983112856745,0.005389718797884416
1783246385550172000,3.855171875,-0.0244996504843235,-0.006809606949612498,-0.012432321652618702
1783246385560183800,3.865183837890625,-0.022853052321076393,0.006196333889476955,-0.0051409271020092994
1783246385570195700,3.87519580078125,-0.017316460981965064,0.009481164246425032,0.0001906020850990899
1783246385580206800,3.885206787109375,-0.0008557400465011596,-0.00818363524917513,0.002486946561082732
1783246385590218800,3.89521875,-0.020610241830348968,-0.0004905965285375714,-0.004711723638197872
1783246385600229600,3.905229736328125,-0.02076046395599842,-0.00003302548676729202,-0.0011934544181334786
1783246385610241800,3.91524169921875,-0.025402736803889273,-0.001138867836818099,0.005114418120996561
1783246385620253700,3.925253662109375,-0.011785714861750602,0.0030391119675710794,0.00018318368033505976
1783246385630264800,3.935264892578125,-0.025702012011408804,-0.0014472761988639832,-0.0010394420333555898
1783246385640276700,3.94527685546875,-0.018068740653991697,-0.002536788468621671,-0.011294463029375765
1783246385650287900,3.955287841796875,-0.028094460105895995,0.0009029767217114568,0.0046537509398418475
1783246385660299800,3.9652998046875,-0.02166413479745388,0.0008481777945533394,0.0014718169850762932
1783246385670311700,3.975311767578125,-0.024210896670818327,-0.00684708941578865,0.0008782920883153565
1783246385680322800,3.98532275390625,-0.027953590330481528,0.0021716084180399774,0.006817801672511268
1783246385690334700,3.995334716796875,-0.029450550889968872,0.004868592417053878,-0.0023046305304276755
1783246385700345900,4.005345947265625,-0.02182137118577957,0.0035879049567505714,0.0062319509088411
1783246385710358000,4.01535791015625,-0.022122399958968163,0.004977934543043375,-0.008874866633058991
1783246385720370000,4.025369873046875,-0.017338088291883467,-0.013324139942787586,-0.0025499721771804615
1783246385730380800,4.035380859375,-0.01614157198369503,-0.012416560111194849,0.005846993012132588
1783246385740392700,4.045392822265625,-0.017040566650032996,-0.001755209636874497,0.001272650284320116
1783246385750403800,4.05540380859375,-0.002524550041556358,0.0037604850446805354,0.002954038916446734
1783246385760415700,4.065415771484375,-0.007760697129368782,0.0005853256072849035,0.00339880984214833
1783246385770427600,4.075427734375,-0.015242577317357063,0.005232566891238093,0.0010274502014624885
1783246385780438800,4.085438720703125,-0.010901917764544486,-0.005428637452609837,0.002391046155267395
1783246385790450700,4.09545068359375,-0.018982932889461516,-0.0027172230694442988,-0.0023524083450436593
1783246385800461800,4.1054619140625,-0.02856090857386589,0.0011989274609833956,0.01451637736808043
1783246385810473700,4.1154736328125,-0.014043722921609878,0.00008990677315741777,0.013177630444453097
1783246385820486000,4.12548583984375,-0.016287702456116677,-0.0011117606341838836,0.010334872166044078
1783246385830496800,4.135496826171875,-0.018981179323792455,0.0009707447282969951,0.0011660252718022092
1783246385840508700,4.1455087890625,-0.01658639314174652,0.016076288195140658,0.0021823444411857053
1783246385850519800,4.155519775390625,-0.015091186147928237,0.01085953992754221,0.00756911551344674
1783246385860531700,4.16553173828125,-0.018084522745013237,0.0015998364120721816,0.006127214176021516
1783246385870543600,4.175543701171875,-0.028409517404437062,0.006845116654410958,-0.012476281808642669
1783246385880554800,4.1855546875,-0.025116905599832533,0.001136931608058512,-0.0026185918504255824
1783246385890567000,4.19556689453125,-0.023766075512766837,-0.0000033610008656978604,-0.0014363575126277281
1783246385900577800,4.205577880859375,-0.00820084211230278,-0.005767988942191005,0.0011524397044442593
1783246385910589700,4.215589599609375,-0.018377368211746216,-0.005585910373553634,-0.005491402773803566
1783246385920601900,4.225601806640625,-0.03124912474453449,-0.00835848035942763,0.007351335443765856
1783246385930612700,4.23561279296875,-0.02212298448085785,-0.006085274730436504,-0.0033271853610640388
1783246385940624600,4.245624755859375,-0.012844284003973007,-0.005354585835710168,0.01074857210004702
1783246385950635800,4.2556357421875,-0.006713818424940109,-0.000014138123206794262,-0.008367583831201772
1783246385960648000,4.26564794921875,-0.021377134549617767,-0.007082615204714238,-0.0013590910253347829
1783246385970659800,4.275659912109375,-0.01658814670741558,-0.0018609715662896633,0.005529049636761192
1783246385980670700,4.285670654296875,-0.006411620607972145,0.003049560296349227,-0.001537625930015929
1783246385990683000,4.295682861328125,-0.03514671670496464,-0.014647497501038014,-0.010696985759993548
1783246386000693800,4.30569384765625,-0.024375147321820258,0.00006871785465627908,0.004230655273119919
1783246386010705700,4.31570556640625,-0.017040566650032996,0.007204378420859575,0.006529308153910097
1783246386020717800,4.3257177734375,-0.01165244387090206,0.0005903671085834502,-0.004128290877188556
1783246386030728700,4.335728759765625,-0.01344751059412956,-0.004211187954246997,-0.00585172626946587
1783246386040740600,4.34574072265625,-0.01703822856247425,0.0013172566110268235,-0.0021848537753918207
1783246386050751700,4.355751708984375,-0.027064532536268233,0.0002779036259278655,-0.004423008640599437
1783246386060764000,4.365763916015625,-0.029608371800184247,0.0043313437351956965,0.006830261578573845
1783246386070775800,4.37577587890625,-0.016440262669324874,-0.005995404489897192,-0.0012597634032834322
1783246386080786700,4.38578662109375,-0.023321254354715347,-0.0035210502656176684,-0.0045125158382463264
1783246386090798800,4.395798828125,-0.02182137118577957,0.004924121996574104,-0.0036463822618941774
1783246386100809700,4.405809814453125,-0.01792962444424629,-0.008719276495836675,-0.003423140565806534
1783246386110821600,4.415821533203125,-0.024960838255286215,-0.0056255117315799,-0.01104896611899603
1783246386120833800,4.425833740234375,-0.012840776872634886,-0.006362703432328999,-0.003169910156831611
1783246386130845000,4.435844970703125,-0.006557166558504105,-0.0007980550425127148,-0.003224825531709939
1783246386140856800,4.44585693359375,-0.003712298521399498,-0.00936510011870414,-0.00423383361089509
1783246386150867700,4.45586767578125,-0.02466390113532543,-0.0004695902731269598,-0.005821417896170169
1783246386160879900,4.4658798828125,-0.02376724455654621,0.017824118243157862,0.0018805758824804797
1783246386170891800,4.475891845703125,-0.0309480959713459,0.005959419861063361,-0.005238809402356855
1783246386180902700,4.485902587890625,-0.024210896670818327,0.001676299181766808,0.004339992832532153
1783246386190914800,4.495914794921875,-0.02122106720507145,-0.008424713996052742,-0.007398304974206257
1783246386200926000,4.505926025390625,-0.024064766198396682,0.0033998715713620185,-0.008028700415790081
1783246386210937900,4.515937744140625,-0.017179682859778403,-0.0051695846576243635,-0.006973951215448323
1783246386220950000,4.525949951171875,-0.008052373552322387,-0.0036494258856400847,0.0017517687209066934
1783246386230961000,4.5359609375,-0.031845337072014805,0.0038438159465789793,0.009521247378352563
1783246386240972800,4.545972900390625,-0.016731354570388792,0.0015804010592401028,0.0010213355545070954
1783246386250983700,4.555983642578125,-0.025257775375247,-0.00043115795888006687,-0.004458369931636843
1783246386260995800,4.565995849609375,-0.03423603160083294,-0.009112878923304379,0.0027300551515538245
1783246386271007700,4.5760078125,-0.022715105155110358,-0.013271679103188216,-0.0014812834997428581
1783246386281018600,4.5860185546875,-0.024361703318357467,0.0005160232307389378,-0.0065566596684278914
1783246386291030800,4.59603076171875,-0.027803952726721762,0.003818243113905191,-0.006089914372935891
1783246386301042000,4.6060419921875,-0.018226561564207076,0.006046513622626662,-0.00908584021932911
1783246386311053800,4.6160537109375,-0.029599603971838948,0.002615370130166411,-0.004106697816599626
1783246386321066000,4.62606591796875,-0.026309914776682854,0.00013524375222623348,0.007281053536396939
1783246386331076900,4.636076904296875,-0.027805706292390823,-0.009307232451625168,0.010457340918376575
1783246386341088800,4.6460888671875,-0.014340075519680976,-0.003423617773130536,0.000822118621401023
1783246386351099600,4.656099609375,-0.02376549099087715,0.01673464250601828,0.010575845881644636
1783246386361111800,4.66611181640625,-0.010150807136297225,0.008428915247134863,0.010925175342545845
1783246386371123700,4.676123779296875,-0.022722703939676285,0.0020452055593952537,-0.0007320017856894992
1783246386381134800,4.686134765625,-0.01913081692755222,-0.003505925761722028,0.00257843565326184
1783246386391147000,4.69614697265625,-0.02301613392829895,0.004451170722581446,-0.002343535485421307
1783246386401158000,4.706157958984375,-0.016731354570388792,-0.006176752406172454,-0.004267308905522804
1783246386411169800,4.716169677734375,-0.014485621470212935,-0.009186565214022993,-0.01305464338560123
1783246386421181700,4.726181640625,-0.022868249890208244,-0.017499818192236123,0.0018309120714548044
1783246386431192800,4.73619287109375,-0.020471710142493247,0.0027744696820154783,0.010217189186683389
1783246386441204700,4.746204833984375,-0.016279519149661064,0.006459514870308339,-0.002222386473917868
1783246386451216000,4.7562158203125,-0.02376198385953903,-0.010436492209881543,0.006929116559878457
1783246386461227800,4.766227783203125,-0.026007716959714888,0.004404810830205679,0.004618960470962338
1783246386471239700,4.77623974609375,-0.013885317489504813,-0.003272993788681924,0.006644125606038141
1783246386481250800,4.786250732421875,-0.01628185723721981,-0.0005145619260147214,0.010457539564487525
1783246386491262700,4.7962626953125,-0.0231663560539484,0.0037190935883671043,-0.004140136578609235
1783246386501273900,4.80627392578125,-0.016580547922849655,-0.0035139629377052184,0.001335385922761634
1783246386511285800,4.81628564453125,-0.02929974424242973,-0.013252791739627718,-0.007069077586417552
1783246386521297700,4.826297607421875,-0.024358196187019347,0.0040229719057679175,0.009150667350157163
1783246386531308800,4.836308837890625,-0.02540682845711708,0.00390734616946429,0.016337169904320034
1783246386541320700,4.84632080078125,-0.01628010367155075,-0.014477840022556483,-0.006610049806500319
1783246386551331800,4.856331787109375,-0.013137129470705985,-0.0014723375748842953,-0.010684030380297917
1783246386561343000,4.866343017578125,-0.025105215162038803,-0.004702222874201834,-0.0015093291340046561
1783246386571355000,4.87635498046875,-0.019866145464777947,-0.0005546016754582524,-0.0003350863064173609
1783246386581365800,4.88636572265625,-0.024505495703220366,0.006803104143589735,0.004200047789013479
1783246386591378000,4.8963779296875,-0.015230302357673644,-0.004061879144050181,0.00671077251790557
1783246386601389000,4.90638916015625,-0.03243628870248794,-0.008165186277031899,-0.003515068049402907
1783246386611401000,4.91640087890625,-0.026601006677746772,0.0011228300174698233,0.0025783740044687873
1783246386621413000,4.9264130859375,-0.019720599514245984,0.0034405323753133412,-0.0034164254139410328
1783246386631424000,4.936424072265625,-0.011940613162517547,0.004666019049659371,-0.004782631166651845
1783246386641436000,4.946435791015625,-0.017774726143479348,0.005499620329588652,-0.003211879285168834
1783246386651446800,4.95644677734375,-0.0254015677601099,-0.002552935885824263,-0.011810863002738915
1783246386661459000,4.966458984375,-0.022857728496193885,0.00223042593318969,-0.010221077627222984
1783246386671470800,4.976470947265625,-0.020612579917907714,0.002220927452482283,0.00547957762198057
1783246386681481700,4.986481689453125,-0.013430559459328651,0.005522745476849377,0.003067237516934983
1783246386691494000,4.996493896484375,-0.017321721678972245,0.006126885382458567,-0.0002543857530225068
1783246386701505000,5.006505126953125,-0.021660627666115758,-0.000020312135666608808,-0.006181809890491422
1783246386711517000,5.016516845703125,-0.021060323685407636,-0.007248473290912807,-0.001418066087400075
1783246386721529000,5.026529052734375,-0.009388006070256232,-0.011752652842365204,-0.0024612207480706272
1783246386731540000,5.0365400390625,-0.01298047760426998,0.002790032577328384,-0.0005396895174053498
1783246386741551900,5.0465517578125,-0.022409400206804275,-0.010194865473732351,-0.011513786602171602
1783246386751562800,5.056562744140625,-0.013431143981218337,0.008206869994290173,0.0036456812922842797
1783246386761575000,5.066574951171875,-0.012081482937932014,-0.005200089393742382,0.00849430863354355
1783246386771586800,5.0765869140625,-0.02629647077322006,-0.0038660277783870694,0.006398827341769356
1783246386781598000,5.086597900390625,-0.03183189306855202,0.003589366261474788,0.013177052772429306
1783246386791610000,5.096610107421875,-0.023755554118752478,0.001596146617643535,-0.0026946733109187333
1783246386801621000,5.10662109375,-0.011037526842951773,0.0026774390483275054,0.0008558131117373704
1783246386811633000,5.1166328125,-0.013133037817478179,0.0017881985910236835,0.007152869712619576
1783246386821645000,5.12664501953125,-0.02121171485483646,-0.0004855184946209192,0.015754750923463144
1783246386831656000,5.136656005859375,-0.030935821011662482,-0.007737352786399423,-0.005964164534839801
1783246386841667800,5.146667724609375,-0.02420037527680397,-0.0040332010388374325,0.001796041687473189
1783246386851679000,5.156678955078125,-0.021807342660427092,-0.00685202131923288,0.006438344218116253
1783246386861691000,5.16669091796875,-0.022254501906037328,-0.013036153314262628,0.0017266502626705914
1783246386871702800,5.176702880859375,-0.023749124377965926,-0.0017127222020179031,0.0004528583340346813
1783246386881714000,5.1867138671875,-0.009082301121950149,0.0018041998777538538,-0.0045517792695551175
1783246386891726000,5.19672607421875,-0.018957213926315306,-0.0028695640869438647,0.0000479741774383001
1783246386901737000,5.206737060546875,-0.011477087303996086,-0.007918298843875527,-0.004194202570116613
1783246386911748900,5.216748779296875,-0.015969138026237485,-0.004399586665816605,-0.004712447440694086
1783246386921760800,5.2267607421875,0.00034369887113571166,0.000910283245332539,0.00012596446722745895
1783246386931772000,5.23677197265625,-0.00788578481376171,-0.0015021116586402057,0.009064822547475341
1783246386941783800,5.24678369140625,-0.03272796512544155,-0.0002496639121323824,-0.0043128879131865685
1783246386951795000,5.256794921875,-0.024202713364362714,-0.0008928937191143632,-0.018108456176449544
1783246386961807000,5.26680712890625,-0.015372925698757171,0.0025138094518333673,0.006132326459267642
1783246386971819000,5.276819091796875,-0.02076338656544685,-0.005771642204001545,0.0031202577622490933
1783246386981830000,5.286829833984375,-0.020917115822434423,-0.011815744673833251,-0.003802508971944917
1783246386991841800,5.296841796875,-0.012391279539465904,0.005496295861341059,0.0031308522214996627
1783246387001853000,5.30685302734375,-0.02286883441209793,-0.002515489952266216,0.008113234610797371
1783246387011864800,5.31686474609375,-0.0194236623942852,0.0035340193450450895,-0.0009038717708550393
1783246387021876700,5.326876708984375,-0.022564883029460907,-0.008910269023291766,0.0062734930622042155
1783246387031888100,5.33688818359375,-0.03229132727384567,0.00036203824542462823,-0.00010676200983580202
1783246387041900000,5.346900146484375,-0.017325228810310362,0.0029931539339944717,-0.00258376941550523
1783246387051911000,5.356910888671875,-0.02121931363940239,-0.005153583370894194,-0.004529494372510817
1783246387061923000,5.366923095703125,-0.020623101311922073,0.00030789690539240834,-0.0024761580222984773
1783246387071935000,5.37693505859375,-0.01568506038784981,0.012581249153614044,-0.004810916546219959
1783246387081945900,5.38694580078125,-0.008207271853089332,0.010728680089488626,0.00776345534203574
1783246387091957800,5.396957763671875,-0.026463059511780736,0.0002512348147109151,0.010266935196099803
1783246387101969000,5.406968994140625,-0.022574819901585576,0.005842771211452782,-0.015514325197134166
1783246387111980800,5.416980712890625,-0.02377367429733276,-0.005632854787819087,-0.003732535308541264
1783246387121992700,5.42699267578125,-0.015841712254285812,-0.0016326427031308412,0.0007245719644823111
1783246387132004000,5.437004150390625,-0.02541734985113144,-0.004052636391669511,-0.0027841302762157284
1783246387142016000,5.44701611328125,-0.01045651208460331,-0.010719583467580377,-0.0019255315523478201
1783246387152027000,5.45702685546875,-0.015844634863734244,0.009207900262996553,0.001401852454827167
1783246387162038800,5.467038818359375,-0.019135493102669716,0.009631057578511536,-0.00966982325289864
1783246387172051000,5.477051025390625,-0.020186463460326192,-0.0037477716935798524,-0.013181728947546798
1783246387182061800,5.487061767578125,-0.021086627170443534,-0.005189458401873707,-0.002664154875068925
1783246387192073700,5.49707373046875,-0.012108370944857597,0.006643529667705297,-0.005904244191281031
1783246387202085000,5.507085205078125,-0.010462941825389862,0.0036687516406178474,-0.009135613628209102
1783246387212097000,5.517096923828125,-0.03156184395551681,-0.006806720872782171,-0.002295173148915637
1783246387222109000,5.52710888671875,-0.03515606905519962,0.005829181077517569,0.003928539654542692
1783246387232119800,5.537119873046875,-0.024531214666366576,0.00956573725733906,-0.0013878718785359523
1783246387242132000,5.547132080078125,-0.010014029014110564,0.0012814181126654146,-0.0017609658075147308
1783246387252142800,5.557142822265625,-0.030515549772977827,0.0002573722945526242,0.0038206999324727803
1783246387262154800,5.56715478515625,-0.018691256466507912,0.0019958134597167373,0.0009062372578773647
1783246387272167000,5.5771669921875,-0.010463526347279548,-0.005582732035778463,0.0009352099073235877
1783246387282178000,5.587177978515625,-0.01869476359784603,0.007017806340195238,0.010192410938453394
1783246387292190000,5.59718994140625,-0.03575695755779743,-0.001875511548295617,-0.0028337004724075083
1783246387302200800,5.607200927734375,-0.038302550387382506,-0.005708915698714554,0.007508290987589861
1783246387312213000,5.617212890625,-0.01555938818156719,0.0021107816088944673,0.003055202302557882
1783246387322225000,5.627224853515625,-0.011074936243891715,0.005679178147576749,-0.006822822624212131
1783246387332235800,5.63723583984375,-0.01945814918577671,-0.006664499390497803,-0.015502356198127381
1783246387342248000,5.647248046875,-0.03023088761270046,-0.005779350586421788,0.002699691979330964
1783246387352258800,5.6572587890625,0.002542085698246956,0.008392894085682927,0.0010212921720230952
1783246387362270700,5.667270751953125,-0.014815876337885855,0.006874233151040971,-0.012694137226848397
1783246387372283000,5.677282958984375,-0.025739421412348747,-0.004194273352064192,-0.00896368427753914
1783246387382294000,5.6872939453125,-0.007035889986157417,-0.007450827462598681,0.013314796725707128
1783246387392306000,5.697305908203125,-0.014217325922846793,0.01211169541310519,0.005243047186057083
1783246387402316800,5.70731689453125,-0.014521277305483818,-0.0031797260146588084,-0.0004763168414356187
1783246387412329000,5.717328857421875,-0.03098550537228584,-0.005173968571797013,0.005776772753556724
1783246387422340900,5.7273408203125,-0.027549101182818413,0.011713745604082941,-0.0033448123492999
1783246387432351700,5.737351806640625,-0.011243278548121452,0.00883333132956177,0.0017141287078149615
1783246387442364000,5.747364013671875,-0.02561199564039707,-0.010231398091837764,0.0014316699210670776
1783246387452375000,5.757375,-0.014691373175382614,-0.0008748831383883953,-0.0148605648629833
1783246387462387000,5.767386962890625,-0.018284429231286047,0.0024628829821944235,0.0011323764472384937
1783246387472399000,5.777399169921875,-0.023372692281007766,-0.011135105465911328,0.0034120734658092257
1783246387482410000,5.787409912109375,-0.016789222237467764,0.001905870153941214,-0.004766191488504409
1783246387492422000,5.797421875,-0.01948211458325386,-0.000955291430838406,-0.00043146391955669965
1783246387502432800,5.807432861328125,-0.04027940341830254,-0.006104600485414266,-0.002488834840781055
1783246387512445000,5.81744482421875,-0.02920388265252113,-0.004655972579680383,-0.0066579349356819875
1783246387522456800,5.827456787109375,-0.03250233967602253,0.007169051379151642,0.0015445990934967993
1783246387532468000,5.837468017578125,-0.026367782443761825,-0.008680369257554412,0.0034536270356155
1783246387542480000,5.84747998046875,-0.025471125864982604,-0.012539090512320399,-0.007479884593724273
1783246387552491000,5.857490966796875,-0.01978665048778057,0.01473320302311331,-0.008555427703633904
1783246387562504000,5.86750390625,-0.01814531302154064,0.0070627414604648945,-0.013798712351708672
1783246387572515800,5.877515869140625,-0.023528759625554084,-0.004402290079556405,-0.002657058414001949
1783246387582527000,5.88752685546875,-0.018743278914690017,0.004654511274956166,0.011654350416909437
1783246387592539000,5.897538818359375,-0.013510054436326026,-0.005284370143711567,0.005101462741300929
1783246387602550000,5.907550048828125,-0.007227613165974617,-0.013301051328144967,-0.004318986577121541
1783246387612562000,5.91756201171875,-0.01186813244819641,-0.014298866726458071,0.0020040698314085603
1783246387622573800,5.92757373046875,-0.019498481196165082,0.003014306319877505,0.00031533357646549117
1783246387632584700,5.937584716796875,-0.022939561560750006,0.008533983056806027,-0.009872086093039252
1783246387642596900,5.947596923828125,-0.022789339435100555,-0.008688552564010023,-0.010174733717867639
1783246387652608000,5.95760791015625,-0.013213117316365241,0.0031579891068860885,0.015774106361193117
1783246387662620000,5.967619873046875,-0.009466332003474236,-0.010144815786927937,0.012698359027528203
1783246387672632000,5.977632080078125,-0.01978840405344963,-0.010663177105225623,-0.006666517817648127
1783246387682643000,5.987642822265625,-0.016197101563215254,-0.007971125009655952,-0.008210219578712713
1783246387692654800,5.99765478515625,-0.028768413844704625,-0.002102927096001804,0.008471740608708932
1783246387702665700,6.007665771484375,-0.015301029506325722,-0.0036058424722403286,0.00426119197527878
1783246387712678000,6.017677978515625,-0.014103344154357909,0.005662446208484471,-0.009828861155954655
1783246387722689000,6.02768896484375,-0.012459668600559234,-0.005216565604507923,-0.005683441047451924
1783246387732701000,6.037700927734375,-0.01679857458770275,0.0007576864995062351,-0.00017603470362955703
1783246387742713000,6.047713134765625,-0.012757190242409705,0.00043017157819122073,0.0031548244688427074
1783246387752724000,6.057723876953125,-0.013352233526110648,0.012612703737802803,-0.005941539427789393
1783246387762735900,6.06773583984375,-0.01080722521841526,-0.0019150033084675668,-0.004382765678467695
1783246387772746800,6.077746826171875,-0.013352818048000335,0.002159844915010035,0.010744453047355636
1783246387782759000,6.087759033203125,-0.023076339682936667,0.0023856530275195836,0.0012914097837172448
1783246387792770800,6.097770751953125,-0.010656418570876122,-0.0022478519920259713,-0.006769880010711494
1783246387802781700,6.10778173828125,-0.02322247015535831,0.0029107728801667687,0.001497031341434922
1783246387812793900,6.1177939453125,-0.022471359527111053,-0.011982662205956876,-0.0026601956525817514
1783246387822805000,6.127804931640625,-0.03265022371411323,0.012060951606556772,0.003408091410435736
1783246387832817000,6.13781689453125,-0.02262275069653988,0.007230316579714417,-0.009619090862793382
1783246387842829000,6.1478291015625,-0.017836100941896436,0.006513363949395716,-0.011119476355228107
1783246387852840000,6.15783984375,-0.019183423897624015,-0.0011063903393223882,0.00755273976738099
1783246387862851800,6.167851806640625,-0.01618891825675964,-0.004135492369532585,0.007450966743205208
1783246387872862700,6.17786279296875,-0.021876316243410108,0.01160166353173554,0.0016499637306900694
1783246387882875000,6.187875,-0.02307224802970886,0.008266235498711466,-0.004398433605057653
1783246387892886800,6.19788671875,-0.01424362940788269,-0.0026537659117951986,-0.0014838795989169738
1783246387902898000,6.20789794921875,-0.008556231421232224,-0.0013274492114782332,-0.007300635019701439
1783246387912910000,6.21791015625,-0.018733342042565344,0.003957395856268703,-0.011053167370078153
1783246387922921000,6.2279208984375,-0.0027238720059394833,0.0002482026074081659,-0.007675379766360856
1783246387932932900,6.237932861328125,-0.005564648389816284,0.005125380189716816,0.00491843889117008
1783246387942945000,6.247945068359375,-0.03099953389763832,0.006248904326930642,0.006006757000973448
1783246387952956000,6.257955810546875,-0.02411445055902004,0.0015537687806412577,-0.012005040717835072
1783246387962967800,6.2679677734375,-0.02725684023797512,-0.006523666147701442,0.0020299349250271917
1783246387972979000,6.27797900390625,-0.031447277665138246,-0.000374094009399414,-0.003831703100388404
1783246387982991000,6.2879912109375,-0.01662964776158333,-0.0037647593609988687,-0.004453686906653456
1783246387993003000,6.2980029296875,-0.01587970617711544,-0.0060499111561104655,0.0025609776283847165
1783246388003014000,6.308013916015625,-0.03159223909378051,0.0003876476107165217,0.0021402999643236396
1783246388013026000,6.318026123046875,-0.02396072130203247,0.009655936291441321,-0.0019051463514450004
1783246388023037000,6.328036865234375,-0.017078560572862625,-0.0003374517934396863,0.0061832369458861645
1783246388033048800,6.338048828125,-0.02336158636510372,-0.00023081308118999002,0.005760520305077079
1783246388043061000,6.34806103515625,-0.014534721308946608,0.0038575887436047194,-0.0041846036247094156
1783246388053072000,6.35807177734375,-0.010945172384381294,0.006134045775607228,0.010573521493817678
1783246388063083800,6.368083740234375,-0.012887538623809813,0.005017499368451536,0.012145077092899009
1783246388073095000,6.378094970703125,-0.01812134762406349,0.01406399852465838,-0.010153188606339972
1783246388083107000,6.388107177734375,-0.017374328649044035,-0.0017770561425015329,0.0010608432976994663
1783246388093119000,6.398118896484375,-0.007796352964639664,-0.013766769143752753,0.006042307804967276
1783246388103129900,6.4081298828125,-0.016624387064576147,0.0025366423381492495,-0.004950133220665157
1783246388113142000,6.41814208984375,-0.02156125894486904,0.013421755098365247,-0.00810432065197965
1783246388123153000,6.42815283203125,-0.026347324177622793,-0.007732420882955193,0.001845342455606442
1783246388133164800,6.438164794921875,-0.02514846978187561,-0.003440495842695236,-0.008369472110900096
1783246388143176700,6.4481767578125,-0.016022329518198965,0.008418211190029978,0.00583996504972456
1783246388153188000,6.45818798828125,-0.004350011903047561,0.001231624154187739,-0.0046102588579873555
1783246388163200000,6.468199951171875,-0.017817980763316154,-0.005189531467109918,0.0030064289740985256
1783246388173211000,6.4782109375,-0.030387539479136465,0.008854885574243963,0.008149518350441939
1783246388183223000,6.48822314453125,-0.032033553120493885,-0.004309424164332449,0.014742105565487872
1783246388193235000,6.49823486328125,-0.02155950537919998,0.007084259172528981,-0.008136907747329678
1783246388203245800,6.508245849609375,-0.01931961749792099,-0.003137421242892742,0.0001563048065640032
1783246388213258000,6.518258056640625,-0.0045066637694835664,-0.002361906825751066,-0.0006401382341748104
1783246388223268900,6.528268798828125,-0.010344283881783484,-0.010551204630732535,-0.01099811728117056
1783246388233281000,6.538281005859375,-0.030245500659942626,-0.0036773733384907244,0.0015483528200071304
1783246388243293000,6.54829296875,-0.017078560572862625,0.007723616521991789,0.001272638867876958
1783246388253304000,6.558303955078125,-0.015132687202095985,-0.009042480568215251,0.0076440690293558865
1783246388263316000,6.56831591796875,-0.01109130285680294,0.0007986395644024014,-0.0006340875193011016
1783246388273326800,6.578326904296875,-0.015277648630738258,-0.006475004700385033,-0.00526121531369863
1783246388283339000,6.588339111328125,-0.029046646264195442,-0.0052072497868910425,0.008040281255729496
1783246388293351000,6.598350830078125,-0.011091887378692626,0.009800495861284434,-0.0004905303131672553
1783246388303361800,6.60836181640625,-0.03488601994216442,0.00820800250545144,-0.004496039627480786
1783246388313373700,6.618373779296875,-0.02171907985508442,0.0000016439678147435187,-0.01086194423047127
1783246388323385000,6.628385009765625,-0.012592355069518089,-0.002356207737326622,-0.009771441013447475
1783246388333397000,6.63839697265625,-0.020227379992604256,-0.00047105157785117625,-0.0028404749897774305
1783246388343407900,6.648407958984375,-0.035193478456139564,0.005275711913220584,-0.006457599191146437
1783246388353420000,6.658419921875,-0.029209727871417998,0.0026277912203222513,-0.0001778248019167222
1783246388363432000,6.668431884765625,-0.020978490620851515,0.007983034643158316,0.0006459218042786232
1783246388373442800,6.67844287109375,-0.032496494457125664,0.00023998276833444833,-0.009191140924440696
1783246388383454700,6.688454833984375,-0.031600422400236125,-0.001665302863717079,-0.005039597035828046
1783246388393466000,6.698466064453125,-0.0230704944640398,0.012390147028304635,-0.007597323261201381
1783246388403478000,6.70847802734375,-0.020078326910734176,0.009253237242065369,0.004470571826084051
1783246388413490000,6.718489990234375,-0.023519407275319097,-0.008420330081880091,0.007598355307662859
1783246388423501000,6.7285009765625,-0.03025017683506012,0.002279671902395785,0.00043710592576535416
1783246388433513000,6.738512939453125,-0.0043622868627309795,0.00869056185800582,-0.0028468818976776673
1783246388443523800,6.74852392578125,-0.019924597653746604,-0.002242664360255003,0.006805965104245115
1783246388453535700,6.75853564453125,-0.026511574828624724,0.004868227090872824,0.0010154697860125452
1783246388463548000,6.7685478515625,-0.02292202590405941,0.002514138245396316,-0.0016594485116656868
1783246388473558800,6.778558837890625,-0.017983400458097456,-0.01170611028689891,0.011798846054670865
1783246388483570700,6.78857080078125,-0.034894787770509715,-0.00222111011557281,-0.006437695764144882
1783246388493582000,6.79858203125,-0.031603345009684564,0.003324029856175184,0.00026349150808528064
1783246388503594000,6.808593994140625,-0.02442074002921581,0.008570040750876069,-0.008158528207382186
1783246388513606000,6.81860595703125,-0.012143442258238792,0.0007717515574768185,0.0014993808454368263
1783246388523617000,6.828616943359375,-0.0184258835285902,-0.0003279533127322793,-0.0009961371811688876
1783246388533629000,6.83862890625,-0.0254582663834095,0.011780271501652896,0.004140282709081657
1783246388543639800,6.848639892578125,-0.03263619518876076,0.004777187806554138,-0.004842083436041139
1783246388553651700,6.858651611328125,-0.000013444003462791442,-0.00004836918637156486,0.0036850748710450716
1783246388563663400,6.868663330078125,-0.01842296091914177,0.007983947958610951,-0.007238938277587294
1783246388573674500,6.878674560546875,-0.025756957069039344,-0.004855111880972981,-0.0015823213049792684
1783246388583686400,6.888686279296875,-0.02006897456049919,-0.00803834502696991,0.003443439001741353
1783246388593697300,6.898697265625,-0.0187222361266613,-0.0013016206504777074,0.009160419275902677
1783246388603709200,6.908709228515625,-0.027103695502877233,-0.0011069383285939693,-0.005218570331926457
1783246388613721300,6.918721435546875,-0.01648176372349262,0.004780329611711204,-0.015394192249071783
1783246388623732200,6.928732177734375,-0.031145664370059965,0.008061470174230635,0.004361149784992449
1783246388633744100,6.938744140625,-0.0025648820519447325,-0.0012276055661961435,0.0065690350928111
1783246388643755500,6.948755615234375,-0.010494506007432937,-0.007836283116228878,-0.009712255888828077
1783246388653767400,6.958767333984375,-0.03189385238885879,-0.008255166115425526,0.0019196383843896909
1783246388663779300,6.968779296875,-0.018276245924830434,0.003998166258074343,-0.002385698693292215
1783246388673790200,6.978790283203125,-0.004809446108341216,0.006563523234054446,-0.0017918358698138035
1783246388683802400,6.98880224609375,-0.0064554597496986384,-0.006005304829403758,0.00027228901918279006
1783246388693813200,6.998813232421875,-0.014535890352725981,0.0008680515388026834,-0.004706636471126694
1783246388703825200,7.0088251953125,-0.016326865422725677,-0.004787380407005548,0.0009497978383908048
1783246388713837300,7.01883740234375,-0.02201309436559677,0.011226363945938646,0.0018402918211533686
1783246388723848400,7.028848388671875,-0.017824995025992392,0.006333733066171407,-0.0034078242656658403
1783246388733860400,7.0388603515625,-0.017671850290894506,0.005047456115297973,-0.004897471451666206
1783246388743871200,7.048871337890625,-0.016173136165738105,-0.005042597277089953,-0.00457305951960152
1783246388753883400,7.05888330078125,-0.017068623700737952,0.009112732792831956,0.00693731584935449
1783246388763894300,7.068894287109375,-0.010182955840229987,-0.0058941360725089905,0.00042182159166550263
1783246388773906200,7.07890625,-0.013926234021782875,-0.0070372416930273175,0.001846611964085605
1783246388783918300,7.08891845703125,-0.008838555493950843,0.004633395421691239,-0.0022895311427069825
1783246388793929200,7.09892919921875,-0.019164719197154043,-0.0017724165000021456,-0.007093563573702704
1783246388803941400,7.10894140625,-0.017968202888965605,0.0021394597141072154,0.011783025147742592
1783246388813952500,7.118952392578125,-0.02679448342323303,-0.014830598982982337,-0.003918294538452756
1783246388823964400,7.12896435546875,-0.0006079027652740478,-0.009599639526940882,-0.006306564214744139
1783246388833976300,7.138976318359375,-0.01183072304725647,0.002079253959469497,-0.0022631728587439283
1783246388843987200,7.1489873046875,-0.018267478096485136,-0.0053554991511628024,0.011785792493564077
1783246388853999400,7.158999267578125,-0.03263210353553295,0.0001791194265708327,-0.004905937885912135
1783246388864010200,7.16901025390625,-0.026194179442524907,0.00847973211891949,-0.0033904781219316646
1783246388874022100,7.179022216796875,-0.02948445315957069,0.00020034487769007682,0.0002241298953653313
1783246388884034300,7.189034423828125,-0.017961773148179053,-0.0014676613997668027,-0.0042955691689159714
1783246388894045400,7.19904541015625,-0.02125321590900421,-0.00431212757807225,-0.006217867584561463
1783246388904057300,7.209057373046875,-0.005391045388579368,0.004203150778263807,0.0030793914623209275
1783246388914068200,7.219068115234375,-0.019758008915185928,-0.0014450111765414476,0.0033928938413038848
1783246388924080400,7.229080322265625,-0.014523030871152877,-0.0007847937021404505,-0.002875518903695047
1783246388934092300,7.23909228515625,-0.007190788286924362,0.009093808896653354,0.005485066647850908
1783246388944103200,7.249103271484375,-0.015120996764302253,-0.0015500424535945057,-0.00004822990576503798
1783246388954115300,7.259115234375,-0.012422259199619293,-0.002719634222239256,0.011340797805576584
1783246388964126500,7.26912646484375,-0.025586861199140547,0.012444945955462753,-0.003078151636593975
1783246388974138400,7.279138427734375,-0.01720423277914524,-0.011427220280282199,-0.001503308101883158
1783246388984150500,7.289150634765625,-0.010467618000507354,-0.0038768779659643766,0.007612593895569443
1783246388994161400,7.299161376953125,-0.013608838635683058,0.0020836744062602518,0.009277615914784838
1783246389004173300,7.30917333984375,-0.017048165434598923,-0.002011449420265853,-0.004474302719708066
1783246389014184200,7.31918408203125,-0.028870705175399778,-0.0004808057868853211,0.0033830985330743713
1783246389024196400,7.3291962890625,-0.014206220006942749,0.00400280590057373,-0.0032093379849218763
1783246389034208300,7.339208251953125,-0.015254267755150794,0.009554083352163434,-0.0030155918113770894
1783246389044219100,7.34921923828125,-0.028425884017348288,-0.004432758283056318,-0.00044773235105676574
1783246389054231300,7.359231201171875,-0.027379005312919615,-0.003963862129673362,-0.004028602495533414
1783246389064242400,7.369242431640625,-0.014060089534521102,0.006928264893218875,-0.003694653266854584
1783246389074254300,7.37925439453125,-0.020045593684911725,0.0019881781425327063,0.010840369436191395
1783246389084266500,7.3892666015625,-0.012564882540702819,-0.008304046758450567,-0.00887526849185815
1783246389094277400,7.39927734375,-0.010469371566176415,0.000200892866961658,0.0004941401924937963
1783246389104289300,7.409289306640625,-0.006579378390312194,-0.0008332359537482261,0.00827725236635888
1783246389114300200,7.419300048828125,-0.0188484928548336,0.006319558410346508,-0.004881180187279824
1783246389124312300,7.429312255859375,-0.013759645283222198,0.00421674091219902,-0.01269877001948189
1783246389134323500,7.439323486328125,-0.016600421667098998,-0.0036255335533991453,0.00006842559371143579
1783246389144335400,7.44933544921875,-0.01255786827802658,0.002147789151035249,-0.010032754264178219
1783246389154347500,7.459347412109375,-0.022433365604281424,-0.00625624738316983,0.0017511065672035327
1783246389164358400,7.4693583984375,-0.021533201894164085,-0.0070580287527292965,0.005951595030922908
1783246389174370300,7.479370361328125,-0.019287468793988228,0.01086041671037674,0.0012638459233567118
1783246389184381200,7.489381103515625,-0.015995441511273384,0.007416852127760648,-0.002029599281598348
1783246389194393300,7.499393310546875,-0.023776596906781196,-0.0006570756692439318,-0.012521922465099486
1783246389204405200,7.5094052734375,-0.015998364120721816,-0.0017896964283660053,-0.004586448724137153
1783246389214416400,7.51941650390625,-0.01360007080733776,-0.0015870499957352875,0.004379717488144524
1783246389224428300,7.52942822265625,-0.003572597789764404,-0.00447104446683079,-0.016072783347091172
1783246389234439400,7.539439453125,-0.01165244387090206,0.008391944237612187,0.01015919593872968
1783246389244451300,7.549451416015625,-0.020929975304007527,0.0022442352628335356,0.0029305963920662178
1783246389254463500,7.55946337890625,-0.006413374173641204,0.0060969286356121295,-0.0023624639481771735
1783246389264474400,7.569474365234375,-0.01554068348109722,0.002188376889750361,-0.0032072190930717624
1783246389274486300,7.579486328125,-0.02003273420333862,-0.003586955108679831,-0.006422290415747557
1783246389284497200,7.5894970703125,-0.0219768540084362,0.001915916623920202,-0.0014397618959774263
1783246389294509300,7.59950927734375,-0.019283961662650107,0.007299765086732805,0.0009756674985866993
1783246389304521200,7.609521240234375,-0.03963467577397823,0.0007325520582497119,0.0028276840068632734
1783246389314532400,7.619532470703125,-0.015840543210506437,0.01130005023665726,-0.014705461066239513
1783246389324544500,7.62954443359375,-0.011201192972064018,0.0014059578077867626,0.010505986382672562
1783246389334555400,7.639555419921875,-0.025562895801663398,-0.002556516082398593,-0.0002408618344576098
1783246389344567300,7.6495673828125,-0.02286532728075981,0.0021221067205071447,0.005020278130716178
1783246389354579200,7.6595791015625,-0.028398996010422704,0.0034007483541965483,0.006218876798136625
1783246389364590300,7.66959033203125,-0.004755085572600365,-0.005155738795362412,-0.0030172083797282536
1783246389374602200,7.679602294921875,-0.016425065100193023,-0.0017626622909680007,0.005604183532472234
1783246389384613400,7.68961328125,-0.010887304717302322,0.0022452947087585923,0.0014012496666284276
1783246389394625500,7.69962548828125,-0.02345744795501232,-0.004181596533581614,0.00986985760333482
1783246389404637400,7.709637451171875,-0.02166705740690231,-0.008995134295150637,0.005288783740636426
1783246389414648300,7.7196484375,-0.02046761848926544,-0.011151837405003607,-0.005927437837200704
1783246389424660500,7.729660400390625,-0.02765197703540325,0.00864949919525534,0.003657396846252959
1783246389434671400,7.73967138671875,-0.028849077865481375,-0.003167268391884863,0.005432076085289009
1783246389444683300,7.749683349609375,-0.022412907338142395,-0.006512815960124135,-0.003455885208072141
1783246389454695200,7.759695068359375,-0.02270925993621349,-0.007182276186905801,-0.013042416374979075
1783246389464706300,7.769706298828125,-0.016276012018322943,-0.006563486701436341,0.0077413964905659665
1783246389474718200,7.77971826171875,-0.02629822433888912,0.0006836348826065659,0.004909244087850675
1783246389484729300,7.789729248046875,-0.009689619365334511,-0.0030309651937335726,-0.013546710352017544
1783246389494741500,7.799741455078125,-0.010739420679211615,-0.010908347505331038,-0.015021828972455114
1783246389504752400,7.80975244140625,-0.01073883615732193,-0.0014931246345862746,-0.0014274937861599027
1783246389514764300,7.819764404296875,-0.027046996879577637,-0.007387735631130635,-0.00246852727169171
1783246389524776200,7.829776123046875,-0.030190555602312086,-0.013945340581052004,-0.003830193846602924
1783246389534787300,7.839787353515625,-0.01522913331389427,-0.010456950476020573,0.00413501059563132
1783246389544799200,7.84979931640625,-0.018072247785329818,-0.01584602310322225,0.003835993399727158
1783246389554810400,7.859810302734375,-0.011637830823659896,0.014526282274164259,-0.013132042303634807
1783246389564825300,7.869825439453125,-0.024654548785090446,-0.009005363428220153,-0.012280542324122507
1783246389574837200,7.879837158203125,-0.018823358413577077,0.00293440948408097,0.000596856214874424
1783246389584848400,7.889848388671875,-0.0074549921810626975,-0.009841960382834075,-0.0026023645181208845
1783246389594860300,7.8998603515625,-0.026162615260481834,0.006385280590318143,0.0000861964291310869
1783246389604871200,7.90987109375,-0.005512041419744491,0.005043437527306378,-0.014369813070818782
1783246389614883000,7.919883056640625,-0.03499064936041832,-0.001986753370426595,-0.0036233461628900837
1783246389624895200,7.929895263671875,-0.007754851910471916,-0.004271430241502821,0.00603227731800871
1783246389634906400,7.93990625,-0.03259235604703426,0.007492620777711271,0.0018792424419196321
1783246389644918300,7.949918212890625,-0.012240472891926766,-0.014378288638219236,-0.00560445067724213
1783246389654929400,7.959929443359375,-0.034085224953293795,-0.007705788604356348,-0.002292634131957311
1783246389664941300,7.96994140625,-0.017925532791018484,-0.0019874840227887035,0.002735363797622267
1783246389674953200,7.979953125,-0.022265607821941376,0.0008655307881534099,0.004799826613336336
1783246389684964000,7.989964111328125,-0.027652561557292937,-0.00842274123467505,-0.000013823029375635087
1783246389694976300,7.999976318359375,-0.020320903494954107,0.006111030226200818,-0.0034963861818192526
1783246389704987400,8.0099873046875,-0.01792845540046692,0.010784063538536429,0.009775393386068754
1783246389714999300,8.019999267578125,-0.022117723783850667,-0.009425853862613439,-0.0065284519206732505
1783246389725011500,8.030011474609376,-0.018677227941155432,-0.003407141562364995,-0.006805499313364271
1783246389735022300,8.040022216796874,-0.008802315136790275,-0.0009794760240241884,0.004356583207729272
1783246389745034200,8.0500341796875,-0.005060205999016762,-0.0015948679760098457,0.010392648501577787
1783246389755045000,8.060045166015625,-0.014634674552083015,0.0001327960668131709,-0.005153277410217561
1783246389765057300,8.070057373046875,-0.024659809482097624,0.006701506932638586,0.005187033549346961
1783246389775068200,8.080068115234376,-0.02346446221768856,-0.0029670331120491026,-0.0056854754576226695
1783246389785080300,8.090080322265624,-0.010143792873620987,0.009232961639016867,-0.014530097649467643
1783246389795092200,8.10009228515625,-0.015234978532791137,0.002575293848104775,-0.005879070934117771
1783246389805103400,8.110103271484375,-0.022866496324539184,-0.005809745724685489,-0.0004070875301258638
1783246389815115300,8.120115234375,-0.012835516175627708,0.0007927212802693247,0.0015114160598139277
1783246389825126100,8.130126220703126,-0.02286006658375263,0.0040535862397402525,0.002419176271208562
1783246389835138300,8.14013818359375,-0.01717208407521248,-0.0006119213532656431,-0.00179940725491615
1783246389845150200,8.150150146484375,-0.017319383591413495,0.004721146770380437,-0.005618305672658607
1783246389855161000,8.1601611328125,-0.018517653465270994,0.0014551307117566465,-0.006640899319201707
1783246389865173200,8.17017333984375,-0.014475684598088264,-0.00292772401496768,-0.0028371550881071015
1783246389875184400,8.180184326171876,-0.02016132901906967,-0.0014355126958340405,0.0031777075875084847
1783246389885196300,8.1901962890625,-0.027191958308219907,-0.008527699446491897,-0.009023887748888227
1783246389895208400,8.20020849609375,-0.018061141869425774,0.008018727011047303,0.0027237281587556934
1783246389905219300,8.21021923828125,-0.026439678636193273,0.0006634323447942734,0.001714813694404438
1783246389915231200,8.220231201171876,-0.014915829581022262,-0.004920797528326511,0.004721137637225911
1783246389925242000,8.2302421875,-0.017760113096237182,0.005579517165385186,0.0027705264425487257
1783246389935254300,8.240254150390625,-0.014765022933483123,-0.009287979761883615,-0.0054336584043107
1783246389945266200,8.25026611328125,-0.013418284499645232,0.007029094919189811,-0.008445238477562088
1783246389955277300,8.26027734375,-0.022695231410861015,-0.0055654155747964975,-0.0018793566063512116
1783246389965289500,8.27028955078125,-0.023140052568912505,-0.011513400726392864,-0.00224793647370534
1783246389975300400,8.28030029296875,-0.022539164066314697,-0.006190232942253351,0.00004602881552418694
1783246389985312300,8.290312255859375,-0.02014379336237907,0.003213007229752838,-0.006809997391968499
1783246389995324400,8.300324462890625,-0.016401099702715874,-0.0040249446671456095,-0.004733122619253118
1783246390005335300,8.310335205078125,-0.01745090101659298,0.005920585688017308,0.0013855109580908902
1783246390015347200,8.32034716796875,-0.011761749464273451,-0.003434029569290578,-0.002977744019019883
1783246390025358000,8.330358154296874,-0.01549976694881916,-0.005903232694417238,-0.005120404903788585
1783246390035370200,8.340370361328125,-0.018045944300293923,-0.00044814562629908323,-0.00007391690287040546
1783246390045381400,8.35038134765625,-0.02208966673314571,0.0035196254935115573,-0.006361682802310678
1783246390055393300,8.360393310546876,-0.025681553745269772,-0.010231544222310185,0.001730837814020924
1783246390065405400,8.370405517578124,-0.015507950255274771,0.0001423310801386833,0.011445075597381218
1783246390075416300,8.380416259765624,-0.010267711514234543,-0.00037442280296236274,0.00877493393952027
1783246390085428200,8.39042822265625,-0.01969604959487915,0.003844035142287612,-0.002630675013863947
1783246390095439000,8.400439208984375,-0.02269230880141258,0.0006264978678897023,0.0015469508807873353
1783246390105451300,8.410451171875,-0.017300094369053838,-0.006672536566480994,-0.0051574284289497875
1783246390115463200,8.420463134765624,-0.026425650110840797,0.002993226999230683,0.0020343256890657355
1783246390125474300,8.430474365234375,-0.027318215036392212,0.015571699673868716,-0.006454916327004321
1783246390135486500,8.440486572265625,-0.016544307565689087,-0.00027373890746384857,0.0019894567841663956
1783246390145497300,8.450497314453125,-0.020285247659683227,-0.0038734073672443627,0.0075448578550247475
1783246390155509200,8.46050927734375,-0.018936755660176274,0.005227160063758492,-0.0011013374215806833
1783246390165521400,8.470521484375,-0.025373510709404943,0.006474091384932398,-0.006958504767855629
1783246390175532300,8.4805322265625,-0.012504092264175414,-0.01029631655421108,-0.009854032129829283
1783246390185544200,8.490544189453125,-0.03150923698544502,-0.004710369648039341,-0.0006262535560061223
1783246390195555300,8.500555419921875,-0.012205986100435256,0.0033654213124886152,0.001142100973520428
1783246390205567200,8.510567138671876,-0.023279168778657912,0.0002174786755815148,-0.006038353149057365
1783246390215579400,8.520579345703124,-0.015198153653740882,-0.009223609288781881,0.009093781497189774
1783246390225590300,8.53059033203125,-0.031208792734146118,0.010825308864377438,0.000025463234819471834
1783246390235602400,8.5406025390625,-0.02477203768491745,-0.0031486732892692087,0.0029673185231280513
1783246390245613300,8.55061328125,-0.021777532044053076,-0.011859656880795955,0.001355640976212453
1783246390255625200,8.560625244140626,-0.024321955829858778,-0.017979089609161017,-0.0026675341422436757
1783246390265637400,8.570637451171875,-0.025970307558774948,-0.0011649155935272574,0.001355357848422136
1783246390275648300,8.580648193359375,-0.009960837522149085,-0.004107873710244894,-0.0023255865534883924
1783246390285660200,8.59066015625,-0.02148234848976135,-0.005307641421444713,-0.0035773584465612655
1783246390295671300,8.60067138671875,-0.02118131971657276,0.004358670133538544,0.006853231462207622
1783246390305683500,8.610683349609374,-0.015640636724233627,0.005007818224653601,-0.0034183296766597776
1783246390315694300,8.6206943359375,-0.016388824743032455,0.006366575889848172,0.0060604690827429294
1783246390325706200,8.630706298828125,-0.028209610918164253,-0.005323496577702463,0.012972534043120685
1783246390335718400,8.640718505859375,-0.028506548038125037,-0.0010305120915174483,-0.0015133294556871988
1783246390345729300,8.650729248046876,-0.008752630776166915,-0.0036049291567876933,0.0014574025839450768
1783246390355741200,8.6607412109375,-0.03463642909526825,0.0033214360402896996,0.001997213115647901
1783246390365752300,8.67075244140625,-0.023417700466513633,0.004634089541435241,-0.01562407831507735
1783246390375764500,8.680764404296875,-0.014141338077187537,-0.009699958096258341,-0.0011273143963422625
1783246390385776400,8.6907763671875,-0.0009749825119972228,-0.0090637425519526,0.0010645924576325341
1783246390395787300,8.700787353515626,-0.01549099912047386,-0.0003599924188107252,-0.008236470548110083
1783246390405799400,8.71079931640625,-0.05491583153605461,0.005767769746482372,-0.023888690395571757
1783246390415810300,8.720810302734375,-0.20868717409968374,0.0023209902934730052,-0.0914638938057702
1783246390425822200,8.730822265625,0.18291852659285068,-0.024594744889251886,0.06907035332180093
1783246390435834000,8.740834228515626,0.08848959983587265,-0.0012840484611690043,0.055781499321525915
1783246390445845200,8.75084521484375,-0.2534849317252636,0.001960815211571753,-0.09680706319832243
1783246390455857200,8.760857177734374,0.10204349341392517,-0.00009060089290142059,0.03252297147209756
1783246390465868300,8.770868408203125,0.07302724228799343,-0.016018931984715164,0.0440448203664273
1783246390475880400,8.78088037109375,-0.06881576207280159,0.005510287854075432,-0.007277977946610189
1783246390485892400,8.790892333984376,0.028494857600331304,-0.004358633600920438,0.019397368042403832
1783246390495903200,8.8009033203125,0.028554478833079336,-0.01256312897503376,-0.0026986918989103286
1783246390505915400,8.810915283203125,-0.05310030654668808,0.009960106869786977,-0.01629618715667166
1783246390515926300,8.82092626953125,-0.02912906385064125,0.011902582707069814,0.01260613014983246
1783246390525938200,8.830938232421875,-0.0024789573341608044,-0.003791939628869295,0.0008255663872347213
1783246390535950000,8.8409501953125,-0.1238444063335657,-0.010533194050006568,-0.05768523231730796
