time,seconds_elapsed,z,y,x
1783246442108398000,0.068398193359375,-0.001235094752907753,-0.0019433160874992607,0.027209411766519767
1783246442118409000,0.078408935546875,-0.037301264390349385,0.007265607088804245,-0.01133130389144644
1783246442128421000,0.088421142578125,-0.011413374418020247,0.01038246046770364,-0.030088305370812304
1783246442138432000,0.098431884765625,-0.02503039636015892,-0.0021895459335297346,0.01073287220741622
1783246442148444000,0.10844384765625,-0.02802490200102329,-0.00796915224827826,0.020893045393680223
1783246442158456000,0.1184560546875,-0.012312369084358215,0.0020192674005404115,-0.010713386622234247
1783246442168467000,0.128467041015625,-0.02084229702055454,0.003381459131836891,-0.01453604561635293
1783246442178478800,0.138478759765625,-0.027274375894665717,-0.005799480058997869,0.014604169815964995
1783246442188490000,0.148489990234375,-0.009319032487273216,0.002765226929634809,0.010251130272191948
1783246442198502100,0.158502197265625,-0.023686580535769462,-0.004376972975209355,-0.029456007949798368
1783246442208513000,0.168512939453125,-0.013660276561975479,-0.009919920989871024,-0.014921798097505233
1783246442218525000,0.17852490234375,-0.016054478222131727,0.0030981486784294244,0.024928716950817033
1783246442228537000,0.188537109375,-0.0190489838629961,0.004338321465253829,0.010659619741537608
1783246442238548000,0.1985478515625,-0.015309212812781333,-0.004763049683347344,-0.012302742739487438
1783246442248559900,0.208559814453125,-0.01889993078112602,-0.0010363207777962088,-0.013482275946834123
1783246442258571000,0.218571044921875,0.003097381493449211,0.015557525018043816,0.0174507868521614
1783246442268583200,0.228583251953125,-0.012613982379436492,0.008952098871022463,-0.005169159965938888
1783246442278594000,0.238593994140625,-0.010371756410598754,0.009155439423397183,-0.023218821460125036
1783246442288606000,0.24860595703125,-0.02054828251004219,0.020844671640731394,-0.001243150195199996
1783246442298616800,0.258616943359375,-0.011415712505578993,0.00578713203407824,0.005037231548805721
1783246442308629000,0.26862890625,-0.005728314518928528,0.008302585453726351,0.012669726588088088
1783246442318641000,0.278640869140625,-0.014706570744514464,0.00665218789819628,-0.02795028869512025
1783246442328652000,0.288652099609375,-0.019050152906775475,0.011686017346940934,-0.0025178828387521206
1783246442338664000,0.298663818359375,-0.01396481246650219,-0.0044093774074688554,0.008519749035476707
1783246442348675000,0.308675048828125,-0.018157003459334374,0.008513524790666997,-0.01021153804732021
1783246442358687000,0.31868701171875,-0.020702596288919448,0.017830694114416838,-0.029718398912763223
1783246442368697900,0.32869775390625,-0.024591420421004293,-0.004801445464976132,-0.0005195897275814787
1783246442378710000,0.3387099609375,-0.02309504438340664,-0.004334631670825183,0.02001845451623667
1783246442388722000,0.348721923828125,-0.03371989877223968,0.018877426688373087,-0.006659782116184942
1783246442398732800,0.35873291015625,-0.020104045873880386,-0.005206701797619462,-0.01587826770527754
1783246442408745000,0.368744873046875,-0.021449615263938904,-0.002845379493758082,0.014899056542734615
1783246442418756000,0.378756103515625,-0.017706921604275703,-0.0016837518358603118,0.014165929095749742
1783246442428768000,0.38876806640625,-0.005437807139754295,-0.0067477206945419305,-0.00828825096769724
1783246442438779100,0.398779052734375,-0.011871055057644844,0.0031014366140589117,-0.019576505735283717
1783246442448791000,0.408791015625,-0.019649872365593908,-0.009529277704469858,0.0011009104466065765
1783246442458803000,0.418802978515625,-0.007527472895383834,0.0003006999796256423,0.012750153146847151
1783246442468813800,0.428813720703125,-0.02578326055407524,-0.0010526508580893277,-0.008717363099963404
1783246442478826000,0.438825927734375,-0.02054945155382156,-0.00007014262676239014,0.00010417276052758097
1783246442488837000,0.448837158203125,-0.021148001968860623,-0.00426196829341352,0.015194504958507604
1783246442498849000,0.45884912109375,-0.018151742762327193,0.002094305398128927,-0.0018282703065080567
1783246442508860200,0.468860107421875,-0.013962474378943442,-0.002985007160156965,-0.020592578309495
1783246442518872000,0.4788720703125,-0.01905073742866516,0.009147621443122625,-0.001697730128862895
1783246442528884000,0.488884033203125,-0.007679448586702347,-0.00039042408969253297,0.006278902172972447
1783246442538894800,0.498894775390625,-0.029675591817498206,0.0019700944965705272,-0.0032316205986775456
1783246442548907000,0.508906982421875,-0.016056816309690476,-0.006139050744287669,-0.022502129124710335
1783246442558918000,0.51891796875,-0.01889876173734665,0.010591171314939855,0.002350435583665967
1783246442568929800,0.5289296875,-0.02518237205147743,0.006660736530832946,0.0102560347761726
1783246442578941200,0.538941162109375,-0.02802314843535423,0.005845620755665004,-0.0058113622930366544
1783246442588953000,0.548953125,-0.024881927800178526,0.001686857108399272,-0.008809461830207145
1783246442598965000,0.558965087890625,-0.009020341801643371,0.001533273981884122,0.005201957123843021
1783246442608976000,0.568975830078125,-0.03236322346627712,-0.001930200877599418,-0.004880264588538557
1783246442618987800,0.57898779296875,-0.018749124133586884,0.00622607144061476,-0.013716459162044338
1783246442628998700,0.58899853515625,-0.026381226447224616,0.008925028201006352,-0.005071832504728808
1783246442639010800,0.5990107421875,-0.018748539611697194,-0.0032147973280400037,-0.0010052132534794508
1783246442649022000,0.60902197265625,-0.010369418323040008,-0.0027461569029837846,0.012802792082959785
1783246442659033900,0.619033935546875,-0.027877017962932585,-0.0016950769474729894,0.0007064951683860271
1783246442669046000,0.6290458984375,-0.017404723787307737,0.005692804814130067,-0.0000493692667922005
1783246442679057000,0.639056884765625,-0.012317045259475707,-0.0011927534485235809,-0.0009982948889257386
1783246442689068800,0.64906884765625,-0.021890344768762587,-0.006526661822386086,-0.005220584192499518
1783246442699080000,0.659079833984375,-0.01201543196439743,0.007111731701344251,-0.01377828148503322
1783246442709091800,0.669091796875,-0.020244331127405167,0.0021383272029459476,0.011741318597598001
1783246442719103000,0.67910302734375,-0.018745617002248763,0.00643649932090193,-0.0016364055627956986
1783246442729115000,0.689114990234375,-0.01380523799061775,0.0011464300887659192,-0.006378512922814115
1783246442739127000,0.699126953125,-0.03251169202625751,0.003426101991161704,-0.0029263723080977795
1783246442749138000,0.709137939453125,-0.017848375901579856,-0.00043064650222659107,0.001667371523217298
1783246442759149800,0.71914990234375,-0.010519055926799773,0.006220481950044631,-0.007143259350769222
1783246442769161000,0.729160888671875,-0.023539281019568443,0.007915851158462465,-0.00767673603980802
1783246442779172900,0.7391728515625,-0.015305705681443214,0.0015462795939296483,-0.01606008597901091
1783246442789183700,0.749183837890625,-0.015604980888962745,-0.0074298577398061744,-0.0012759336533723399
1783246442799195600,0.759195556640625,-0.020091770914196967,0.0017967472236603498,0.005074476552964188
1783246442809207000,0.76920703125,-0.026678748089075086,-0.003964665847271681,-0.010138445411645807
1783246442819219000,0.779218994140625,-0.017106033101677895,-0.00940243645440787,-0.02038364826655015
1783246442829230800,0.78923095703125,-0.026386487144231793,-0.002453055707924068,-0.00660724821134936
1783246442839242000,0.799241943359375,-0.019203297641873358,0.0050236733809113495,0.002624265822675079
1783246442849254000,0.80925390625,-0.025184125617146492,-0.00002005640733987093,-0.0061667516019660975
1783246442859264800,0.8192646484375,-0.015910101315379142,0.01519267376102507,-0.017033456489234232
1783246442869276700,0.829276611328125,-0.015762801799178123,-0.010647139285877346,-0.004770411005895585
1783246442879288000,0.8392880859375,0.003689502167701721,-0.002997683978639543,0.0037723444458330046
1783246442889300000,0.849300048828125,-0.024140754044055936,0.00007529372591525316,-0.010067238772381096
1783246442899311900,0.859311767578125,-0.035066637206077576,0.005228657901100814,0.002565493973297998
1783246442909323000,0.869322998046875,-0.02354454171657562,0.0052374622620642184,0.006638081741030328
1783246442919335000,0.8793349609375,-0.033869536375999446,-0.004332037854939699,-0.0032038238428765907
1783246442929345800,0.889345703125,-0.025942835029959678,0.004894895902089774,0.002487350703170523
1783246442939357700,0.899357666015625,-0.008732757031917572,-0.002919394578039646,-0.004029794372199103
1783246442949368800,0.909368896484375,-0.020105214917659757,0.000672894292883575,0.00016931041860952973
1783246442959381000,0.919381103515625,-0.019804770666360855,-0.001167801670357585,-0.00006407364557962864
1783246442969393000,0.929392822265625,-0.01516775851547718,0.0008197188850492239,-0.003998426552978344
1783246442979404000,0.939404052734375,-0.031027590948343276,-0.0043155981767922635,0.0018584645153721794
1783246442989416000,0.949416015625,-0.029980712243914603,0.004836735974065959,0.0032166604915633795
1783246442999426800,0.9594267578125,-0.023099136036634445,-0.0043925358705222605,0.0009770785709610208
1783246443009439000,0.96943896484375,-0.011875731232762336,0.012052476039156317,-0.011720348874805494
1783246443019449900,0.979449951171875,-0.019804770666360855,0.0076731284437701105,0.014518487126776017
1783246443029461800,0.989461669921875,-0.03821078045070171,0.008285378590598701,-0.0029706498412415384
1783246443039473700,0.9994736328125,-0.018007950377464294,0.0036001799164339897,-0.008062904079491272
1783246443049485000,1.009485107421875,-0.026835399955511093,0.008062748815864324,0.0030024286524159833
1783246443059497000,1.0194970703125,-0.02294599130153656,-0.007782324439287185,-0.004966321737063117
1783246443069507800,1.0295078125,-0.026835399955511093,-0.009010149201191961,-0.0026310608896426856
1783246443079520000,1.03952001953125,-0.012168576699495314,0.010685754263214766,-0.007447251832601614
1783246443089531000,1.04953076171875,-0.015757541102170942,0.005679178147576749,-0.013599879011092707
1783246443099542800,1.059542724609375,-0.005880874732136726,0.008812726932950318,-0.02126320301347878
1783246443109554700,1.0695546875,-0.02563596103787422,-0.010879304073937236,-0.0032264694995246825
1783246443119566000,1.079566162109375,-0.019649872365593908,-0.01432842161450535,-0.003934809565125033
1783246443129578000,1.089577880859375,-0.025183541095256803,0.017911285069957376,0.0008375833353027701
1783246443139588900,1.0995888671875,-0.03266366771757603,0.0027682591369375584,0.0020745869175065306
1783246443149601000,1.10960107421875,-0.023536942932009697,-0.005878171318396926,-0.013145171213266438
1783246443159612000,1.11961181640625,-0.01949731215238571,0.012697605542279779,-0.003659371890919283
1783246443169623800,1.129623779296875,-0.01336392396390438,0.00002396539747714996,-0.004296893476322293
1783246443179635700,1.1396357421875,-0.01934825907051563,-0.014366379004716873,0.006150129260728135
1783246443189646800,1.149646728515625,-0.011418635115027427,0.016936266025342046,-0.005697905680933035
1783246443199658800,1.15965869140625,-0.016506313642859458,0.006763904644362628,0.004586738701793365
1783246443209670000,1.169669921875,-0.011866963404417038,0.0013773893004283308,-0.007756742473458871
1783246443219682000,1.17968212890625,-0.006930091524124145,0.007689750785008072,0.0034677948415745047
1783246443229693000,1.18969287109375,-0.011121113473176956,-0.006198854640126228,0.0042014520115219054
1783246443239704800,1.199704833984375,-0.008128361397981643,0.00037997576091438527,-0.012158790524420328
1783246443249715700,1.2097158203125,-0.013515899655222891,0.0017296002715826034,-0.006383727954048663
1783246443259728000,1.219727783203125,-0.019202128598093986,0.012503873068466781,-0.001596918369201012
1783246443269739800,1.22973974609375,-0.03371346903145313,0.003285962868109345,0.0039186621479224415
1783246443279751000,1.2397509765625,-0.005880290210247039,-0.0037615444906055925,-0.0032709022962953893
1783246443289763000,1.24976318359375,-0.0031856442987918854,0.00010769815817475319,0.0009041731649544089
1783246443299774000,1.25977392578125,-0.013961889857053756,-0.004929017367400229,0.00496661399800796
1783246443309785900,1.269785888671875,-0.014411971712112425,-0.0011500833505764603,-0.016266203010361642
1783246443319796700,1.279796630859375,-0.022643793484568596,0.004581007647328078,0.009332978814234956
1783246443329809000,1.289808837890625,-0.01680558885037899,-0.007150894667953252,-0.0026631410949165
1783246443339820800,1.29982080078125,-0.02069733559191227,-0.004425634422525763,-0.006993968806881457
1783246443349832000,1.30983203125,-0.021295301485061643,0.00960625193081796,-0.0021584886415628715
1783246443359844000,1.319843994140625,-0.02458382163643837,-0.0006471022645011544,-0.012312483248789793
1783246443369855000,1.32985498046875,-0.018748539611697194,-0.001384147834777832,-0.005877102739317342
1783246443379867000,1.339866943359375,-0.015908347749710082,0.004825374329835176,-0.003691438396461308
1783246443389877800,1.349877685546875,-0.022044658547639845,0.006046623220480978,0.0036051574856508523
1783246443399890000,1.359889892578125,-0.011717325800657272,-0.006881393544189631,0.002396174421533942
1783246443409901800,1.36990185546875,-0.02234042662382126,0.0037172304248437285,0.001514642346650362
1783246443419912700,1.37991259765625,-0.034310265880823136,-0.0003533069496974349,-0.005911388601409271
1783246443429924900,1.3899248046875,-0.015305705681443214,-0.005452748980559408,-0.009923003429523668
1783246443439936000,1.39993603515625,-0.0163519998639822,0.0001921250386163592,-0.007162196946679614
1783246443449948000,1.409947998046875,-0.020985504883527753,0.0036605318015441295,0.0036253006579587232
1783246443459958800,1.419958740234375,-0.0229267020791769,0.0004175678249448538,-0.0005276406032964587
1783246443469971000,1.429970947265625,-0.020682138022780416,-0.015292992330342531,-0.005606035279552452
1783246443479982800,1.43998291015625,-0.022479542833566665,-0.00882186008747667,-0.012903686041012406
1783246443489993700,1.44999365234375,-0.013802315381169319,-0.004583966789394617,-0.008681218640925362
1783246443500006000,1.460005859375,-0.016194763475656508,0.002711743176728487,-0.0077657112312037495
1783246443510017000,1.47001708984375,-0.026817864298820493,-0.009437434702552854,0.005942304329480975
1783246443520029000,1.48002880859375,-0.01739069526195526,-0.009445727606862783,-0.00332182419935707
1783246443530039800,1.490039794921875,-0.012450900772213934,0.005324117632210254,-0.005301499375025742
1783246443540052000,1.500052001953125,-0.013052958318591117,0.011243424678593874,-0.006926451962045393
1783246443550063900,1.51006396484375,-0.01664601437449455,-0.007707213376462459,0.004286257917876355
1783246443560074800,1.52007470703125,-0.028320085555315015,0.001181574467383325,-0.005865398601791821
1783246443570087000,1.5300869140625,-0.0278764334410429,0.0032567002410069106,-0.002965535274706781
1783246443580097800,1.540097900390625,-0.015755787536501885,-0.003320230463892221,-0.010320871040155178
1783246443590110000,1.55010986328125,-0.019048399341106415,-0.003153824388422072,0.004073697446007282
1783246443600120800,1.560120849609375,-0.017403554743528366,-0.0002782689521089196,-0.005343530152156018
1783246443610133000,1.570133056640625,-0.029525369691848755,-0.011618870394863187,0.0004980583157856017
1783246443620143600,1.5801435546875,-0.01949906571805477,0.00032411738783121106,-0.007432118195551447
1783246443630155800,1.59015576171875,-0.019797756403684613,-0.0034200010439381003,0.0020148606534814463
1783246443640167700,1.600167724609375,-0.026830723780393598,-0.00477024660911411,-0.008144755410356447
1783246443650178600,1.610178466796875,-0.023241174855828283,0.0053092853892594575,-0.0035376497739693148
1783246443660190700,1.620190673828125,-0.018003274202346802,0.009199753489159046,-0.008139946804498322
1783246443670201900,1.630201904296875,-0.025932898157835005,0.0037819662241265176,-0.005136760100256652
1783246443680213800,1.6402138671875,-0.023240005812048912,-0.0027919688060879704,0.0035804066368844358
1783246443690224600,1.650224609375,-0.017107202145457266,-0.0010835939856246113,0.0035233472539810463
1783246443700236800,1.66023681640625,-0.020399813950061796,-0.0016758973229676485,0.0017213712993543594
1783246443710248700,1.670248779296875,-0.021596330258250234,-0.011698657632805406,-0.008361756878613959
1783246443720259600,1.680259521484375,-0.009921674555540085,0.008720445539616048,0.0037921245752484535
1783246443730271700,1.690271728515625,-0.009622399348020554,0.0021526114566251635,-0.005852064196183346
1783246443740283000,1.700282958984375,-0.019051906472444532,-0.004218750206194818,-0.005036925588129088
1783246443750294800,1.710294677734375,-0.022643793484568596,-0.0021112565329298376,-0.008363113152061123
1783246443760305700,1.7203056640625,-0.03221884655952453,-0.0033475933948531743,-0.0015425920827896334
1783246443770317800,1.73031787109375,-0.012316460737586021,-0.0009688084995374083,-0.0018354695155634543
1783246443780329700,1.740329833984375,-0.015011106649041175,0.003855542916990816,-0.004032214658148586
1783246443790340600,1.750340576171875,-0.01561257967352867,0.0013922946086153388,-0.00593456169773126
1783246443800352800,1.760352783203125,-0.02683715352118015,0.0032327348435297605,0.005986164020805154
1783246443810363600,1.77036376953125,-0.0153150580316782,-0.0037922318898141382,0.009330992353125475
1783246443820375800,1.780375732421875,-0.03237316033840179,-0.004548712812922895,-0.008745228354423306
1783246443830386700,1.79038671875,-0.012772972333431243,-0.0007461056595668196,-0.008254168318293523
1783246443840398800,1.80039892578125,-0.01516600494980812,-0.0009132423873990773,-0.008484572690818459
1783246443850409700,1.81040966796875,-0.025491584131121636,-0.0007538505746051669,-0.006237668263574596
1783246443860421600,1.820421630859375,-0.00649111558496952,0.012653108813427388,-0.004676439978973939
1783246443870433800,1.830433837890625,-0.011427402943372725,0.0021445012154057623,-0.00043922481761546805
1783246443880444700,1.840444580078125,-0.014422493106126784,-0.009619805532135069,0.010181145192345139
1783246443890456600,1.85045654296875,-0.02459843468368053,0.0019222732994705438,0.0028843871967401354
1783246443900467700,1.8604677734375,-0.013674305087327957,0.003253631501086056,-0.004111440207087435
1783246443910480000,1.87047998046875,-0.019662731847167013,-0.009233217367343604,0.00272941583073698
1783246443920490800,1.88049072265625,-0.01203062953352928,0.0013812617579475044,-0.004837087600515224
1783246443930502700,1.890502685546875,-0.004697217905521392,0.016628551783040166,0.01042491365323076
1783246443940514800,1.900514892578125,-0.03103343616724014,0.0004488032134249806,0.00404767480547307
1783246443950525700,1.910525634765625,-0.012030045011639595,0.0039143238995224235,0.005340459128946531
1783246443960537600,1.92053759765625,-0.004847440031170845,0.0006342062503099441,-0.00042766681056236847
1783246443970549000,1.930549072265625,-0.015471125376224517,-0.0016234364833682775,0.0015642216759966686
1783246443980561000,1.940560791015625,-0.021007716715335845,-0.002212415352463722,0.007786815668025519
1783246443990571800,1.95057177734375,-0.028790625676512718,0.009359291432425379,0.00471248169002356
1783246444000583700,1.960583740234375,-0.038812837997078894,0.013614793452434241,-0.011101442941615823
1783246444010595800,1.970595947265625,-0.023996377137303352,0.004283924396894872,-0.0009453979411977343
1783246444020606700,1.980606689453125,-0.013075170150399208,0.0028293416744098066,0.002381310212542303
1783246444030618600,1.99061865234375,-0.02280219891667366,0.0013442542158067226,0.004903924025339074
1783246444040629800,2.000629638671875,-0.020109306570887563,-0.008676496800035238,-0.0011480146910762413
1783246444050641700,2.0106416015625,-0.02324994268417358,-0.0010854936817660927,-0.002465632061706856
1783246444060652800,2.02065283203125,-0.01277355685532093,-0.0024687282010912893,0.0021419370822724883
1783246444070664700,2.030664794921875,-0.013819851037859916,-0.0007146145427599548,-0.0000877696149982512
1783246444080676900,2.0406767578125,-0.034467502269148825,0.002825578814744949,0.0069289681461174035
1783246444090687700,2.050687744140625,-0.020251345390081405,0.004453983734175562,0.0022009532435331492
1783246444100699600,2.06069970703125,-0.020552958685159682,0.0036237434551119802,0.011686291341576725
1783246444110710800,2.070710693359375,-0.022198387804627417,-0.006713087772578,0.0032669659066945312
1783246444120722700,2.08072265625,-0.02220131041407585,0.008919767503999173,-0.0074585655277711336
1783246444130733800,2.09073388671875,-0.015319149684906004,-0.0010751549508422613,-0.0035756505466648376
1783246444140745700,2.100745849609375,-0.02504559392929077,0.001473725814372301,-0.009214140490826684
1783246444150756900,2.1107568359375,-0.025494506740570067,-0.000011690437793731688,0.010599276989581994
1783246444160768800,2.120768798828125,-0.011278349861502647,-0.004073058125190436,0.000133937711128965
1783246444170780700,2.13078076171875,-0.022951836520433425,0.006442417605035006,-0.001113749378581997
1783246444180791800,2.140791748046875,-0.02415244448184967,-0.0019943156223744154,0.008129662872501648
1783246444190803700,2.1508037109375,-0.023856676405668256,-0.008039002614095807,-0.003522299224499147
1783246444200814800,2.16081494140625,-0.010087678772211074,0.009262662657536566,-0.006310767749114893
1783246444210826800,2.17082666015625,-0.019667408022284505,0.00948054319191724,0.011106463893316685
1783246444220838000,2.180837890625,-0.01158756194114685,0.003212970697134733,-0.006574912277748808
1783246444230849800,2.190849853515625,-0.01787175677716732,0.0028970731483772393,-0.000055602644756436345
1783246444240861700,2.20086181640625,-0.01667524046897888,0.0006515227112919091,0.004210185590537731
1783246444250872800,2.210872802734375,-0.015329671078920363,0.007572188819944858,-0.006125255114375614
1783246444260884700,2.220884765625,-0.018773089531064033,-0.004059687186963856,0.00043233841910259794
1783246444270895600,2.2308955078125,-0.022214169895648957,0.0038648952672258015,0.00795375603303546
1783246444280907500,2.240907470703125,-0.02012391961812973,0.012800043003447352,-0.010798594387387856
1783246444290919000,2.2509189453125,-0.030752281138300894,-0.0010262012425810098,-0.003472644546627998
1783246444300930800,2.260930908203125,-0.008307225096225739,-0.0016007131949067116,0.003959752210136502
1783246444310942700,2.270942626953125,-0.01638824022114277,0.01083173860516399,-0.008101037282927426
1783246444320953900,2.280953857421875,-0.026114099943637847,0.011711334451287985,-0.002173807224992197
1783246444330965800,2.2909658203125,-0.010405074158310889,0.008202997536771,-0.011380522461188956
1783246444340976600,2.3009765625,-0.011005378139019011,-0.0025292992819100617,-0.0010755613762186839
1783246444350988800,2.31098876953125,-0.014299158987402916,0.0011149755045771598,0.0036147883970988914
1783246444361000000,2.321,-0.024922844332456586,-0.0042975875960662956,-0.0010569274576962926
1783246444371011800,2.33101171875,-0.018040683603286742,0.0005276040706783532,0.013909186988859436
1783246444381023700,2.341023681640625,-0.02088496711850166,-0.0024430823031812905,-0.0008967182275722734
1783246444391035000,2.351034912109375,-0.024627076256275176,0.007621032930351794,-0.01078649524092907
1783246444401046800,2.361046875,-0.01400572899878025,0.004395312349498272,0.003247206326876767
1783246444411057700,2.3710576171875,-0.021192425632476804,-0.0013346461372449993,-0.0070898235469241625
1783246444421069800,2.38106982421875,-0.0229921685308218,-0.002740421281941235,-0.0005527385119348764
1783246444431080700,2.391080810546875,-0.012366729620099067,0.00022409107945859432,0.006973668087658006
1783246444441092600,2.401092529296875,-0.02343874325454235,-0.006823964268527925,0.0000918955175555311
1783246444451103700,2.411103759765625,-0.02538110949397087,0.009264635418914258,0.006392664745752699
1783246444461116000,2.421115966796875,-0.007122399225831032,0.011129150649160147,0.013299176748178433
1783246444471127800,2.4311279296875,-0.02343406707942486,0.0014404811318963766,0.002241675696277525
1783246444481138700,2.441138671875,-0.019994155758619306,-0.002119659035094082,-0.001717569623782765
1783246444491150800,2.45115087890625,-0.00936813232600689,0.005172324603982269,0.00571674509543227
1783246444501161700,2.46116162109375,-0.0027852468043565747,0.01267364014480263,-0.005983156929677352
1783246444511173600,2.471173583984375,-0.021040449941158293,0.0023235841093584893,-0.002207702644728124
1783246444521184800,2.481184814453125,-0.010115151301026344,0.004670877887867391,-0.00796935317767784
1783246444531197000,2.491197021484375,-0.017593524357676506,0.020586312965489923,-0.001276826419227291
1783246444541208800,2.501208740234375,-0.013550386446714401,0.017364939766190943,0.006154711821011733
1783246444551219700,2.5112197265625,-0.009210895937681197,-0.0035813656181097027,0.004352587452623993
1783246444561232000,2.52123193359375,-0.010402151548862457,0.011529657741449772,-0.0046683137547341175
1783246444571242800,2.53124267578125,-0.032095512440800666,0.00513593811634928,-0.007714003876852803
1783246444581254700,2.541254638671875,-0.018473229801654816,-0.010997523626126349,-0.007327826704015023
1783246444591265800,2.551265869140625,-0.0070996028721332545,0.0007888488227501511,-0.005231525711622089
1783246444601278000,2.56127783203125,-0.022658406531810758,0.003401150212995708,0.00015196199158672242
1783246444611289900,2.571289794921875,-0.025799627166986465,0.00008099281433969736,-0.003740969776746351
1783246444621301200,2.58130126953125,-0.03477846791446209,0.002497552436776459,-0.004424444829148706
1783246444631313400,2.5913134765625,-0.03373100468814373,-0.0018455913340672848,0.006801416793290991
1783246444641324300,2.60132421875,-0.019219079732894898,0.007952602972276509,0.004110832852311432
1783246444651336200,2.611336181640625,-0.00919511384665966,-0.013260975046083331,-0.004606539380806498
1783246444661347000,2.62134716796875,-0.007400631645321846,0.003531644724868238,-0.0016814411477651446
1783246444671359200,2.631359130859375,-0.014286884027719497,0.012131386494264006,-0.01338786196191795
1783246444681370400,2.641370361328125,-0.009799509480595587,0.015307203518785535,-0.0070854670322150915
1783246444691382300,2.65138232421875,-0.02251987484395504,0.01339862995110452,-0.005400799597613513
1783246444701394400,2.66139453125,-0.030899580654501914,0.003978438644297421,-0.005263934710458852
1783246444711405300,2.6714052734375,-0.012644377517700195,-0.007833616235107184,0.005345315683865919
1783246444721417200,2.681417236328125,-0.025514965006709096,-0.0004575710417702794,-0.0014292359353858045
1783246444731428000,2.691427978515625,-0.016236849051713943,-0.00496419827863574,0.010083851980464532
1783246444741440300,2.701440185546875,-0.0165349552154541,0.0023368089171126485,-0.0035446001045638695
1783246444751451100,2.711451171875,-0.03494154952168464,0.004008103130199015,-0.004795081939559896
1783246444761463000,2.721463134765625,-0.01997662010192871,0.005327807426638901,-0.0068838572126231155
1783246444771475200,2.73147509765625,-0.008905190989375113,-0.0018174612181261181,-0.014349850278312806
1783246444781486300,2.741486328125,-0.01668868447244167,0.0004920213006436824,0.0036246796034509316
1783246444791498200,2.751498291015625,-0.018782441881299017,0.0034574835101142524,0.004982738582324236
1783246444801509000,2.761509033203125,-0.021775778478384016,0.002727634865604341,0.0027355921264854257
1783246444811521300,2.771521240234375,-0.02057867764830589,0.0031707389906048774,0.0020397553494316523
1783246444821532200,2.7815322265625,-0.011902034717798233,-0.004401669025048613,-0.003483245855744462
1783246444831544000,2.7915439453125,-0.018638064974546432,0.0021007716715335844,0.007523965764045715
1783246444841556200,2.80155615234375,-0.025222119539976117,0.005098419117555022,0.012462317215371875
1783246444851567400,2.8115673828125,-0.0190881468296051,-0.003696078038960695,-0.004268665178969968
1783246444861579300,2.821579345703125,-0.024478023174405096,0.006259206525236368,-0.02355825286480831
1783246444871590100,2.831590087890625,-0.022982231658697127,-0.0004712707735598087,-0.005300058619899209
1783246444881602300,2.841602294921875,-0.022983985224366187,0.00347637087367475,0.0022269028188311494
1783246444891613200,2.85161328125,-0.031364860078692436,0.012322452086955309,0.002013070555194281
1783246444901625000,2.861625,-0.02822539300918579,0.003431874144822359,-0.004652896989893633
1783246444911637200,2.87163720703125,-0.037653731089830396,0.01436853442918509,-0.010263167769857681
1783246444921648400,2.8816484375,-0.026429157242178914,-0.0069297627305611965,-0.003203600080590695
1783246444931660300,2.891660400390625,-0.016853519645333288,0.00042728550136089324,0.004585204331832938
1783246444941671200,2.901671142578125,-0.02119476372003555,0.00840330588184297,-0.005121311369375325
1783246444951683300,2.911683349609375,-0.025084172374010085,-0.0031384806888177987,-0.009431370287947357
1783246444961694200,2.921694091796875,-0.022541502153873443,0.005556209355033934,-0.00289444279987365
1783246444971706000,2.9317060546875,-0.01266249769628048,0.005936367779038846,-0.002528497847600374
1783246444981717200,2.94171728515625,-0.02298866139948368,0.00716444826927036,-0.012254337020497769
1783246444991729200,2.951729248046875,-0.012659575086832046,0.0018327683851122854,-0.006102538675779942
1783246445001741000,2.961740966796875,-0.022387188374996186,-0.01594411318283528,0.001953362557478249
1783246445011752400,2.97175244140625,-0.020144962406158446,0.003412256128899753,0.0002782073033158667
1783246445021764400,2.981764404296875,-0.02478197455704212,0.008913155100122094,-0.009258753667399287
1783246445031775200,2.991775146484375,-0.008922142124176025,0.015240494958125054,-0.014030262935126665
1783246445041787100,3.001787109375,-0.013111410507559776,-0.0012413418306037782,-0.0006954029522137716
1783246445051798300,3.01179833984375,-0.027632103291153905,-0.008861132651939987,0.004130014760105404
1783246445061810200,3.02181005859375,-0.023442834907770157,-0.0055599722146987916,-0.0033473856155876998
1783246445071822000,3.031822021484375,-0.030327918246388433,-0.0014712781289592384,0.0013632899931282736
1783246445081833500,3.04183349609375,-0.031081951484084127,0.008544833244383335,0.009408304506191052
1783246445091845400,3.051845458984375,-0.03676993399262428,0.0011035042624920606,-0.007712633903673849
1783246445101856300,3.061856201171875,-0.0200075997620821,0.004334558605588973,-0.00378776349396212
1783246445111868200,3.0718681640625,-0.022999182793498038,0.009837649533897638,0.015838766811951063
1783246445121879300,3.08187939453125,-0.014468085813522338,0.008601385737210511,0.0010867997228633612
1783246445131891200,3.09189111328125,-0.016559505134820938,0.004768785304389894,-0.011631234402803238
1783246445141903000,3.101903076171875,-0.017155717462301254,0.002776259780302644,0.0017574404098675586
1783246445151914200,3.111914306640625,-0.015803718331456183,-0.0018465046495199202,-0.004073642647080124
1783246445161926100,3.121926025390625,-0.023285598519444464,-0.0028969635505229235,0.003807824467879254
1783246445171937300,3.131937255859375,-0.021043372550606728,0.010625110117159784,-0.014928456167154944
1783246445181949200,3.14194921875,-0.020297522619366643,-0.010861293493211268,0.0065104025240405455
1783246445191960300,3.151960205078125,-0.028076924449205398,0.007496639365702867,-0.003375148122059181
1783246445201972200,3.16197216796875,-0.024487375524640084,0.0075558222070336335,0.005234067011869047
1783246445211983000,3.171983154296875,-0.02433715339899063,-0.0057858533924445505,0.006239042803330813
1783246445221995300,3.181995361328125,-0.02089548851251602,0.00648713352959603,0.0005230397767038085
1783246445232007200,3.192007080078125,-0.012515782701969146,-0.0039821649713441725,-0.016376143357972613
1783246445242018300,3.202018310546875,-0.02643324889540672,-0.005450228229910135,0.004749669611966237
1783246445252030200,3.2120302734375,-0.025087679505348202,-0.009763963243179023,0.011828935232257936
1783246445262041300,3.222041259765625,-0.02658405554294586,0.0055026525368914005,-0.009236687966063618
1783246445272053200,3.23205322265625,-0.013113164073228835,0.0057219213107600805,-0.020403289115359075
1783246445282064100,3.242064208984375,-0.030018121644854543,-0.004113828526996076,-0.00593013440107461
1783246445292076300,3.252076171875,-0.011315174740552901,0.006268412744998932,0.013546491156308911
1783246445302088200,3.262088134765625,-0.025832360392808913,-0.003408274073526263,-0.0011465762192383409
1783246445312099300,3.272099365234375,-0.017153963896632193,-0.01056811923291534,0.007560354534967336
1783246445322111500,3.282111572265625,-0.009078209468722342,0.008251549386233091,0.002769546911725774
1783246445332122400,3.292122314453125,-0.018808160844445226,0.0008500774906948208,-0.006626085342559963
1783246445342134300,3.30213427734375,-0.013570260190963744,-0.0012561010083183646,0.006830622338177636
1783246445352145200,3.312145263671875,-0.021803251007199285,0.003450542312674224,-0.004862002846063114
1783246445362157300,3.3221572265625,-0.01476911458671093,-0.006145663148164749,-0.01996287698765518
1783246445372169200,3.332169189453125,-0.008482581663131714,0.004277786917053163,0.00010315213050926104
1783246445382180000,3.34218017578125,-0.02045066735446453,0.0007637874467298388,0.012666317638161126
1783246445392192300,3.352192138671875,-0.015211597657203674,0.013595504230074584,-0.0028900657355668954
1783246445402203400,3.362203369140625,-0.01581248615980148,0.009308766821585594,-0.004061493268271443
1783246445412215300,3.37221533203125,-0.013269231417775154,-0.0011395619565621018,-0.00987784911354538
1783246445422226200,3.38222607421875,-0.018657938718795775,-0.0004979395847767591,0.008606694383278954
1783246445432238300,3.39223828125,-0.02239829429090023,0.0018811010388657449,-0.0005244965148507617
1783246445442249200,3.402249267578125,-0.009379238241910934,0.017736476492322982,0.000996739969367627
1783246445452261000,3.41226123046875,-0.015514379996061324,0.004574029917269945,0.01912339395621093
1783246445462273300,3.422273193359375,-0.01371814422905445,-0.01638758263401687,-0.012585957294772378
1783246445472284400,3.432284423828125,-0.022845453536510466,0.005898775715008377,-0.00024938306763069704
1783246445482296300,3.44229638671875,-0.025388708278536794,0.0009417378295212983,0.005250355992966797
1783246445492307200,3.45230712890625,-0.010723638588190079,-0.0017809286000207065,0.009997756016033236
1783246445502319400,3.4623193359375,-0.02867547486424446,0.0008060191532596945,-0.004463263019174337
1783246445512330200,3.472330322265625,-0.030469957065582275,0.011096892347373068,-0.0010148304651957005
1783246445522342100,3.482342041015625,-0.00637830286026001,-0.003561016949824989,-0.008371682334295473
1783246445532354300,3.492354248046875,-0.01789747574031353,-0.0003457081651315093,0.002288396348257083
1783246445542365400,3.502365478515625,-0.03151625124812126,-0.005382423690706491,0.0012053206691518426
1783246445552377300,3.51237744140625,-0.026277181550860403,0.01073262561224401,-0.011843680710240731
1783246445562388200,3.52238818359375,-0.01999357123672962,0.0022312661834061145,-0.005859382136247586
1783246445572400400,3.532400390625,-0.034511925932765,0.00036247663684189316,0.001780716254177969
1783246445582411300,3.542411376953125,-0.024035540103912352,0.007814765404164791,-0.00010496962826000526
1783246445592423200,3.552423095703125,-0.028528759869933126,0.001340747084468603,-0.002585127972241025
1783246445602435300,3.562435302734375,-0.016407529443502426,0.011209266680665313,0.0010534682754194363
1783246445612446200,3.5724462890625,-0.0072808046579360955,0.011228519370406866,-0.003188046318432316
1783246445622457900,3.582457763671875,-0.02539104636609554,-0.00392915614247322,0.001906331378244795
1783246445632469000,3.592468994140625,-0.01970832455456257,0.0015372195046395062,-0.002616938749456312
1783246445642481200,3.602481201171875,-0.01791091974377632,-0.007341375738754868,0.002754089047689922
1783246445652492000,3.612491943359375,-0.022698738542199132,0.006867036225274205,0.011437949453562031
1783246445662504000,3.62250390625,-0.011027005448937416,0.007168612987734377,0.0047075338035589085
1783246445672514800,3.632514892578125,-0.007135843229293823,0.0032665640478953717,0.011452576200535986
1783246445682527000,3.64252685546875,-0.020903087297081947,0.005670921775884926,0.004535901280411053
1783246445692539000,3.652538818359375,-0.030479893937706944,0.007912015233561396,0.00309119834783487
1783246445702550000,3.662550048828125,-0.02389700841605663,-0.001479132641851902,0.0001487311381730251
1783246445712562200,3.672562255859375,-0.01476736102104187,0.0002861234650015831,-0.009830018783290869
1783246445722573000,3.682572998046875,-0.02568739896416664,0.007669073323160409,-0.004348351952212397
1783246445732585000,3.6925849609375,-0.0301724354237318,0.01684657844789326,-0.009746222090511581
1783246445742595800,3.702595947265625,-0.024334815311431883,-0.000557853078469634,0.006707050757436082
1783246445752608000,3.71260791015625,-0.011767594683170318,-0.010676694173924623,-0.0031965607017395083
1783246445762620000,3.722619873046875,-0.023740356549620627,0.0007481514861807227,0.0022222449100227095
1783246445772631000,3.732631103515625,-0.022395371681451795,-0.007300970663130283,-0.0009664658454013987
1783246445782643200,3.742643310546875,-0.013415946412086486,-0.0014862199697643517,-0.0037985862820758484
1783246445792654000,3.752654052734375,-0.01865735419690609,0.014624737679958342,-0.0019661740899900903
1783246445802666000,3.762666015625,-0.008783025914430618,-0.004635441248305142,-0.006256188017665408
1783246445812676900,3.7726767578125,-0.02554185301363468,0.005977138180844485,-0.005478401728335302
1783246445822689000,3.78268896484375,-0.016717326045036316,-0.0011019698925316334,0.004399700830248184
1783246445832701000,3.792700927734375,-0.02659457693696022,-0.00032068332172930237,-0.001092384646856226
1783246445842711800,3.8027119140625,-0.020460019704699513,0.010017901471629738,0.006603254739532712
1783246445852724000,3.812723876953125,-0.0267436300188303,0.011341807019151747,-0.0011645708169438875
1783246445862735000,3.822735107421875,-0.017315876460075378,0.008175853801518678,0.001206549078435637
1783246445872747000,3.8327470703125,-0.027342764955759047,0.011345241085253656,-0.0016926087124622426
1783246445882758000,3.8427578125,-0.0043003275424242015,-0.007018975383974611,0.00219593685840955
1783246445892770000,3.85277001953125,-0.016568857485055922,-0.009014204321801661,-0.0011555929260444826
1783246445902782000,3.862781982421875,-0.029739304703474044,0.010791625790484248,0.002691558905225247
1783246445912792800,3.872792724609375,-0.025699089401960373,-0.0029634894480928776,-0.00577709698054241
1783246445922805000,3.882804931640625,-0.026294132685661314,-0.010684512154199183,0.005749195193464402
1783246445932816100,3.892816162109375,-0.015067805272340773,0.010023819755762815,0.002884222799958661
1783246445942828000,3.902828125,-0.022848960667848587,0.00986263784468174,0.00748816151501378
1783246445952839000,3.9128388671875,-0.019257073655724523,-0.0058658963587135075,-0.002432074568688404
1783246445962851000,3.92285107421875,-0.022848960667848587,0.007017806340195238,-0.012732558124652132
1783246445972862000,3.932862060546875,-0.02613572725355625,0.007796608692966401,0.0039339647483313455
1783246445982873900,3.942873779296875,-0.01401098969578743,-0.009669489892758428,-0.005535979417758062
1783246445992886000,3.952885986328125,-0.022237550771236417,0.0053543666400015354,-0.00703467299331678
1783246446002897200,3.962897216796875,-0.01864858636856079,0.008854081856645643,0.010915247603575698
1783246446012909000,3.972908935546875,-0.022688217148184774,0.004801043606176972,-0.01151450127151329
1783246446022920000,3.982919921875,-0.02104278802871704,-0.0017581322463229299,-0.009091269879695028
1783246446032932000,3.99293212890625,-0.022239888858795166,0.002582161980308592,0.001429261051560752
1783246446042943000,4.00294287109375,-0.01969721863865852,0.009951119845733046,-0.0012252606287715025
1783246446052955000,4.012954833984375,-0.01610591614842415,0.008446962360478937,-0.0037769315726938657
1783246446062967000,4.022967041015625,-0.02957213144302368,0.005273812217079103,0.004333188632410019
1783246446072978000,4.03297802734375,-0.02283785475194454,-0.0025173896484076974,-0.006168509734212421
1783246446082989800,4.04298974609375,-0.021493454405665396,0.0011226108217611908,-0.0009533848848310299
1783246446093001000,4.0530009765625,-0.0152104286134243,0.0038652240607887503,0.0005807613133103586
1783246446103013000,4.06301318359375,-0.021195932763814925,-0.016485234322212636,0.006390664584911428
1783246446113024000,4.07302392578125,-0.01970072576999664,-0.0013480536080896853,-0.007554799293726682
1783246446123036000,4.083035888671875,-0.017309446719288826,0.013696516919136047,0.006959244553372264
1783246446133048000,4.093048095703125,-0.027038813573122024,-0.006132109546847641,0.006953435867093503
1783246446143059000,4.103058837890625,-0.01821077947318554,-0.00747026281543076,0.006101463246834464
1783246446153070800,4.11307080078125,-0.019708909076452254,0.018168547766655684,0.00002396539747714996
1783246446163082000,4.12308203125,-0.02599544200003147,0.003694470603764057,0.0046416540766716936
1783246446173094100,4.13309423828125,-0.018214871126413346,0.0005703837664797902,0.006123133939236868
1783246446183105000,4.14310498046875,-0.021507482931017875,0.0016236191464588045,-0.00842190783432452
1783246446193117000,4.153116943359375,-0.014922259321808814,-0.0009408610466867685,-0.009309504323813599
1783246446203128000,4.163128173828125,-0.019561609560251235,-0.0025663798892870543,-0.011398028435127343
1783246446213140000,4.173139892578125,-0.03377835096120834,0.006741765877790748,0.0029952910921536386
1783246446223151900,4.18315185546875,-0.02450140404999256,0.011085713366232812,-0.0005040656481753103
1783246446233163000,4.1931630859375,-0.020309213057160377,-0.0033405060669407247,-0.0045933511056704445
1783246446243175000,4.2031748046875,-0.021056232032179833,0.003661262453906238,-0.0031628593615372663
1783246446253186000,4.21318603515625,-0.030780922710895536,0.008089673355408012,-0.006974451255658641
1783246446263198000,4.223197998046875,-0.004894786304235458,0.004521788273379206,-0.00011686784531921147
1783246446273209000,4.233208984375,-0.01596679993867874,-0.007319200439564883,-0.006579499404609669
1783246446283221000,4.243220947265625,-0.025243746849894524,0.017050540054775774,-0.01029080926203169
1783246446293233000,4.25323291015625,-0.019403788650035857,-0.0005532499685883521,0.0055167769603664055
1783246446303244000,4.263244140625,-0.03571078032851219,0.00011697744317352772,0.011378766612231266
1783246446313256000,4.273255859375,-0.021796821266412733,0.014386691140383481,-0.0033681041766307315
1783246446323267000,4.28326708984375,-0.00907704042494297,0.0070332961702719325,0.013298955269181168
1783246446333279000,4.293279052734375,-0.00907353329360485,-0.008480353173427282,-0.002613913392019458
1783246446343290000,4.3032900390625,-0.023889409631490707,0.008168729940988124,-0.000546502850682009
1783246446353302000,4.313302001953125,-0.01760463027358055,0.00008764175083488225,0.006017358310089912
1783246446363314000,4.32331396484375,-0.020298107141256332,-0.006349149831011891,-0.004914360937674064
1783246446373325000,4.333324951171875,-0.012969956210255621,-0.010580978714488445,0.002119389607035555
1783246446383337000,4.3433369140625,-0.015063129097223281,0.003440240114368498,0.006708050837856717
1783246446393348000,4.35334814453125,-0.014910568884015082,0.014135894717089832,0.011902374927804339
1783246446403360000,4.363360107421875,-0.010121581041812896,0.006470291992649435,-0.01095418224132154
1783246446413371100,4.37337109375,-0.03436287285089493,0.016649667636305092,-0.01295526096462272
1783246446423383000,4.383383056640625,-0.011767594683170318,0.0090104049295187,0.0027753236319636924
1783246446433394000,4.393393798828125,-0.013859014004468918,0.001600493999198079,0.0025195587726077064
1783246446443406000,4.403406005859375,-0.010265957948565482,0.0017075345702469349,-0.000628911303973291
1783246446453418000,4.41341796875,-0.011015315011143684,0.002174238766543567,0.00152503359321272
1783246446463428900,4.423428955078125,-0.0165524908721447,-0.015614369771815835,0.01113965149357682
1783246446473440800,4.433440673828125,-0.019541735816001892,-0.0029851167580112812,-0.00934579263003543
1783246446483452200,4.4434521484375,-0.02372808158993721,0.002015175747312605,0.0010063366314861924
1783246446493464000,4.453464111328125,-0.012207155144214629,0.005794255894608795,0.005425527613493614
1783246446503475000,4.463474853515625,-0.012358546313643455,-0.0040500425757840275,-0.011311991836200467
1783246446513487000,4.473487060546875,0.00006195932030677795,0.005963694177381694,-0.011537952929048332
1783246446523499000,4.4834990234375,-0.016097148320078847,0.01429386175777763,-0.005454397514951415
1783246446533510000,4.493510009765625,-0.019687866288423537,-0.0033915421344339848,-0.009667640428966843
1783246446543521800,4.503521728515625,-0.030315643286705014,0.00598378711733967,-0.0005621022786130197
1783246446553533200,4.513533203125,-0.007720365118980407,-0.002994834434427321,-0.0034903719995636492
1783246446563545000,4.523545166015625,-0.023132453784346578,-0.005706577611155807,-0.006475073199043981
1783246446573556000,4.533555908203125,-0.01878945614397526,0.015913791109807788,-0.005698615783697459
1783246446583568100,4.543568115234375,-0.02088379807472229,0.007073116724006831,-0.008803883756080176
1783246446593580000,4.553580078125,-0.014147183296084402,-0.003633680327236652,-0.003923192192567512
1783246446603591000,4.5635908203125,-0.007263853523135185,0.0054936289802193635,-0.011898089195042847
1783246446613603000,4.57360302734375,-0.009662146836519241,-0.004882949735969305,0.01247573610265972
1783246446623613400,4.583613525390625,-0.008166355320811272,0.006653795333392918,0.0016038527167751453
1783246446633625300,4.593625244140625,-0.014302081596851347,0.0014390198271721601,0.0014554572220309636
1783246446643636200,4.60363623046875,-0.008320084577798844,0.006305274156667292,-0.0024537840769975443
1783246446653648400,4.6136484375,-0.014302081596851347,-0.003949797071702778,0.0007416737963329069
1783246446663659300,4.6236591796875,-0.02432721652686596,0.009657945585437118,0.011218527699355035
1783246446673671200,4.633671142578125,-0.012055763974785805,0.0069380191022530196,-0.004322744870209135
1783246446683683300,4.643683349609375,-0.0077186115533113475,0.00235869195535779,-0.004429897322400939
1783246446693694500,4.653694580078125,-0.031063831305503845,0.0013563830450177192,-0.0046604295590892434
1783246446703706400,4.663706298828125,-0.00038870705664157865,-0.013596234882436692,-0.0006937955170171335
1783246446713717200,4.67371728515625,-0.0074181673020124435,0.0030792613148689267,0.005915382073225919
1783246446723729400,4.6837294921875,-0.016246201401948927,0.0023326441986486314,-0.0040006253599305635
1783246446733740300,4.693740234375,-0.015649404552578926,0.013000278283283115,-0.01357460985580692
1783246446743752200,4.703752197265625,-0.01445405728816986,0.01288859806973487,-0.0030121075129252856
1783246446753764400,4.713764404296875,-0.02792085710465908,-0.009273512845113872,0.006623829453391954
1783246446763775200,4.723775146484375,-0.018492519024014473,-0.014542502756603062,0.0072867343585123305
1783246446773787100,4.733787109375,-0.01579728859066963,0.0035176892647519704,-0.0006286578589351847
1783246446783798300,4.74379833984375,-0.019385083949565885,0.0017926555704325436,0.006422849821462295
1783246446793810400,4.753810546875,-0.01190086567401886,-0.004863295187428594,0.0009666987408418208
1783246446803821300,4.7638212890625,-0.013097381982207298,0.009638729428313671,-0.0027137045216630213
1783246446813833200,4.773833251953125,-0.01325111123919487,0.006749437727592885,0.0003197334736585617
1783246446823844000,4.783843994140625,-0.02432487843930721,-0.007445091841556131,0.003343332778266631
1783246446833856300,4.793856201171875,-0.027166239345073697,-0.004042772584781051,-0.0013282620622310788
1783246446843868200,4.8038681640625,-0.014897709402441978,-0.005655139684863388,-0.0025319889959180726
1783246446853879300,4.81387939453125,-0.015947510716319082,0.0011366393471136688,0.0019415876380051485
1783246446863891500,4.823891357421875,-0.01834229689836502,0.015215725843049584,-0.006297093133500311
1783246446873902300,4.83390234375,-0.012358546313643455,0.005388670768402517,-0.00542989326135721
1783246446883914200,4.843914306640625,-0.018497195199131965,-0.01277395871412009,0.004323806599422823
1783246446893925000,4.853925048828125,-0.007876432463526725,0.007359203656390309,0.001343032656388823
1783246446903937300,4.863937255859375,-0.025386370190978048,0.0012861673530191182,-0.0008865918424911796
1783246446913949200,4.87394921875,-0.018205518776178358,-0.006606704788655042,-0.008370305511250627
1783246446923960300,4.883960205078125,-0.02613572725355625,0.002656250129826367,-0.0063331188615295105
1783246446933972500,4.893972412109375,-0.01970072576999664,0.005773797628469765,-0.00899709335679654
1783246446943983400,4.9039833984375,-0.02104921776950359,0.004766958673484623,0.007497399700817186
1783246446953995300,4.913995361328125,-0.020301029750704764,-0.0012098507137969134,0.0009228550325380638
1783246446964006100,4.924006103515625,-0.025091186636686323,0.007498502529226243,-0.015749074667925016
1783246446974018300,4.934018310546875,-0.02628770294487476,0.0012079144850373267,0.006392112189903855
1783246446984030200,4.9440302734375,-0.018208441385626793,-0.0007045315401628613,-0.000872223107132595
1783246446994041000,4.954041015625,-0.015668693774938583,0.01017480906639248,-0.0010199130656896158
1783246447004053200,4.96405322265625,-0.021658289578557012,0.013256481534056364,-0.002429836945829447
1783246447014064400,4.974064453125,-0.018366262295842168,0.00008862813152372837,-0.008367115757032298
1783246447024076300,4.984076171875,-0.03452770802378654,0.015206994547322392,0.0008663687550812028
1783246447034087200,4.994087158203125,-0.023005028012394905,0.0027706337571144104,-0.002991295337048359
1783246447044099300,5.004099365234375,-0.028539281263947485,-0.005365216827578842,-0.00799804954919964
1783246447054110200,5.014110107421875,-0.020610241830348968,-0.010872618604823947,-0.00162443199721165
1783246447064122000,5.0241220703125,-0.008638649007678032,-0.004899535544589162,0.003435582205560058
1783246447074134300,5.03413427734375,-0.007591185781359672,-0.009528108660690485,-0.006934683217562269
1783246447084145400,5.0441455078125,-0.028092706540226935,-0.011604074684530495,-0.00426638189033838
1783246447094157300,5.0541572265625,-0.019868483552336693,0.005456621438078582,-0.01337526734182611
1783246447104168200,5.064168212890625,-0.02480593995451927,-0.002790836294926703,0.004678629652771633
1783246447114180400,5.074180419921875,-0.0016144494593143461,0.009837613001279532,-0.0003920863238163292
1783246447124191200,5.084191162109375,-0.037078561550378794,-0.00407375224493444,-0.008174008904304355
1783246447134203100,5.094203125,-0.017327566897869108,-0.0007507818346843123,-0.0010155885170213877
1783246447144215300,5.10421533203125,-0.02241349186003208,-0.012326324544474482,0.003675272712949663
1783246447154226200,5.11422607421875,-0.026302315992116927,0.006916062998771667,-0.012073274515301454
1783246447164238300,5.12423828125,-0.024355273577570915,0.01390150143932551,-0.008877220703638158
1783246447174249500,5.13424951171875,-0.003556815698742866,0.0012181070854887365,-0.017069521033170165
1783246447184261400,5.144261474609375,-0.01388064131438732,-0.010175283990427851,0.006607602121087256
1783246447194272300,5.154272216796875,-0.026450784552097317,0.004939465696178377,0.01587174206636846
1783246447204284200,5.1642841796875,-0.010438976427912711,-0.0044850729921832675,-0.009198744275583886
1783246447214296300,5.17429638671875,-0.01717325311899185,0.006751520086824893,-0.002132020759745501
1783246447224307200,5.18430712890625,-0.036031682845950125,0.0007214461423456669,0.0065115898341289715
1783246447234319000,5.194319091796875,-0.02884849334359169,-0.007082615204714238,-0.007172869037743657
1783246447244330500,5.20433056640625,-0.012837269741296767,-0.0021547668810933825,-0.007005355567287187
1783246447254342400,5.21434228515625,-0.017927286356687545,0.006894179960526526,-0.006254012043599505
1783246447264353300,5.224353271484375,-0.029449381846189497,0.0009023556672036647,0.005380699807789642
1783246447274365200,5.234365234375,-0.01253916357755661,0.0017665347484871743,0.0033601263661519622
1783246447284376300,5.244376220703125,-0.031843583506345745,0.0007500146497040987,-0.005300958235620055
1783246447294388200,5.25438818359375,-0.0010194061756134032,-0.003408529801853001,0.0029515683981473557
1783246447304400100,5.264400146484375,-0.013138298514485358,-0.0040453664006665346,-0.007457967306149657
1783246447314411500,5.27441162109375,-0.025710195317864417,-0.005039455471932888,0.016822982943174428
1783246447324423400,5.28442333984375,-0.018225392520427704,-0.00047448564395308494,-0.004860231014085002
1783246447334434300,5.294434326171875,-0.027649054425954816,0.007530285906977951,-0.008228033796616364
1783246447344446200,5.3044462890625,-0.009692541974782943,-0.0029476708244532343,0.013587295807444024
1783246447354457300,5.314457275390625,-0.0237590612500906,0.008742657371424139,-0.0045443220488843505
1783246447364469200,5.32446923828125,-0.03213584445118904,0.007014372274093329,-0.0016768837036564945
1783246447374481200,5.334481201171875,-0.028541034829616545,0.014113244493864476,-0.002328726075356826
1783246447384492300,5.3444921875,-0.018514730855822562,0.00392422423902899,-0.00949881635083584
1783246447394504200,5.354504150390625,-0.029586744490265843,0.004483392491750419,-0.006084980186203029
1783246447404515300,5.364515380859375,-0.027792846810817718,0.00573649782538414,-0.002489622575358953
1783246447414527200,5.37452734375,-0.010736498069763184,0.008625278069451452,-0.0027938319696113466
1783246447424538400,5.384538330078125,-0.011485855132341384,0.0038622649187222123,-0.008235616598161868
1783246447434550300,5.39455029296875,-0.010438976427912711,-0.007192139993794262,0.0018242562850937247
1783246447444561200,5.40456103515625,-0.012834931653738021,0.008861899836920201,0.007374348709883634
1783246447454573300,5.4145732421875,-0.02585340318083763,-0.0035515915343537923,-0.0014631678877398372
1783246447464585200,5.424585205078125,-0.025104046118259428,0.0004578267700970173,-0.00852797800770495
1783246447474596400,5.434596435546875,-0.020466449445486066,0.013504939869791269,-0.0013392195643740705
1783246447484608300,5.444608154296875,-0.01567746160328388,0.0009163111273199319,0.0017815017054672352
1783246447494619400,5.454619384765625,-0.01447626911997795,0.003204275934025645,-0.008561871144152246
1783246447504631300,5.46463134765625,-0.030188802036643026,-0.0018622867405414581,-0.0070458542577456675
1783246447514642200,5.47464208984375,-0.017772972577810287,0.0013883490858599542,-0.011318848551961127
1783246447524654300,5.484654296875,-0.02016834328174591,-0.0008323957035318017,0.0011279811166226862
1783246447534666200,5.494666259765625,-0.009991817182302474,0.016204371554218232,0.003842731384478975
1783246447544677400,5.504677490234375,-0.00490472317636013,-0.0005432400312274695,0.002364064533507917
1783246447554689300,5.514689208984375,-0.017623919495940207,-0.0036815745895728467,-0.0025836529677850193
1783246447564700400,5.524700439453125,-0.019269348615407942,0.007682152000442147,0.002396946173091419
1783246447574712300,5.53471240234375,-0.008497194710373877,0.005472293931245803,-0.008247526231664233
1783246447584723200,5.54472314453125,-0.03558160099089146,0.00801755796726793,0.00493936979805585
1783246447594735400,5.5547353515625,-0.017324644288420676,-0.0024768019096925854,0.004391723019769415
1783246447604747300,5.564747314453125,-0.023906945288181304,-0.014198073233105242,-0.004165300702617969
1783246447614758100,5.574758056640625,-0.013731588232517241,0.0024102394795045257,-0.0007213799269753508
1783246447624771000,5.58477099609375,-0.01851882250905037,0.004948379654996097,0.005840675152488984
1783246447634782000,5.594781982421875,-0.017770049968361852,-0.0038917467415332794,-0.01099974069938762
1783246447644794000,5.604794189453125,-0.012834931653738021,0.003360708604753017,-0.007260220810922328
1783246447654805000,5.614804931640625,-0.018969488885998725,0.008883161820657551,-0.003623521976114716
1783246447664817200,5.624817138671875,-0.018072832307219504,0.005025317348726094,-0.005851856416917872
1783246447674828000,5.634828125,-0.010439560949802399,-0.0007025222461670636,0.0011159596019773743
1783246447684840000,5.64483984375,-0.009241875597834586,0.010347754480503499,-0.005481614315439947
1783246447694852000,5.65485205078125,-0.019417817175388336,-0.0066845923304557795,-0.011898068645445164
1783246447704863000,5.664863037109375,-0.02555705058276653,0.0028309856422245503,0.0010629325067973694
1783246447714875000,5.674875,-0.02451367900967598,0.015052753833681345,-0.0037188995088334193
1783246447724886000,5.684885986328125,-0.012544424274563789,0.006859875832125544,-0.013512666518520563
1783246447734898200,5.694898193359375,-0.01957797617316246,0.0040413843452930445,0.00012805595961399376
1783246447744909000,5.704908935546875,-0.024812369695305824,-0.004265731153078377,0.0019913701800396665
1783246447754921000,5.7149208984375,-0.009697218149900436,0.004380224378220737,-0.00273687761798501
1783246447764933000,5.72493310546875,-0.015830606338381768,-0.015260076441429555,-0.005201162539399229
1783246447774944000,5.734944091796875,-0.03288929316699505,0.0022491306336596606,0.0024253388672252183
1783246447784956000,5.744955810546875,-0.03558452360033989,0.001243789516016841,-0.006732342745608184
1783246447794967000,5.754967041015625,-0.026305238601565358,-0.0019372516728937625,-0.008076599244703539
1783246447804979200,5.764979248046875,-0.016577040791511535,0.001752287027426064,0.016259768702997824
1783246447814990000,5.774989990234375,-0.017625088539719582,-0.0055642099983990185,0.007118771080195437
1783246447825002000,5.785001953125,-0.02017185041308403,-0.007286101887561381,-0.002663513270963449
1783246447835012900,5.795012939453125,-0.02196867070198059,-0.012193930336460471,-0.0033977412630687466
1783246447845025000,5.80502490234375,-0.029451135411858557,0.002783200977742672,-0.004194143204612192
1783246447855037000,5.815036865234375,-0.021671733582019806,-0.00271736919991672,-0.0010822719615069217
1783246447865047800,5.8250478515625,-0.006257891350984573,0.0033989217232912776,-0.006685816173162311
1783246447875060000,5.83506005859375,-0.022419921600818633,0.008220131334662437,-0.0035972595902741883
1783246447885071000,5.845071044921875,-0.012243395501375197,0.00578450168557465,0.016449893580772913
1783246447895083000,5.8550830078125,-0.01598258202970028,-0.0021804127790033814,0.0010559798929141834
1783246447905094000,5.865093994140625,-0.016584639576077462,0.005233078347891569,0.005540103037026711
1783246447915106000,5.87510595703125,-0.009256488645076751,0.003095445264689624,0.0010416887893690727
1783246447925118000,5.885117919921875,-0.031104747837781905,0.001473360488191247,-0.007625334646133706
1783246447935128800,5.89512890625,-0.024967852517962453,0.0047325814798474305,-0.005503796464495826
1783246447945141000,5.90514111328125,-0.02436988662481308,0.006391308472305536,0.022492256184667346
1783246447955152100,5.915152099609375,-0.020329671323299405,-0.003336122152768075,0.0026679679670836773
1783246447965164000,5.9251640625,-0.015541268002986906,0.0020385566229000687,0.0014663736249785869
1783246447975175000,5.9351748046875,-0.016137480330467222,-0.0010028203669935464,-0.005099540212273132
1783246447985187000,5.94518701171875,-0.01883154172003269,0.00499389929715544,0.004965127577108796
1783246447995198000,5.955197998046875,-0.03259586317837238,-0.0017977336043491958,0.002121008458675351
1783246448005209900,5.9652099609375,-0.016432663884758947,0.002631773275695741,-0.011027925614255946
1783246448015222000,5.975221923828125,-0.008650339445471764,0.0003647781917825341,0.007053978198696859
1783246448025233200,5.985233154296875,-0.026306407645344733,-0.005059804140217602,0.0037791326629347164
1783246448035245000,5.9952451171875,-0.028097967237234112,-0.0005238412110134959,0.000053259990620426834
1783246448045256000,6.005255859375,-0.017470190238952635,-0.0067689096130430695,-0.0026453177438583225
1783246448055268000,6.01526806640625,-0.026745383584499356,0.0019931831112131476,-0.0008919758370844647
1783246448065279000,6.025279052734375,-0.024347674793004988,0.008792597460374236,0.00870093940483639
1783246448075291000,6.035290771484375,-0.02120353154838085,0.0039700361421331765,-0.007587484570487867
1783246448085303000,6.045302978515625,-0.026886253359913823,0.007467705532163381,0.01277362763726851
1783246448095314000,6.05531396484375,-0.0071317515760660165,0.00457366459108889,-0.0001548206689534709
1783246448105325800,6.065325927734375,-0.019248305827379224,0.003430449372716248,0.00408833104284713
1783246448115337000,6.0753369140625,-0.018050620475411415,-0.003013137276098132,-0.001410458169679623
1783246448125349000,6.08534912109375,-0.009069441640377044,0.011731500456482172,-0.009311595816200132
1783246448135360000,6.095360107421875,-0.014905308187007903,-0.005776391444355249,-0.00033363870142493396
1783246448145372000,6.105371826171875,-0.03316168036758899,-0.0011253873007372021,0.006343389093794394
1783246448155383000,6.115383056640625,-0.021042203506827353,0.004427607183903456,-0.006930952323938254
1783246448165395000,6.12539501953125,-0.020146715971827506,0.0008892769899219273,-0.008152447809756267
1783246448175406800,6.13540673828125,-0.02119359467625618,0.0019271686702966688,0.014677298984257504
1783246448185418000,6.14541796875,-0.02343815873265266,-0.0009052052114158868,-0.00190981795998523
1783246448195430100,6.15543017578125,-0.021792729613184927,0.0019501842197030782,0.0021561642537359146
1783246448205441000,6.16544091796875,-0.02867664390802383,0.010642828436940907,-0.00916893365920987
1783246448215453000,6.175452880859375,-0.0020405659168958664,0.010495455855503677,0.002551227985927835
1783246448225464000,6.185464111328125,-0.008922726646065712,0.008205006830766796,0.002932576003309805
1783246448235476000,6.19547607421875,-0.015655834293365478,-0.011549312289990484,-0.010807622510637155
1783246448245487900,6.20548779296875,-0.0183475575953722,0.006515884700044989,-0.004811126608774066
1783246448255499000,6.2154990234375,-0.02193944460749626,0.005920366492308676,-0.010076298861671239
1783246448265511000,6.225510986328125,-0.02208849768936634,0.006202617499791085,0.004849052032944746
1783246448275522000,6.23552197265625,-0.021791560569405555,-0.006749985716864466,0.0025483807250042444
1783246448285534000,6.245533935546875,-0.021045126116275785,0.009908668943494557,0.0009001522936741821
1783246448295545000,6.255545166015625,-0.02284019283950329,0.005097651932574808,-0.0027286623454885555
1783246448305557000,6.265556884765625,-0.014009820652008056,-0.010064078700914978,0.0007024057984468527
1783246448315567900,6.27556787109375,-0.006826046627759933,0.010117197127640247,0.001915889224456623
1783246448325579800,6.285579833984375,-0.01610416258275509,-0.0030349472491070627,0.0074773661263636305
1783246448335592000,6.295592041015625,-0.018199673557281495,-0.004372442930564284,0.0006094165856367908
1783246448345603000,6.30560302734375,-0.004734042784571647,0.0035972573069855567,-0.013223789407429284
1783246448355615000,6.315614990234375,-0.023287352085113525,0.006390431689471006,-0.0021867237887810915
1783246448365626000,6.325626220703125,-0.023882395368814466,-0.0013255129827186465,0.005395728413562756
1783246448375638000,6.335637939453125,-0.01879237875342369,-0.006480009669065475,-0.008837712960445786
1783246448385649000,6.34564892578125,-0.02926759553849697,0.00026445962246507404,-0.011138993906450923
1783246448395661000,6.3556611328125,-0.01744388675391674,0.003797967510856688,-0.005938699016731698
1783246448405673000,6.3656728515625,-0.003972410762310028,-0.004681728075444698,-0.0012462143685435876
1783246448415684000,6.37568408203125,-0.005020458510518073,0.011044614170864223,-0.00017254583860049023
1783246448425696000,6.385696044921875,-0.024324293917417524,0.0007458499312400817,-0.006739146945730317
1783246448435707100,6.39570703125,-0.010406243202090262,-0.007977299022115766,0.0003199595192330889
1783246448445719000,6.405718994140625,-0.012801029384136199,0.006700484019331634,0.012581235453882254
1783246448455730000,6.41572998046875,-0.025820085433125493,-0.0009198182586580514,-0.0011465396866202353
1783246448465742000,6.4257421875,-0.004571545699238777,-0.005998948153853416,-0.004600682745466474
1783246448475753000,6.4357529296875,-0.0190881468296051,-0.004163549420237541,-0.0044454807673115285
1783246448485764900,6.445764892578125,-0.02776654332578182,0.0007605360437184572,-0.005240894044877495
1783246448495776800,6.45577685546875,-0.02507131289243698,-0.006468246166035533,-0.015575266170711255
1783246448505788200,6.4657880859375,-0.016990882289409637,-0.0016804639002308249,-0.0053779187622363675
1783246448515800000,6.475800048828125,-0.01968377463519573,0.004579692473076284,-0.005411467122100293
1783246448525811000,6.48581103515625,-0.015647650986909865,0.000787241387553513,-0.01143586252775276
1783246448535823000,6.495822998046875,-0.015347791257500647,-0.01598481051940471,-0.005564136933162808
1783246448545834000,6.505833984375,-0.005468202278017998,0.01027074372153729,-0.0035652684332570057
1783246448555846000,6.515845947265625,-0.03165010676085949,0.0077566420087590805,-0.00012215822507860138
1783246448565857000,6.52585693359375,-0.023418869510293004,-0.011112455242685972,0.01247825228673173
1783246448575869200,6.535869140625,-0.02222001511454582,-0.0005362257685512305,-0.000579140178381931
1783246448585881000,6.545881103515625,-0.022215338939428328,0.0003929813729599118,-0.0008842697379528544
1783246448595892000,6.55589208984375,-0.00964519570171833,-0.01309577454701066,-0.004665630890592001
1783246448605904100,6.565904052734375,-0.020566402688622473,0.008988120032474399,0.009418492540065198
1783246448615915000,6.5759150390625,-0.010839373922348022,-0.008075571764819324,0.008075302336760796
1783246448625927000,6.585927001953125,-0.03657528820335865,-0.0025851941876113413,-0.008345652843895367
1783246448635938000,6.59593798828125,-0.018466215538978575,0.00004424100052565336,-0.0038012120640021746
1783246448645950000,6.605949951171875,-0.019960838010907173,-0.000748443747125566,-0.004237824799423106
1783246448655962000,6.615962158203125,-0.03552665593326092,0.00935976635646075,0.006209681994817219
1783246448665973000,6.625972900390625,-0.011881576451659203,0.002711925839819014,-0.007101363287668209
1783246448675985200,6.635985107421875,-0.004102174621820449,0.0008099281433969736,-0.0037085516447550614
1783246448685996000,6.64599609375,-0.021757658299803733,0.0019656740497797725,-0.0016247950401040725
1783246448696008000,6.656008056640625,-0.013227730363607406,-0.010609583754464984,-0.008617670151730998
1783246448706018800,6.666018798828125,-0.020260113218426704,0.0016395839005708694,0.0015852073818095958
1783246448716031000,6.676031005859375,-0.02370411619246006,-0.014165814931318164,-0.0028307801462477073
1783246448726042000,6.6860419921875,-0.01023731637597084,0.003652129299379885,-0.00004245775210438296
1783246448736054000,6.696053955078125,-0.022958850783109663,0.008800013581849633,0.0023811983313993547
1783246448746066200,6.706066162109375,-0.031635493713617326,0.0012663666740059852,0.004548765328561421
1783246448756077000,6.7160771484375,-0.020261282262206075,-0.0008691109847277402,0.002792222251126077
1783246448766089000,6.7260888671875,-0.02085807911157608,-0.0028620018349960444,0.0014292176690767519
1783246448776099800,6.736099853515625,-0.012328151175379753,0.005200783513486385,-0.005477495262748561
1783246448786112000,6.746112060546875,-0.028788872110843657,-0.002567877726629376,0.0018085130099789238
1783246448796123100,6.756123046875,-0.017568974438309667,-0.00009761515557765961,0.00010684649151517078
1783246448806135000,6.766135009765625,-0.014125555986166,0.006461852957867086,0.0029470726028317583
1783246448816147200,6.776147216796875,-0.03582534661889076,-0.007990706492960452,-0.00014525368958711622
1783246448826158000,6.786157958984375,-0.03148702515363693,0.0050558586174622175,-0.0011284811568330042
1783246448836170000,6.796169921875,-0.01921849521100521,0.01063245317339897,-0.011456569672352633
1783246448846180900,6.806180908203125,-0.02445698038637638,-0.0023535408562049267,-0.0033771026171278205
1783246448856193000,6.816193115234375,-0.019669746109843254,-0.004881086572445929,0.0043842794988304375
1783246448866204000,6.826203857421875,-0.015181787040829658,0.0014424538932740687,0.0009191424052231013
1783246448876215800,6.8362158203125,-0.018175123637914656,0.005044460440613329,-0.0035445042064413427
1783246448886227000,6.84622705078125,-0.01368365743756294,0.0016959902629256247,0.0009505901395459659
1783246448896239000,6.856239013671875,-0.005003507375717163,-0.0029812077678740023,-0.0030119750821846537
1783246448906251000,6.8662509765625,-0.016674071425199506,0.0047640360640361906,-0.0014231692374916747
1783246448916262000,6.876261962890625,-0.024004560443758965,0.00816007171049714,-0.003799974521563854
1783246448926274000,6.886274169921875,-0.015025135174393653,0.003945668885856866,0.002234229892049916
1783246448936285000,6.896284912109375,-0.01891571287214756,-0.006229505506716668,-0.0030269260561442933
1783246448946296800,6.906296875,-0.01861409957706928,0.008077727189287542,-0.014804747589095495
1783246448956308000,6.916307861328125,-0.029835166293382644,0.003705649584904313,0.0013407402346027083
1783246448966320000,6.926320068359375,-0.016255553752183915,-0.007192322656884789,-0.0019344614941859616
1783246448976332000,6.93633203125,-0.1124205105215311,0.02010689541809261,-0.033347407631459644
1783246448986343000,6.946343017578125,-0.11345511426627636,-0.012856376300565898,-0.05960634113957639
1783246448996355000,6.95635498046875,0.2925350856095552,-0.022526742976158858,0.15606880585104227
1783246449006366000,6.966365966796875,-0.11767302422225474,0.013301380121707916,-0.036314842602307905
1783246449016377900,6.9763779296875,-0.21613749010562897,0.010318564918637274,-0.107056590601895
1783246449026389000,6.986388916015625,0.2099006415426731,-0.0172383907770738,0.07582751769812311
1783246449036401200,6.996401123046875,-0.050931730335950845,0.009914294966682792,0.001870721208746545
1783246449046412000,7.006412109375,-0.0848924521267414,0.008892623768746853,-0.026708805300621315
1783246449056424000,7.016423828125,0.06401975996792315,-0.01906483901925385,0.03399905820691492
1783246449066436000,7.02643603515625,-0.024846271964907643,-0.011513364193774758,-0.0048636787799187006
1783246449076447000,7.036447021484375,-0.043372693258523935,0.006200279412232339,-0.0006507509597344324
1783246449086459000,7.046458984375,0.014268763849139212,-0.00576228985376656,0.017435013894294388
1783246449096470000,7.056469970703125,-0.03703530693054199,0.0004300254477187991,-0.021917748798918908
1783246449106482000,7.06648193359375,-0.04047229564189911,0.010182955840229987,-0.0024805602027801795
