time,seconds_elapsed,z,y,x
1783246425629935000,0.06093505859375,-0.0010129590518772602,0.0014814878813922405,-0.0002020644024014473
1783246425639946000,0.070946044921875,0.0003961194306612015,0.0028500864282250404,0.002087455242872238
1783246425649958000,0.0809580078125,0.0004774094559252262,-0.002151359571143985,-0.0005175881087779999
1783246425659969000,0.090968994140625,0.0010380048770457506,-0.0004312237724661827,-0.0001918836496770382
1783246425669981000,0.10098095703125,-0.00013587158173322678,0.0004455511225387454,0.0007667881436645985
1783246425679992800,0.110992919921875,0.00009289407171308994,0.001860754913650453,0.0015444313175976276
1783246425690004200,0.121004150390625,0.00159343087580055,-0.000014076242223381996,-0.0008422958198934793
1783246425700016000,0.13101611328125,0.0004903494846075773,-0.0011054396163672209,0.0009896927513182163
1783246425710027000,0.141027099609375,0.00012605427764356136,0.00034027756191790104,0.0013977596536278725
1783246425720039000,0.151038818359375,-0.00007341639138758183,0.0004907461116090417,0.00038469303399324417
1783246425730050000,0.161050048828125,0.0001480630598962307,0.001814654329791665,-0.0008137344848364592
1783246425740062000,0.17106201171875,0.0006740372627973557,-0.0006546287331730127,-0.00016019493341445923
1783246425750073900,0.181073974609375,0.00031043775379657745,-0.0008490113541483879,-0.0018452401272952557
1783246425760085000,0.1910849609375,0.0008952678181231022,0.0015097502619028091,0.00026265205815434456
1783246425770097000,0.201096923828125,0.00035320082679390907,-0.0003442005254328251,-0.00036545563489198685
1783246425780108000,0.21110791015625,0.001013132045045495,-0.0012411531060934067,-0.0012477608397603035
1783246425790120200,0.2211201171875,0.000007072929292917252,0.00038061593659222126,0.000417318195104599
1783246425800132000,0.231132080078125,-0.00008853455074131489,0.0024339130613952875,-0.0004178490489721298
1783246425810143000,0.24114306640625,-0.00047173164784908295,-0.0005820740479975939,-0.0001480085775256157
1783246425820155000,0.25115478515625,-0.0006674739997833967,-0.0016691763885319233,0.001754287164658308
1783246425830166000,0.261166015625,0.00016957405023276806,0.0021222943905740976,0.0006669177673757076
1783246425840178000,0.271177978515625,-0.0008062084671109915,0.0004445029189810157,0.0011947564780712128
1783246425850189000,0.28118896484375,0.0008401577360928059,0.0002529766643419862,-0.00024594832211732864
1783246425860201200,0.291201171875,0.00023162527941167355,-0.0006975054275244474,-0.0006225195247679949
1783246425870213000,0.301213134765625,0.002014441881328821,0.00008825166150927544,-0.0004450194537639618
1783246425880224000,0.31122412109375,-0.0008615059778094292,0.000869356794282794,-0.000623717438429594
1783246425890236000,0.32123583984375,0.0003818140830844641,-0.0006610201671719551,-0.00020839786157011986
1783246425900247000,0.3312470703125,0.0008808905258774757,-0.00024902913719415665,-0.0006347699090838432
1783246425910259000,0.341259033203125,-0.00027334759943187237,0.00048129993956536055,0.0007313019596040249
1783246425920270000,0.35127001953125,-0.0013431394472718239,-0.001058273483067751,-0.0009001505095511675
1783246425930282200,0.3612822265625,-0.00018837419338524342,0.00015359651297330856,0.0006220429204404354
1783246425940294100,0.371294189453125,-0.0022384754847735167,0.0003362892894074321,0.0003602541983127594
1783246425950305000,0.381304931640625,0.000607640715315938,0.00048063264694064856,-0.0004954193718731403
1783246425960317000,0.39131689453125,-0.000012875767424702644,0.0003863567253574729,-0.0007886337116360664
1783246425970328000,0.401328125,-0.0006452237721532583,-0.0005434327758848667,-0.000014386605471372604
1783246425980340000,0.411340087890625,0.0009958159644156694,-0.0005956306122243404,0.0015036151744425297
1783246425990352000,0.421351806640625,0.00020827259868383408,-0.00019226782023906708,-0.0010899037588387728
1783246426000363000,0.431363037109375,0.001822947058826685,0.0010176063515245914,-0.00034581637009978294
1783246426010375000,0.441375,-0.00002261088229715824,-0.000648491783067584,-0.0005288373213261366
1783246426020386000,0.451385986328125,0.0002359822392463684,0.000054316362366080284,0.0017684055492281914
1783246426030398000,0.46139794921875,-0.0003163807559758425,0.000147353857755661,-0.00019979476928710938
1783246426040409000,0.4714091796875,0.0020458432845771313,-0.00008434103801846504,0.0006822445429861546
1783246426050421000,0.4814208984375,-0.00011418526992201805,-0.0010532301384955645,0.0004812339320778847
1783246426060433000,0.491432861328125,-0.0005568026099354029,-0.00010434584692120552,0.00040080631151795387
1783246426070444000,0.501444091796875,0.0019553694874048233,0.000051091890782117844,-0.00018203165382146835
1783246426080456000,0.5114560546875,0.0005183275789022446,-0.0006181604694575071,-0.0017042947001755238
1783246426090467000,0.521467041015625,-0.00005712849088013172,0.00023353553842753172,0.0004009334370493889
1783246426100479200,0.531479248046875,0.0005436807405203581,0.0008274205029010773,0.001682979054749012
1783246426110491100,0.5414912109375,-0.00040674395859241486,-0.0002745839301496744,-0.001862814649939537
1783246426120502000,0.551501953125,-0.0009881120640784502,0.0005986666074022651,0.00016757939010858536
1783246426130514000,0.561513916015625,0.0010548937134444714,-0.0011085276491940022,0.0009176628664135933
1783246426140525000,0.571525146484375,-0.00019705831073224545,-0.0005532586947083473,0.0006822394207119942
1783246426150537000,0.581536865234375,0.00032024597749114037,0.00024693331215530634,-0.00007787859067320824
1783246426160548000,0.591548095703125,-0.00016338401474058628,0.0005934105720371008,0.0007053571753203869
1783246426170560000,0.60156005859375,-0.00047712400555610657,-0.0002477094531059265,-0.00037762848660349846
1783246426180572200,0.611572265625,0.0003324768040329218,-0.0011582442093640566,-0.0013374316040426493
1783246426190583000,0.6215830078125,-0.000424680532887578,-0.000547247938811779,0.00011376384645700455
1783246426200595000,0.631594970703125,0.000506094191223383,0.0006618270417675376,0.0009555891156196594
1783246426210606000,0.641606201171875,0.0001737191341817379,-0.00045113428495824337,-0.0009084695484489202
1783246426220618000,0.651617919921875,-0.0004183014389127493,-0.0009392916690558195,0.0022540343925356865
1783246426230628900,0.66162890625,-0.0006365608423948288,0.0003903494216501713,0.0011612600646913052
1783246426240641000,0.67164111328125,0.0009490852244198322,-0.0011345765087753534,-0.0015213422011584044
1783246426250653000,0.68165283203125,0.0011260001920163631,0.000268969452008605,0.0006545959040522575
1783246426260664000,0.6916640625,0.0003065455239266157,0.00043302017729729414,0.001017318107187748
1783246426270676000,0.701676025390625,-0.0013487865217030048,-0.0006252329330891371,0.001305670477449894
1783246426280687000,0.71168701171875,-0.0006358583923429251,0.0006416329415515065,0.0007059266790747643
1783246426290699000,0.721698974609375,-0.00019060703925788403,-0.0006442475132644176,0.0016893050633370876
1783246426300711000,0.7317109375,0.0006629361305385828,-0.00022559869103133678,0.00038622040301561356
1783246426310722000,0.74172216796875,0.00007582339458167553,0.000693195266649127,0.0014559244737029076
1783246426320734000,0.75173388671875,0.0003863479942083359,0.0009616418974474072,0.0009706965647637844
1783246426330745000,0.7617451171875,-0.00051651312969625,0.0007689257618039846,0.0006105918437242508
1783246426340757000,0.771757080078125,-0.00007016723975539207,-0.00021431338973343372,-0.0004035397432744503
1783246426350768000,0.78176806640625,0.00014208350330591202,-0.0007423115894198418,-0.0002257288433611393
1783246426360780000,0.791780029296875,-0.0002129159402102232,0.00007075141184031963,-0.00004996033385396004
1783246426370792000,0.8017919921875,-0.00009667966514825821,-0.0008439531084150076,0.0000398438423871994
1783246426380803000,0.811802978515625,0.001049012178555131,0.0003190493443980813,0.0009738141670823097
1783246426390815000,0.82181494140625,0.0013226413866505027,0.0001592767657712102,-0.00012225937098264694
1783246426400825900,0.831825927734375,0.0010624504648149014,0.0004410392139106989,-0.0006620821077376604
1783246426410838000,0.841838134765625,0.0009783566929399967,0.0006568619282916188,0.0007796529680490494
1783246426420850000,0.851849853515625,0.0005107056349515915,-0.0006155965384095907,-0.0010515365283936262
1783246426430861000,0.861861083984375,0.0005007465369999409,-0.0003819819539785385,0.0012108059599995613
1783246426440873000,0.871873046875,0.0013849161332473159,0.0003533168928697705,0.000772716011852026
1783246426450884000,0.881884033203125,-0.0007309229113161564,0.0005792588926851749,0.0007301070727407932
1783246426460896000,0.89189599609375,0.0003441954031586647,0.00013610883615911007,-0.00011571310460567474
1783246426470907000,0.901906982421875,-0.0003305769059807062,-0.0001514693722128868,-0.000546411843970418
1783246426480919000,0.9119189453125,0.000008177245035767555,-0.00015466520562767982,-0.0006769069004803896
1783246426490931000,0.921930908203125,-0.00027988222427666187,0.00013218121603131294,-0.00010243197903037071
1783246426500942000,0.931942138671875,-0.00014246325008571148,0.0015124976634979248,-0.00006434880197048187
1783246426510954000,0.9419541015625,-0.0003008947242051363,-0.0005183462053537369,0.002213567029684782
1783246426520965000,0.951965087890625,-0.00015708385035395622,0.0014702362241223454,-0.0005124448798596859
1783246426530977000,0.96197705078125,-0.0009311474859714508,-0.0010029913391917944,0.0006846762262284756
1783246426540989000,0.971989013671875,0.0007943145465105772,0.002103319624438882,-0.0002596811391413212
1783246426551000000,0.982,0.00015582051128149033,-0.00010399334132671356,-0.001971353543922305
1783246426561012000,0.992011962890625,-0.00029105786234140396,0.000950884772464633,-0.0013950455468147993
1783246426571023000,1.002023193359375,0.00045096036046743393,-0.0008671879768371582,-0.0015308624133467674
1783246426581035000,1.012034912109375,0.00007971562445163727,0.0010084763634949923,0.0013304376043379307
1783246426591046100,1.022046142578125,0.00004409509710967541,0.00048139062710106373,0.0009778025560081005
1783246426601058000,1.03205810546875,-0.0008171712979674339,0.0003013609675690532,0.0005759317427873611
1783246426611070000,1.042070068359375,0.0006861621513962746,-0.0003090561367571354,0.001097369473427534
1783246426621081000,1.0520810546875,-0.0003695148043334484,0.00031252577900886536,0.0002419622614979744
1783246426631093000,1.062093017578125,0.0006604839581996202,-0.0002723592333495617,-0.00037597399204969406
1783246426641104000,1.072103759765625,0.0001757885329425335,-0.0003735593054443598,0.0006690500304102898
1783246426651115800,1.08211572265625,0.0013635308714583516,-0.0008444511331617832,-0.0005153133533895016
1783246426661127200,1.092127197265625,0.0011054705828428268,-0.00007240055128931999,0.0006077419966459274
1783246426671139000,1.10213916015625,-0.00016693398356437683,-0.0013023819774389267,0.0013921232894062996
1783246426681151000,1.11215087890625,-0.0010652183555066586,0.00017593882512301207,-0.0004435935989022255
1783246426691162000,1.122162109375,0.0006822915747761726,0.00024683610536158085,0.0006616269238293171
1783246426701174000,1.132174072265625,-0.0001259779091924429,-0.000329738250002265,0.00040250131860375404
1783246426711185000,1.142184814453125,0.00010919524356722832,-0.0033701546490192413,0.0004392429254949093
1783246426721197000,1.152197021484375,-0.000020234379917383194,-0.0001940685324370861,-0.0007437332533299923
1783246426731209000,1.162208984375,-0.0005391689483076334,0.0008632813114672899,0.0010006600059568882
1783246426741220000,1.17222021484375,-0.00017032097093760967,0.0006486305501312017,-0.00011041061952710152
1783246426751232000,1.18223193359375,0.00023635313846170902,-0.0014353219885379076,0.0014374288730323315
1783246426761243100,1.1922431640625,0.0005740420892834663,0.00013035046868026257,-0.0009988308884203434
1783246426771255000,1.202255126953125,0.00017064972780644894,0.0013229282340034842,-0.0016946338582783937
1783246426781266000,1.212265869140625,-0.0007428145036101341,0.0017466371646150947,0.001410611905157566
1783246426791278000,1.222278076171875,-0.0001923812087625265,-0.0009567264933139086,0.0003600264899432659
1783246426801290000,1.2322900390625,-0.00013219378888607025,-0.0013231774792075157,0.0003445805050432682
1783246426811301000,1.242301025390625,-0.0011781691573560238,0.0015015146927908063,0.0004463992081582546
1783246426821313000,1.25231298828125,-0.0010282332077622414,-0.00016509159468114376,0.0005710353143513203
1783246426831324200,1.26232421875,0.0008035325445234776,-0.0015648924745619297,0.001322923693805933
1783246426841336000,1.272336181640625,0.00041204784065485,-0.0009363864082843065,-0.00019907299429178238
1783246426851348000,1.282347900390625,0.0002562333829700947,0.0005351726431399584,-0.0001138690859079361
1783246426861359000,1.292359130859375,-0.0002303263172507286,0.0009101456962525845,0.0005082450807094574
1783246426871371000,1.30237109375,-0.0002895162906497717,-0.000506093492731452,-0.000013934914022684097
1783246426881382000,1.3123818359375,-0.0007561021484434605,-0.0006629535928368568,-0.0025045231450349092
1783246426891393800,1.322393798828125,0.00020605255849659443,-0.00015892833471298218,-0.0006721215322613716
1783246426901405200,1.3324052734375,0.000018299557268619537,-0.0008643995970487595,0.000486619770526886
1783246426911417000,1.3424169921875,0.0004434229340404272,-0.0008664701599627733,0.00042594363912940025
1783246426921429000,1.352428955078125,0.0009201287757605314,0.0012608630349859595,0.0006504477933049202
1783246426931440000,1.362440185546875,0.00046420865692198277,-0.00009586522355675697,-0.000303034670650959
1783246426941452000,1.3724521484375,-0.000708115054294467,-0.0006002679001539946,-0.0006833341903984547
1783246426951463000,1.382462890625,-0.0007460690103471279,-0.0006405498133972287,0.000003847293555736542
1783246426961474800,1.392474853515625,0.0011921796249225736,-0.0002586526097729802,0.0013767066411674023
1783246426971486200,1.402486328125,0.00030821654945611954,0.0004549417644739151,-0.0007124252151697874
1783246426981498000,1.412498046875,-0.0012326885480433702,-0.0008065975271165371,-0.0004112217575311661
1783246426991510000,1.422510009765625,-0.0004268263000994921,-0.0012530408566817641,-0.00031884852796792984
1783246427001521200,1.432521240234375,0.00035561039112508297,0.00017760926857590675,0.0013948958367109299
1783246427011533000,1.442532958984375,-0.00012771179899573326,-0.0006559672765433788,-0.0005472428165376186
1783246427021544000,1.4525439453125,-0.0008254600688815117,-0.0009150926489382982,0.0004868628457188606
1783246427031555800,1.462555908203125,-0.0010746372863650322,-0.0004018073668703437,-0.00020517921075224876
1783246427041568000,1.472568115234375,-0.0006948704831302166,-0.00012883322779089212,-0.0010331559460610151
1783246427051579000,1.482578857421875,-0.00030773645266890526,0.00012144853826612234,-0.0013778754509985447
1783246427061590800,1.4925908203125,0.00011730403639376163,0.00002770521678030491,-0.0018172969575971365
1783246427071602200,1.502602294921875,-0.00023047183640301228,-0.0003015567781403661,0.00035022804513573647
1783246427081614000,1.512614013671875,-0.0006504522170871496,-0.00021100917365401983,0.0004413081333041191
1783246427091625000,1.522625,0.0013055886374786496,0.00005674909334629774,-0.00031001633033156395
1783246427101637000,1.53263720703125,0.00010050833225250244,-0.0014079895336180925,-0.0011142909061163664
1783246427111649000,1.54264892578125,-0.00023398525081574917,-0.0004839034518226981,0.0008656610734760761
1783246427121660000,1.552659912109375,0.00025763432495296,0.0006245041731745005,-0.0014361091889441013
1783246427131671800,1.562671875,0.0007456012535840273,-0.0007126601412892342,-0.00008858181536197662
1783246427141683200,1.57268310546875,-0.0014568332117050886,-0.0004703125450760126,-0.00036182207986712456
1783246427151695000,1.582695068359375,0.001353635685518384,-0.0002020833780989051,0.0014317575842142105
1783246427161707000,1.59270703125,-0.0012525338679552078,-0.00031793105881661177,-0.00023697875440120697
1783246427171718100,1.60271826171875,-0.00012965546920895576,-0.0010121081722900271,0.00026142923161387444
1783246427181730000,1.61272998046875,0.0005036443471908569,0.0003964375937357545,-0.0009076984133571386
1783246427191741000,1.622740966796875,-0.00047083478420972824,-0.0008967544417828321,0.0009073610417544842
1783246427201752800,1.6327529296875,0.0007675350643694401,-0.0009028795175254345,-0.0008284871000796556
1783246427211764200,1.64276416015625,-0.00045838672667741776,-0.0005256695440039039,-0.00032758014276623726
1783246427221776100,1.652776123046875,-0.00039313919842243195,0.001179286278784275,0.000344335101544857
1783246427231788000,1.6627880859375,-0.0004905101377516985,-0.0011508952593430877,0.0008278070017695427
1783246427241799200,1.672799072265625,0.0006330774631351233,-0.00033623434137552977,0.00010449253022670746
1783246427251811000,1.68281103515625,-0.00004868954420089722,-0.0017658618744462729,0.0002161380834877491
1783246427261822000,1.692822021484375,0.00018700025975704193,-0.0007575890049338341,-0.000016089528799057007
1783246427271833900,1.702833740234375,-0.0013409382663667202,0.0006793123902752995,-0.0011799526400864124
1783246427281845000,1.712844970703125,-0.00003678840585052967,-0.0006914166733622551,0.0014094389043748379
1783246427291857000,1.72285693359375,0.0005035160575062037,-0.0010663846042007208,-0.0007880243938416243
1783246427301868800,1.732868896484375,-0.0006211369764059782,0.000593031058087945,-0.000046067871153354645
1783246427311880200,1.742880126953125,-0.0011334195733070374,0.00009750027675181627,0.0006917216815054417
1783246427321892000,1.75289208984375,-0.00040531158447265625,-0.0006090364186093211,0.0009393957443535328
1783246427331903000,1.762903076171875,-0.00045817228965461254,0.00021821388509124517,-0.0010174422059208155
1783246427341915000,1.772914794921875,-0.00009331922046840191,0.0014722964260727167,0.0008971043862402439
1783246427351927000,1.782927001953125,-0.0015713286120444536,-0.0014110663905739784,0.0002951757051050663
1783246427361938000,1.79293798828125,0.0007397623267024755,-0.0015775139909237623,-0.00025290297344326973
1783246427371949800,1.80294970703125,-0.00033914949744939804,-0.0006504475604742765,0.0008907457813620567
1783246427381961200,1.812961181640625,0.0001300994772464037,-0.0006270117592066526,-0.000024582725018262863
1783246427391973000,1.82297314453125,-0.0005550067871809006,-0.0004571883473545313,0.0006803176365792751
1783246427401984000,1.83298388671875,-0.0009885691106319427,-0.000020696083083748817,0.0017256084829568863
1783246427411996200,1.84299609375,0.00004263990558683872,-0.0007277332479134202,0.0001390376128256321
1783246427422008000,1.853008056640625,-0.0006559074390679598,0.0000033045653253793716,0.0006777951493859291
1783246427432019000,1.86301904296875,0.0009432067163288593,-0.00017133518122136593,0.0016524093225598335
1783246427442030800,1.87303076171875,-0.0005790560971945524,-0.0014022481627762318,0.000506184995174408
1783246427452042000,1.8830419921875,0.0008962720166891813,-0.0006341375410556793,0.001593304332345724
1783246427462054000,1.893053955078125,0.000336209312081337,0.002166708931326866,-0.000550274271517992
1783246427472066000,1.903066162109375,0.00011938577517867088,-0.0013856287114322186,0.00018823426216840744
1783246427482077200,1.9130771484375,0.000009130919352173805,0.00020481098908931017,-0.0004708981141448021
1783246427492089000,1.923089111328125,0.0008377877529710531,-0.0004413258284330368,-0.0004057232290506363
1783246427502100000,1.933099853515625,0.00037945760414004326,-0.00009431573562324047,-0.0007902835495769978
1783246427512111900,1.94311181640625,0.0005082557909190655,0.0006218659691512585,0.0011789272539317608
1783246427522123000,1.953123046875,0.000893082469701767,-0.000328882597386837,-0.0010208438616245985
1783246427532135000,1.963135009765625,0.0013346591731533408,-0.0017695717979222536,0.0003604949451982975
1783246427542146800,1.973146728515625,0.0002600736916065216,0.0006477795541286469,0.00036102766171097755
1783246427552158200,1.983158203125,-0.000325395492836833,-0.0003905072808265686,0.00015668151900172234
1783246427562170000,1.993170166015625,0.0019081977661699057,0.00009605218656361103,0.0014174222014844418
1783246427572181000,2.003180908203125,-0.0004818749148398638,-0.0003370102494955063,-0.0002565942704677582
1783246427582193000,2.01319287109375,0.001150909112766385,-0.00039719766937196255,0.0019748681224882603
1783246427592205000,2.023205078125,0.0009013055823743343,0.0003959087189286947,-0.0007933978922665119
1783246427602219800,2.0332197265625,0.00002139713615179062,0.00023105903528630733,-0.00023759622126817703
1783246427612232000,2.04323193359375,0.001443290151655674,-0.000056522199884057045,-0.0007333266548812389
1783246427622242800,2.053242919921875,0.000028619077056646347,0.0008124671876430511,-0.0002635447308421135
1783246427632254700,2.063254638671875,0.00009791250340640545,-0.001456069527193904,-0.0005798856727778912
1783246427642266000,2.07326611328125,-0.000005684560164809227,0.00014821859076619148,0.0009008320048451424
1783246427652278000,2.083278076171875,0.000031257513910532,0.000891793635673821,-0.0016517373733222485
1783246427662290000,2.0932900390625,0.000706635182723403,-0.00040836166590452194,-0.0005704942159354687
1783246427672300800,2.10330078125,-0.000176604138687253,0.0007991513703018427,0.00048386119306087494
1783246427682313000,2.11331298828125,-0.0007406617514789104,0.000318184494972229,0.00045030517503619194
1783246427692323800,2.12332373046875,0.0002772889565676451,-0.00026539131067693233,-0.00008035870268940926
1783246427702335700,2.133335693359375,0.0016115326434373856,-0.0007402328774333,0.0010946281254291534
1783246427712348000,2.143347900390625,0.0007020875345915556,-0.0013129808939993382,-0.00044868234544992447
1783246427722359000,2.153359130859375,0.000047748908400535583,-0.00015557114966213703,0.001331907231360674
1783246427732371000,2.163370849609375,0.0004165095742791891,0.0006524036871269345,-0.0008659481536597013
1783246427742381800,2.1733818359375,-0.0010740617290139198,-0.00003975187428295612,-0.0012268065474927425
1783246427752394000,2.18339404296875,-0.0004312163218855858,0.0005055158399045467,-0.0008027812000364065
1783246427762404900,2.19340478515625,0.0006263249088078737,-0.0005104800220578909,0.000053425319492816925
1783246427772416800,2.203416748046875,0.0005195492412894964,0.0007158168591558933,-0.00010117189958691597
1783246427782429000,2.213428955078125,0.0015808189054951072,-0.0006133669521659613,-0.0005222172476351261
1783246427792440000,2.223440185546875,0.0001938364002853632,-0.00016191694885492325,0.0020750965923070908
1783246427802452000,2.233451904296875,0.00004097074270248413,-0.000920385355129838,0.0007624244317412376
1783246427812462800,2.243462890625,-0.00008316710591316223,0.001056859502568841,0.0005909865722060204
1783246427822475000,2.25347509765625,0.0014185894979164004,0.0002696290612220764,0.000693784561008215
1783246427832486000,2.26348583984375,0.000745866447687149,-0.0015356829389929771,-0.0011489223688840866
1783246427842497800,2.273497802734375,-0.0010605559218674898,0.0007471787976101041,0.000536858569830656
1783246427852510000,2.283510009765625,0.0001736737322062254,-0.0010805136989802122,0.00007426552474498749
1783246427862520800,2.293520751953125,-0.00012886151671409607,0.0005884893471375108,0.00029078079387545586
1783246427872532700,2.30353271484375,-0.00011986703611910343,-0.0002895724028348923,-0.0001537003554403782
1783246427882544000,2.313544189453125,-0.00191190792247653,-0.00047226506285369396,0.00046761520206928253
1783246427892556000,2.32355615234375,0.00027279858477413654,0.0015422329306602478,-0.0008457738440483809
1783246427902568000,2.33356787109375,0.0002474985085427761,-0.00009241537190973759,0.00034279515966773033
1783246427912578800,2.343578857421875,-0.00008956016972661018,-0.00013279845006763935,-0.00024055782705545425
1783246427922591000,2.353591064453125,0.0004374794661998749,-0.000039055244997143745,0.0014904970303177834
1783246427932601900,2.363601806640625,0.0003692891914397478,-0.0006666537374258041,-0.0009742304682731628
1783246427942613800,2.37361376953125,-0.0006698761135339737,-0.0004932819865643978,0.0009672138839960098
1783246427952625200,2.383625244140625,0.0010612283367663622,-0.0009218880441039801,0.00010025175288319588
1783246427962637000,2.393636962890625,0.00027026934549212456,-0.0005011085886508226,0.0004374077543616295
1783246427972649000,2.40364892578125,0.0004290752112865448,0.0012588168028742075,0.0014615096151828766
1783246427982659800,2.413659912109375,-0.0005938450340181589,-0.0012389619369059801,-0.0003374558873474598
1783246427992672000,2.423672119140625,0.00032988772727549076,0.000009305542334914207,0.0012159142643213272
1783246428002683000,2.433682861328125,-0.00008503277786076069,-0.0006050858646631241,0.0005573146045207977
1783246428012694800,2.44369482421875,0.000524997478350997,0.0009778781095519662,-0.0018201482016593218
1783246428022707000,2.45370703125,0.002003318164497614,-0.0006977829616516829,-0.0010318525601178408
1783246428032717800,2.4637177734375,0.00033223582431674004,0.0009738678345456719,0.0005064038559794426
1783246428042729700,2.473729736328125,-0.00037057255394756794,0.00032671960070729256,0.0006299745291471481
1783246428052740900,2.483740966796875,0.0002000157255679369,0.0010840989416465163,-0.0013508729171007872
1783246428062753000,2.4937529296875,0.0007744596805423498,-0.0003438880667090416,0.0014542345888912678
1783246428072764000,2.503763916015625,0.00028959778137505054,0.00013915484305471182,-0.0005473531782627106
1783246428082775800,2.51377587890625,-0.00031280936673283577,-0.0002193066757172346,0.0010366952046751976
1783246428092788000,2.5237880859375,-0.0007295436225831509,0.00024400977417826653,0.00043513067066669464
1783246428102798800,2.533798828125,-0.0001042333897203207,-0.0001661169808357954,0.0011890712194144726
1783246428112810800,2.543810791015625,-0.0007424054201692343,0.0007633345667272806,0.0008595534600317478
1783246428122822000,2.55382177734375,0.0002805145923048258,-0.00012802542187273502,0.0015194849111139774
1783246428132834000,2.563833984375,0.0009045242331922054,-0.0006747024599462748,0.0007335501722991467
1783246428142846000,2.573845947265625,0.0005694983992725611,-0.0003852166701108217,-0.0009932434186339378
1783246428152856800,2.58385693359375,-0.00039129797369241714,-0.000247324351221323,0.0010933587327599525
1783246428162869000,2.593868896484375,-0.0011793274898082018,-0.0018723851535469294,-0.0004355618730187416
1783246428172880000,2.6038798828125,-0.00009362190030515194,-0.0004377169534564018,-0.00011414708569645882
1783246428182891800,2.613891845703125,-0.00003955978900194168,-0.0009700828231871128,0.0010379361920058727
1783246428192903200,2.623903076171875,-0.001553734764456749,0.00039288715925067663,0.00023401854559779167
1783246428202915000,2.6339150390625,0.0012146213557571173,0.001494636875577271,0.0024028969928622246
1783246428212927000,2.643927001953125,0.00002231728285551071,0.00017651484813541174,0.0015081949532032013
1783246428222937900,2.653937744140625,-0.0013745108153671026,0.001096903346478939,0.0003278818912804127
1783246428232950000,2.663949951171875,-0.00038639549165964127,-0.0008983970619738102,-0.0002721319906413555
1783246428242961000,2.6739609375,-0.0003336649388074875,0.0003112106351181865,0.0001118960790336132
1783246428252972800,2.683972900390625,-0.0007373122498393059,-0.00013992167077958584,0.0013231919147074223
1783246428262985000,2.69398486328125,0.0003404691815376282,0.0010246786987408996,0.00009840400889515877
1783246428272995800,2.703995849609375,-0.000788345467299223,0.0009655876783654094,0.00025046104565262794
1783246428283007700,2.7140078125,-0.0012741058599203825,-0.00044189300388097763,0.00019959453493356705
1783246428293019000,2.724018798828125,-0.0009099259041249752,0.00016899663023650646,-0.00034419121220707893
1783246428303031000,2.734031005859375,0.0010972984600812197,0.000006543705239892006,-0.0016278347466140985
1783246428313042000,2.7440419921875,3.257300704717636e-7,-0.000047190580517053604,-0.00010195281356573105
1783246428323053800,2.7540537109375,0.0006128528621047735,0.0007853135466575623,0.001191810704767704
1783246428333066000,2.76406591796875,0.0003587242681533098,0.00023788458202034235,-0.0009202798828482628
1783246428343076900,2.774076904296875,-0.0010362397879362106,0.0006583977956324816,-0.0006366530433297157
1783246428353088800,2.7840888671875,-0.0009138812310993671,0.00004252302460372448,0.0008148625493049622
1783246428363100000,2.794099853515625,-0.0006859146524220705,-0.00016946461983025074,0.000847353134304285
1783246428373112000,2.804112060546875,-0.0004967011045664549,-0.00042773899622261524,0.00035353517159819603
1783246428383124000,2.8141240234375,-0.0015670256689190865,-0.0002839283552020788,-0.000964729581028223
1783246428393134800,2.824134765625,-0.00007793842814862728,-0.0008925835136324167,0.0002834307961165905
1783246428403147000,2.83414697265625,0.00018331757746636868,-0.00024064164608716965,-0.0005373554304242134
1783246428413158000,2.844157958984375,0.0005240377504378557,-0.0009818882681429386,-0.00015515973791480064
1783246428423169800,2.854169677734375,-0.00006398838013410568,-0.0008197017014026642,-0.0011221535969525576
1783246428433181000,2.864180908203125,-0.00018272106535732746,-0.0006767916493117809,-0.0001742853783071041
1783246428443192800,2.87419287109375,0.0004484481178224087,-0.0005958315450698137,0.0006382446736097336
1783246428453205000,2.884205078125,0.0006434598471969366,0.00026398838963359594,-0.000983106903731823
1783246428463215900,2.8942158203125,-0.0005504353903234005,0.0010807799408212304,-0.00030293548479676247
1783246428473228000,2.90422802734375,-0.0009567900560796261,0.00030382664408534765,-0.0010595889762043953
1783246428483239000,2.914239013671875,0.0012163495412096381,0.0006345913279801607,-0.0006635771133005619
1783246428493250800,2.924250732421875,-0.0009721310343593359,0.001479041762650013,0.0008989912457764149
1783246428503263000,2.934262939453125,0.0004550567828118801,0.001125640352256596,-0.0013252808712422848
1783246428513273900,2.94427392578125,0.000876083504408598,0.0007688893238082528,-0.00023614196106791496
1783246428523285800,2.95428564453125,0.0007375993300229311,0.00007753283716738224,-0.0010899512562900782
1783246428533297000,2.964296875,-0.0013220356777310371,-0.0008398585487157106,-0.00047745974734425545
1783246428543309000,2.97430908203125,0.0004074210301041603,-0.0009535753633826971,-0.0005022273398935795
1783246428553320000,2.98431982421875,0.00018390384502708912,-0.00048768799751996994,-0.000002250075340270996
1783246428563331800,2.994331787109375,0.00003236997872591019,0.0019682790152728558,0.0004009525291621685
1783246428573344000,3.004343994140625,-0.0007408866658806801,0.001123577356338501,0.00106918066740036
1783246428583355000,3.01435498046875,-0.0007787037175148726,-0.000046615488827228546,-0.00020008161664009094
1783246428593366800,3.02436669921875,0.00039009563624858856,0.001575753907673061,0.0005108145996928215
1783246428603374000,3.0343740234375,-0.001562267541885376,-0.0014884790871292353,-0.00037149060517549515
1783246428613386000,3.044385986328125,0.0007909918203949928,-0.00023471680469810963,-0.0000904640182852745
1783246428623397000,3.054397216796875,-0.0002681473270058632,-0.00006400817073881626,-0.0006188354454934597
1783246428633409000,3.064408935546875,-0.0007136710919439793,0.00044248439371585846,-0.0020386292599141598
1783246428643421000,3.0744208984375,0.0008498707320541143,0.00021904520690441132,-0.0007712310180068016
1783246428653431800,3.084431884765625,-0.0003684493713080883,0.00016884016804397106,-0.00034961430355906487
1783246428663444000,3.09444384765625,0.0005577981937676668,-0.0010612739715725183,0.00029407162219285965
1783246428673455000,3.104455078125,-0.000019518891349434853,0.000809671706520021,0.0006645629182457924
1783246428683467000,3.114467041015625,0.0006473367102444172,0.0006304410053417087,-0.0012779466342180967
1783246428693479200,3.124479248046875,0.0001917553599923849,0.0003168110270053148,-0.00008493522182106972
1783246428703490000,3.134489990234375,-0.0014871014282107353,0.00009683403186500072,-0.0013696441892534494
1783246428713502000,3.144501953125,-0.0005380779039114714,-0.00031245616264641285,0.00018131593242287636
1783246428723513000,3.15451318359375,-0.00015325122512876987,0.0007568029686808586,0.0009879874996840954
1783246428733525000,3.16452490234375,0.0005796712357550859,0.0005353926680982113,-0.00010752351954579353
1783246428743535900,3.174535888671875,0.0006699522491544485,0.0006879918510094285,-0.0008891611360013485
1783246428753548000,3.184548095703125,0.0004429819528013468,0.00009387894533574581,-0.001598830334842205
1783246428763560000,3.194559814453125,0.0001505669206380844,-0.00013382150791585445,0.00008801557123661041
1783246428773571000,3.204571044921875,0.0025925668887794018,0.0010879887267947197,-0.001410746481269598
1783246428783583000,3.2145830078125,-0.0008482371922582388,-0.0004558458458632231,0.0004926146939396858
1783246428793594000,3.224593994140625,0.0010270480997860432,0.0008149264613166451,-0.00016443897038698196
1783246428803606000,3.23460595703125,0.001240633660927415,-0.0005834994371980429,0.0009660730138421059
1783246428813618000,3.244617919921875,-0.0003106591757386923,0.0015203773509711027,-0.0005804887041449547
1783246428823628800,3.25462890625,0.0014499566750600934,-0.001364625059068203,-0.00028887251392006874
1783246428833641000,3.264640869140625,0.00031240819953382015,0.0007892284775152802,0.00031853141263127327
1783246428843652000,3.274652099609375,0.00008763745427131653,-0.0006075995042920113,-0.0003126375377178192
1783246428853664000,3.2846640625,-0.0005040231626480818,-0.00013714865781366825,0.00020483136177062988
1783246428863675100,3.294675048828125,-0.0012715461198240519,-0.0008729801047593355,-0.0012931965757161379
1783246428873687000,3.30468701171875,0.0006743657868355513,0.0005153988022357225,-0.000286600086838007
1783246428883699000,3.314698974609375,-0.00005187815986573696,-0.0008673144038766623,0.0005810577422380447
1783246428893709800,3.324709716796875,-0.0005104742012917995,0.00037604139652103186,0.0003539677709341049
1783246428903722000,3.334721923828125,0.00014759297482669353,-0.0015275862533599138,0.000862631481140852
1783246428913733000,3.344733154296875,-0.000560457818210125,0.000549699179828167,0.0005077831447124481
1783246428923745000,3.3547451171875,0.0014845834812149405,0.0006559592438861728,-0.0006477623246610165
1783246428933757200,3.364757080078125,0.000943436287343502,0.00006287521682679653,-0.0002202829346060753
1783246428943768000,3.37476806640625,-0.0008121195714920759,0.00018058705609291792,-0.0025316402316093445
1783246428953780000,3.384780029296875,-0.00033515598624944687,-0.00017945398576557636,-0.0008790877182036638
1783246428963790800,3.394790771484375,-0.0004115886986255646,-0.0003834522794932127,-0.00021968921646475792
1783246428973803000,3.404802978515625,0.0005363596137613058,-0.0002996537368744612,-0.0004715295508503914
1783246428983814000,3.41481396484375,-0.0000037294812500476837,0.0003485598135739565,-0.0005852468311786652
1783246428993825800,3.42482568359375,0.0009092092514038086,0.0001679915003478527,0.00031494442373514175
1783246429003838000,3.434837890625,0.00023463042452931404,-0.00014413101598620415,-0.0007639024406671524
1783246429013849000,3.44484912109375,-0.000830342760309577,-0.0002617372665554285,-0.0000908486545085907
1783246429023861000,3.454861083984375,-0.0008260817267000675,-0.0006428356282413006,-0.0006879293359816074
1783246429033872100,3.4648720703125,0.0005295213777571917,0.0009217733750119805,0.0007393439300358295
1783246429043884000,3.474884033203125,-0.0012824931181967258,0.0011665178462862968,0.0008932743221521378
1783246429053896000,3.48489599609375,0.0005624231416732073,-0.0004725672770291567,0.00007016584277153015
1783246429063906800,3.49490673828125,-0.0007260141428560019,0.0007847110973671079,-0.00020360713824629784
1783246429073919000,3.5049189453125,-0.000030399765819311142,0.0010043219663202763,0.0015677264891564846
1783246429083930000,3.51493017578125,-0.0007246860768646002,0.0009119102032855153,-0.000007533468306064606
1783246429093942000,3.52494189453125,0.000397735508158803,-0.0016337672714143991,0.000048673711717128754
1783246429103953200,3.534953125,0.0007082601077854633,0.0009348515886813402,-0.00022962689399719238
1783246429113965000,3.544965087890625,-0.0006043934263288975,-0.0005061691626906395,-0.0017904206179082394
1783246429123977000,3.55497705078125,-0.0002619109582155943,0.0010552422609180212,0.0016099032945930958
1783246429133987800,3.56498779296875,-0.00022626039572060108,-0.00006848922930657864,-0.0004737679846584797
1783246429144000000,3.575,-0.0005367849953472614,0.000346697517670691,-0.00025245919823646545
1783246429154011100,3.58501123046875,0.000542359659448266,0.00007616914808750153,-0.00004875753074884415
1783246429164023000,3.59502294921875,0.0007351725362241268,0.0008298436878249049,0.00036483118310570717
1783246429174035200,3.60503515625,0.000763442600145936,-0.00004189182072877884,0.0005743545480072498
1783246429184046000,3.615046142578125,-0.0003084796480834484,0.0005511940689757466,0.0011719679459929466
1783246429194058000,3.62505810546875,0.002849443582817912,0.000308544491417706,0.00010327855125069618
1783246429204068900,3.63506884765625,-0.0012518244329839945,-0.0002160982694476843,-0.0004200325347483158
1783246429214081000,3.6450810546875,-0.00043727108277380466,0.0001611898187547922,0.0005753273144364357
1783246429224092000,3.655091796875,-0.0003099720925092697,-0.00007929373532533646,0.0010059601627290249
1783246429234103800,3.665103759765625,-0.000013956800103187561,-0.00023094657808542252,0.00020608631893992424
1783246429244116000,3.675115966796875,0.0005969724152237177,-0.000747067155316472,0.0003022262826561928
1783246429254127000,3.685127197265625,0.0001631774939596653,0.0004886117530986667,0.00044206250458955765
1783246429264139000,3.695138916015625,-0.0005468213930726051,0.00005904398858547211,-0.0008679465390741825
1783246429274150000,3.70514990234375,-0.00030538160353899,0.0002642519539222121,-0.000296284444630146
1783246429284162000,3.715162109375,0.0008589525241404772,-0.00027397298254072666,0.00009253714233636856
1783246429294174000,3.725174072265625,-0.0003480692394077778,-0.0005483368877321482,-0.0002919198013842106
1783246429304184800,3.735184814453125,0.0007638006936758757,0.00018349976744502783,0.0009102309122681618
1783246429314197000,3.745197021484375,0.0008679993916302919,0.00003206077963113785,-0.0006313864141702652
1783246429324208000,3.7552080078125,0.00038383668288588524,0.0012384726433083415,0.00041763298213481903
1783246429334220000,3.765219970703125,0.00011072237975895405,0.00028678879607468843,0.0007328162901103497
1783246429344232200,3.775232177734375,-0.0018062209710478783,0.000003961147740483284,0.0002158968709409237
1783246429354243000,3.7852431640625,-0.00020699715241789818,0.0012355286162346601,-0.00008895527571439743
1783246429364255000,3.7952548828125,-0.00023895502090454102,-0.00037488481029868126,0.0007230425253510475
1783246429374265900,3.805265869140625,-0.001274424372240901,-0.00006673228926956654,-0.0004056165926158428
1783246429384278000,3.815278076171875,0.0013602410908788443,-0.0005189368966966867,0.00021303538233041763
1783246429394289000,3.825288818359375,0.000342303654178977,-0.0012422730214893818,-0.0017073994968086481
1783246429404301000,3.835301025390625,0.0004299215506762266,-0.00003506219945847988,0.0001331111416220665
1783246429414313000,3.84531298828125,0.0018025286262854934,0.00023900973610579967,0.0010896949097514153
1783246429424324000,3.855323974609375,0.002200138522312045,0.0020984287839382887,-0.0002679848112165928
1783246429434336000,3.8653359375,0.0007002279162406921,0.0006031484808772802,0.00031311437487602234
1783246429444347000,3.875346923828125,-0.0009013970848172903,-0.0004464033991098404,-0.0013974341563880444
1783246429454359000,3.885359130859375,0.0009179413318634033,-0.0006504673510789871,0.0005375305190682411
1783246429464371000,3.895370849609375,-0.0005308182444423437,-0.00042223441414535046,0.0018320931121706963
1783246429474381800,3.9053818359375,-0.0012138790916651487,0.0004999407101422548,0.00042470917105674744
1783246429484394000,3.91539404296875,-0.001995517173781991,0.0014426996931433678,0.0013293852098286152
1783246429494405000,3.925405029296875,-0.0018675571773201227,-0.000030128518119454384,-0.0005299816839396954
1783246429504417000,3.9354169921875,-0.00043504289351403713,-0.00046182703226804733,-0.0005089426413178444
1783246429514428000,3.945427978515625,-0.0007194939535111189,0.0013420506147667766,0.0001671542413532734
1783246429524440000,3.955440185546875,-0.0005929938051849604,0.002000650390982628,-0.00043418770655989647
1783246429534452000,3.965451904296875,-0.0007261049468070269,0.0004239396657794714,0.00023340759798884392
1783246429544462800,3.975462890625,-0.0006741734687238932,0.00007053813897073269,-0.0008398459758609533
1783246429554475000,3.98547509765625,0.0002542401198297739,-0.0012018538545817137,0.00015225214883685112
1783246429564486100,3.995486083984375,-0.0008805328980088234,0.0002860542153939605,-0.0015449803322553635
1783246429574498000,4.005498046875,0.0001664485316723585,-0.000043647363781929016,0.0003361450508236885
1783246429584510200,4.01551025390625,-0.0005904217250645161,0.0006655523320659995,-0.000891572330147028
1783246429594521000,4.02552099609375,-0.0007199971005320549,0.00003296229988336563,0.00041471701115369797
1783246429604533200,4.035533203125,-0.0006185306701809168,-0.0006903521716594696,0.000448805745691061
1783246429614544100,4.045544189453125,0.00002605537883937359,0.00020021433010697365,0.00013024825602769852
1783246429624556300,4.055556396484375,-0.000010429881513118744,-0.0005124476738274097,-0.0004583103582262993
1783246429634567200,4.065567138671875,-0.000273433281108737,0.0014703141059726477,5.792826414108276e-7
1783246429644579000,4.0755791015625,0.0006493520922958851,-0.0008828549180179834,-0.0008710732217878103
1783246429654591200,4.08559130859375,0.0007197447121143341,0.00008208071812987328,-0.0011186068877577782
1783246429664602400,4.095602294921875,0.00013145245611667633,0.0011121913557872176,-0.00022378470748662949
1783246429674614300,4.1056142578125,-0.001091004116460681,-0.0006474503315985203,0.00022198446094989777
1783246429684625200,4.115625244140625,-0.0008957947138696909,-0.000575278652831912,-0.001048609847202897
1783246429694637300,4.12563720703125,-0.00048009702004492283,0.00010771164670586586,-0.00016686180606484413
1783246429704649200,4.135649169921875,-0.00004147435538470745,-0.00013383710756897926,0.0011474085040390491
1783246429714660000,4.14566015625,-0.0007342759054154158,-0.00038618978578597307,-0.00008118804544210434
1783246429724672300,4.15567236328125,0.000666014151647687,-0.00032893160823732615,0.000038920436054468155
1783246429734683400,4.165683349609375,0.0004211645573377609,0.0003547889646142721,-0.0010362144093960524
1783246429744695300,4.1756953125,-0.0002675289288163185,0.0017580084968358278,0.00015581632032990456
1783246429754706200,4.1857060546875,-0.00047038914635777473,-0.00023904256522655487,-0.00004715798422694206
1783246429764718300,4.19571826171875,-0.0005657302681356668,-0.0012068352662026882,-0.0010546320118010044
1783246429774730200,4.205730224609375,0.000006822403520345688,-0.00028685771394521,-0.0010530801955610514
1783246429784741000,4.2157412109375,0.0016723632579669356,-0.0008397299097850919,0.0004971455782651901
1783246429794753300,4.225753173828125,0.00045804260298609734,-0.00037849938962608576,-0.0006009023636579514
1783246429804764200,4.23576416015625,-0.0008764674421399832,-0.0003518679877743125,0.0010760901495814323
1783246429814776000,4.245776123046875,0.0005153855308890343,-0.00035323575139045715,-0.00047277752310037613
1783246429824788200,4.255788330078125,-0.0002952807117253542,-0.00024830736219882965,0.00023535685613751411
1783246429834799400,4.26579931640625,0.0009922911413013935,0.0002958802506327629,0.00012735417112708092
1783246429844811300,4.275811279296875,0.00014380784705281258,0.0006074700504541397,-0.00017091957852244377
1783246429854822100,4.285822265625,-0.0009146607480943203,0.00012077717110514641,0.00020514009520411491
1783246429864834300,4.295834228515625,-0.0005471445620059967,-0.00047230871859937906,-0.001668659970164299
1783246429874845200,4.30584521484375,0.0002361356746405363,-0.0010139915393665433,-0.0006067766807973385
1783246429884857000,4.315857177734375,0.0007911385037004948,0.0008720591431483626,0.0004590204916894436
1783246429894869200,4.325869140625,0.0002897065132856369,-0.0005315414164215326,0.00023091817274689674
1783246429904880400,4.33588037109375,-0.000007502268999814987,0.00039310799911618233,0.0003853817470371723
1783246429914892300,4.345892333984375,-0.0007565238047391176,-0.0010504766833037138,-0.0025732109788805246
1783246429924903200,4.355903076171875,-0.001188754802569747,-0.00003368174657225609,-0.0021684104576706886
1783246429934915300,4.365915283203125,-0.0004477342590689659,0.00035648199263960123,-0.0002553081139922142
1783246429944927200,4.37592724609375,0.0003014130052179098,-0.0006517907604575157,0.000034709926694631577
1783246429954938000,4.385938232421875,-0.0028474389109760523,0.0004360771272331476,-0.00042228447273373604
1783246429964950300,4.3959501953125,0.0000013445969671010971,-0.0006289209704846144,-0.00043346965685486794
1783246429974961400,4.40596142578125,0.0005098485853523016,-0.0010810771491378546,-0.00009134691208600998
1783246429984973300,4.415973388671875,0.00042649172246456146,0.00021162116900086403,-0.00063356664031744
1783246429994984200,4.425984130859375,0.0004687430337071419,-0.00013730302453041077,-0.0006755846552550793
1783246430004996400,4.435996337890625,-0.0005970539059489965,-0.0010627515148371458,-0.0019970452412962914
1783246430015008300,4.44600830078125,-0.0002642800100147724,-0.0002490599872544408,-0.0002947794273495674
1783246430025019100,4.45601904296875,-0.0013844054192304611,-0.00040725187864154577,0.00020616129040718079
1783246430035031300,4.46603125,-0.0012111561372876167,-0.0004350863164290786,0.00011644931510090828
1783246430045042200,4.476042236328125,0.0010991361923515797,0.00033669767435640097,-0.0004939474165439606
1783246430055054000,4.48605419921875,-0.00012160465121269226,-0.00020921544637531042,0.0007610823959112167
1783246430065066200,4.496066162109375,-0.00025822478346526623,-0.0005002989200875163,-0.0016317677218466997
1783246430075077400,4.506077392578125,0.0003534327261149883,-0.0003116965526714921,-0.0004506572149693966
1783246430085089300,4.51608935546875,-0.0007645622827112675,-0.00007840374018996954,0.0001866375096142292
1783246430095100200,4.52610009765625,0.0008057120721787214,-0.0004163967678323388,0.00013736728578805923
1783246430105112300,4.5361123046875,-0.0013559756334871054,0.00024965975899249315,0.00048144813627004623
1783246430115124200,4.546124267578125,-0.0004042903892695904,0.0006441453006118536,-0.0009415098465979099
1783246430125135000,4.556135009765625,-0.0014682235196232796,-0.0010877082822844386,-0.0005313828587532043
1783246430135147300,4.566147216796875,-0.00028039352037012577,0.00045397470239549875,-0.00030794134363532066
1783246430145158400,4.576158447265625,-0.0005312631838023663,-0.00018784718122333288,0.000056379009038209915
1783246430155170300,4.58617041015625,-0.00047463085502386093,0.0016473715659230947,-0.0005619297735393047
1783246430165181200,4.59618115234375,-0.00047995708882808685,0.00002550648059695959,0.0017475634813308716
1783246430175193300,4.606193359375,-0.0004818413872271776,-0.0005195192061364651,0.0005854852497577667
1783246430185205200,4.616205322265625,0.00003001815639436245,-0.0002526703756302595,0.0001473953016102314
1783246430195216100,4.626216064453125,0.0008969749324023724,0.001747099682688713,-0.0002698027528822422
1783246430205228300,4.636228271484375,-0.0005808132700622082,-0.0005674536805599928,-0.0006064260378479958
1783246430215239200,4.6462392578125,0.0003091853577643633,0.0004887039540335536,-0.00027914484962821007
1783246430225251000,4.6562509765625,-0.00009774556383490562,0.0010785941267386079,0.001038320828229189
1783246430235263200,4.66626318359375,-0.0002565879840403795,0.0006172675639390945,-0.00016029458492994308
1783246430245274400,4.6762744140625,-0.00013115303590893745,0.0002734535373747349,-0.00023592868819832802
1783246430255286300,4.686286376953125,0.0007650281768292189,0.0011292551644146442,0.00027217529714107513
1783246430265297200,4.696297119140625,-0.0003865226171910763,0.00010606867726892233,0.0006484799087047577
1783246430275309300,4.706309326171875,-0.0008935905061662197,0.0001221235143020749,0.000007200054824352264
1783246430285320200,4.7163203125,-0.0009673601016402245,0.0005375766195356846,-0.0002002599649131298
1783246430295332000,4.72633203125,0.001129549229517579,0.0005146455951035023,-0.0012614650186151266
1783246430305344300,4.73634423828125,-0.0008526414167135954,0.0003532579867169261,0.0003814389929175377
1783246430315355400,4.74635546875,0.00014145462773740292,0.0005187240894883871,0.0006770119071006775
1783246430325367300,4.7563671875,-0.0005134164821356535,-0.0011060703545808792,-0.00018611829727888107
1783246430335378200,4.766378173828125,-0.000325334956869483,-0.0006370607297867537,-0.00013642478734254837
1783246430345390300,4.776390380859375,0.0003244762774556875,0.00048120063729584217,-0.0016954392194747925
1783246430355402200,4.78640234375,-0.0006259134970605373,0.0004622176056727767,0.0012049544602632523
1783246430365413000,4.7964130859375,-0.00008422671817243099,0.00017779204063117504,-0.0013423589989542961
1783246430375425300,4.80642529296875,-0.000024506356567144394,-0.0008425673004239798,-0.0002035205252468586
1783246430385436400,4.8164365234375,-0.0003257098142057657,0.00042056990787386894,0.000410604290664196
1783246430395448300,4.8264482421875,-0.0000861047301441431,-0.00004300451837480068,-0.00040228990837931633
1783246430405459200,4.836459228515625,-0.00009675719775259495,0.0009210598655045033,-0.0005530249327421188
1783246430415471400,4.846471435546875,0.0010398447047919035,-0.0006166368257254362,-0.00043510040268301964
1783246430425483300,4.856483154296875,0.0020337363239377737,-0.0004930661525577307,0.00006504124030470848
1783246430435494100,4.866494140625,0.0004433190915733576,-0.00011882511898875237,0.0015435786917805672
1783246430445506300,4.87650634765625,-0.0008296719752252102,0.0003602775977924466,0.0000237124040722847
1783246430455517200,4.88651708984375,-0.0001614352222532034,0.00015668128617107868,0.00027004489675164223
1783246430465529000,4.896529052734375,0.0005059530958533287,-0.0003724887501448393,0.000855141319334507
1783246430475541200,4.906541259765625,-0.0004650356713682413,0.0003549953689798713,0.00046835653483867645
1783246430485552400,4.916552490234375,-0.00001895613968372345,-0.00019707786850631237,0.0004880642518401146
1783246430495564300,4.926564208984375,0.0005160297732800245,-0.0006243877578526735,-0.00006992695853114128
1783246430505575200,4.9365751953125,-0.0000626749824732542,-0.0017098921816796064,0.000057371798902750015
1783246430515587300,4.94658740234375,0.0005232847761362791,0.00013038015458732843,0.0012243827804923058
1783246430525598200,4.95659814453125,0.0011352791916579008,0.0009429105557501316,0.00008455011993646622
1783246430535610000,4.966610107421875,-2.50060111284256e-7,-0.0004278926644474268,0.0013129371218383312
1783246430545622300,4.976622314453125,0.000598694896325469,-0.00022629136219620705,0.0007033394649624825
1783246430555633400,4.98663330078125,-0.00025108223780989647,0.0010784349869936705,0.00016265222802758217
1783246430565645300,4.996645263671875,-0.00043563940562307835,-0.0008249261882156134,-0.0002959445118904114
1783246430575656200,5.00665625,0.0025120708160102367,-0.000467534177005291,-0.00010304758325219154
1783246430585668400,5.01666845703125,-0.00045042973943054676,0.00033221300691366196,0.0005789878778159618
1783246430595680300,5.02668017578125,-0.00011854316107928753,-0.00015845871530473232,0.001643666997551918
1783246430605691000,5.03669091796875,0.00019064988009631634,0.0010913627920672297,0.0002939770929515362
1783246430615703000,5.046703125,0.0002243872731924057,0.00030568684451282024,0.0003124317154288292
1783246430625714200,5.056714111328125,0.0010651473421603441,-0.0009854135569185019,-0.0005363174714148045
1783246430635726000,5.06672607421875,-0.00015163002535700798,-0.0013476668391376734,-0.00008111214265227318
1783246430645737000,5.076737060546875,-0.00012925942428410053,-0.00034578563645482063,-0.00034849345684051514
1783246430655749000,5.0867490234375,-0.0012515264097601175,0.0009298782097175717,0.001322729978710413
1783246430665761000,5.096760986328125,0.0018838130636140704,0.00005396455526351929,-0.0007963471580296755
1783246430675772000,5.10677197265625,0.00002835993655025959,-0.0008454525377601385,0.0011284365318715572
1783246430685784000,5.1167841796875,0.0012390329502522945,0.0006922564934939146,0.00011510355398058891
1783246430695795000,5.126794921875,0.0007133737672120333,-0.0013473448343575,0.0011411942541599274
1783246430705806800,5.136806884765625,0.00037967972457408905,0.0006843807641416788,-0.001104915514588356
1783246430715819000,5.146819091796875,0.0021456805989146233,0.00046853546518832445,-0.0001883949153125286
1783246430725830100,5.156830078125,-0.00036807707510888577,-0.0000073714181780815125,-0.00028959522023797035
1783246430735842000,5.166842041015625,-0.001817501848563552,0.00031667377334088087,-0.0004884088411927223
1783246430745853000,5.17685302734375,0.0010395371355116367,-0.0010079825296998024,0.0011116182431578636
1783246430755865000,5.186864990234375,0.0000826958566904068,0.00031679903622716665,-0.0007867054082453251
1783246430765877000,5.196876953125,0.0007471546996384859,-0.0009221036452800035,0.001046348363161087
1783246430775888000,5.206887939453125,0.0004133661277592182,-0.0008746772073209286,0.0007245782762765884
1783246430785900000,5.216900146484375,-0.0007115532644093037,-0.0002728027757257223,-0.0005121934227645397
1783246430795911200,5.2269111328125,-0.0006897521670907736,-0.0004095127806067467,-0.0004519037902355194
1783246430805923000,5.236923095703125,0.0002692521084100008,-0.00008620508015155792,-0.00003139069303870201
1783246430815934000,5.246933837890625,-0.0004896335303783417,-0.00019519776105880737,-0.000331374816596508
1783246430825946000,5.256946044921875,0.0010787020437419415,-0.00007881759665906429,-0.0000022081658244132996
1783246430835958000,5.2669580078125,-0.000372882466763258,-0.0006032558158040047,-0.001068765763193369
1783246430845969000,5.276968994140625,-0.00008419598452746868,-0.00029912288300693035,-0.0007641001138836145
1783246430855981000,5.28698095703125,0.0004026489332318306,0.000831341021694243,0.00029388582333922386
1783246430865992200,5.2969921875,0.0004729563370347023,-0.0002467066515237093,-0.0016241229604929686
1783246430876004000,5.307004150390625,-0.000825297087430954,-0.0002797169145196676,-0.000013154931366443634
1783246430886016300,5.317016357421875,0.0007579522207379341,0.0006212304579094052,0.0011716852895915508
1783246430896027100,5.327027099609375,0.0004797670990228653,0.00032395694870501757,0.0007007941603660583
1783246430906039000,5.3370390625,0.00011970777995884418,-0.00045794714242219925,-0.00006965827196836472
1783246430916050000,5.3470498046875,0.0008120657876133919,0.0004065734101459384,0.0002637868747115135
1783246430926062000,5.35706201171875,0.0006019424181431532,-0.0007417816668748856,0.0003013378009200096
1783246430936073000,5.367072998046875,0.0008716501761227846,-0.00015548639930784702,-0.0005955472588539124
1783246430946084900,5.3770849609375,0.0000665765255689621,0.0010618444066494703,-0.0005840957164764404
1783246430956097000,5.387096923828125,-0.0005094879306852818,-0.0014532934874296188,0.0015145158395171165
1783246430966108200,5.397108154296875,0.0014300922630354762,0.0006628544069826603,0.0007957285270094872
1783246430976120000,5.4071201171875,0.0005743496585637331,0.0006032587261870503,-0.000482301227748394
1783246430986131000,5.417130859375,-0.0003931766841560602,0.00021443725563585758,-0.0010255861561745405
1783246430996143000,5.42714306640625,-0.0012371586635708809,0.0005366922123357654,-0.0005013449117541313
1783246431006155000,5.437155029296875,-0.0014504780992865562,0.0012371035991236567,-0.000361529178917408
1783246431016166000,5.447165771484375,0.00012935372069478035,-0.00008949707262217999,0.0010749469511210918
1783246431026178000,5.457177978515625,0.0012907583732157946,-0.001021603588014841,0.00014150934293866158
1783246431036189200,5.467189208984375,0.000059446319937705994,-0.000388813903555274,0.0013377736322581768
1783246431046201000,5.477201171875,-0.00020926655270159245,-0.001438631908968091,0.00038809049874544144
1783246431056212000,5.4872119140625,-0.0004444355145096779,0.00036024022847414017,-0.0004152078181505203
1783246431066224000,5.49722412109375,-0.00039223767817020416,0.0005892721237614751,0.0011549917981028557
1783246431076236000,5.507236083984375,-0.00007606926374137402,-0.0005112630315124989,0.0011015171185135841
1783246431086247000,5.517246826171875,0.00036894483491778374,-0.000045209890231490135,-0.00036242278292775154
1783246431096259000,5.527259033203125,0.00039321440272033215,0.00009479932487010956,-0.0005386276170611382
1783246431106270000,5.53727001953125,-0.0003218443598598242,-0.000014922814443707466,-0.0020217420533299446
1783246431116282000,5.5472822265625,-0.0010465201921761036,0.0016836898867040873,0.0010313834063708782
1783246431126294000,5.5572939453125,0.0008014470804482698,0.0010053827427327633,-0.0004871510900557041
1783246431136305200,5.56730517578125,0.000825769966468215,-0.001466895453631878,-0.0011013366747647524
1783246431146317000,5.577317138671875,-0.00006665545515716076,0.0009078453294932842,0.00043317675590515137
1783246431156328000,5.587327880859375,-0.0003823470324277878,0.0002461062977090478,0.0010923356749117374
1783246431166340000,5.597340087890625,-0.002053480362519622,-0.00008066371083259583,0.00021562306210398674
1783246431176351000,5.60735107421875,-0.0009018154814839363,0.0004996287170797586,0.000855050515383482
1783246431186363000,5.61736279296875,-0.0003918199799954891,0.0009696765337139368,-0.00011700298637151718
1783246431196375000,5.627375,0.0005022264085710049,0.0006316062062978745,0.0014476594515144825
1783246431206386200,5.63738623046875,0.0011983767617493868,-0.0010677569080144167,0.0011909306049346924
1783246431216398000,5.647398193359375,0.0003096237778663635,-0.0004581622779369354,-0.0000690915621817112
1783246431226409000,5.657408935546875,0.0004885883536189795,0.00046808505430817604,0.0010989708825945854
1783246431236421000,5.667421142578125,-0.0003014977555721998,0.000643668812699616,-0.00022507458925247192
1783246431246433000,5.67743310546875,-0.0011076366063207388,-0.0006551549304276705,0.0003656144253909588
1783246431256444000,5.68744384765625,0.00029142736457288265,0.000055334297940135,0.00008272845298051834
1783246431266456000,5.6974560546875,0.0008554847445338964,-0.0016078099142760038,0.0002465127035975456
1783246431276467200,5.70746728515625,0.0004575976636260748,-0.0006340730469673872,0.0003994246944785118
1783246431286479000,5.71747900390625,0.0014650714583694935,-0.0003967855591326952,0.00009422656148672104
1783246431296490000,5.727489990234375,-0.0005397200584411621,0.00005000247620046139,0.0018204040825366974
1783246431306502100,5.737502197265625,0.00013698916882276535,-0.000059719663113355637,-0.00210536178201437
1783246431316514000,5.74751416015625,-0.0019630291499197483,-0.0005284405779093504,0.0008881040848791599
1783246431326525000,5.75752490234375,0.0010961440857499838,-0.0001659842673689127,0.0010960972867906094
1783246431336537000,5.767537109375,0.00005144556052982807,-0.000925868283957243,-0.0002889009192585945
1783246431346548000,5.7775478515625,-0.0005933057982474566,-0.00078045972622931,-0.0009285921696573496
1783246431356560000,5.787559814453125,-0.001045753713697195,0.00038539967499673367,0.00034107454121112823
1783246431366572000,5.797572021484375,0.0005817040801048279,0.000835740240290761,-0.000634707510471344
1783246431376583200,5.807583251953125,0.0003614185843616724,0.0005164248868823051,0.000550231896340847
1783246431386595000,5.817594970703125,-0.001100390451028943,-0.0008838651701807976,-0.000013292767107486725
1783246431396606000,5.82760595703125,0.00003513135015964508,-0.0007774326950311661,0.00011802464723587036
1783246431406618000,5.8376181640625,0.00020131259225308895,0.0002529443008825183,-0.0005592172965407372
1783246431416630000,5.847630126953125,0.001586414873600006,0.001042717369273305,-0.00048118922859430313
1783246431426641000,5.857640869140625,0.00003032991662621498,-0.0006688963621854782,0.0001350659877061844
1783246431436653000,5.867653076171875,0.0006151041015982628,-0.0004176422953605652,0.0008658426813781261
1783246431446664200,5.877664306640625,-0.00005361577495932579,0.0008199287112802267,-0.00011446652933955193
1783246431456676000,5.887676025390625,0.000047282781451940536,-0.0009260515216737986,0.0003925343044102192
1783246431466687000,5.89768701171875,-0.0007615191861987114,0.00005292636342346668,0.00031982967630028725
1783246431476699100,5.90769921875,0.00025501917116343975,-0.0009521492756903172,0.0008881790563464165
1783246431486711000,5.9177109375,-0.00040970579721033573,0.0004750386578962207,0.00017445161938667297
1783246431496722000,5.927721923828125,0.0016770551446825266,-0.0004987330175936222,0.00035139359533786774
1783246431506734000,5.937734130859375,0.000021634157747030258,-0.0003892772365361452,-0.0003729863092303276
1783246431516745200,5.9477451171875,0.0003900963347405195,-0.00006521469913423061,0.0009185713715851307
1783246431526757000,5.957757080078125,-0.0006139152683317661,0.000751576735638082,-0.00022339215502142906
1783246431536769000,5.96776904296875,-0.001112933037802577,0.00021807278972119093,-0.0009652036242187023
1783246431546780200,5.9777802734375,0.0005866964347660542,-0.0009800833649933338,0.0002779602073132992
1783246431556792000,5.9877919921875,0.0010504843667149544,-0.0007356519345194101,0.00015125004574656487
1783246431566803000,5.997802978515625,0.00008136010728776455,0.0007394729182124138,0.00002395128831267357
1783246431576815000,6.007815185546875,-0.0004968056455254555,0.0009047518251463771,-0.0005496582016348839
1783246431586826000,6.017825927734375,0.00014554872177541256,-0.0010643894784152508,0.00006979331374168396
1783246431596838000,6.027837890625,-0.0001512670423835516,0.0011329292319715023,-0.00016766414046287537
1783246431606850000,6.03785009765625,0.0001440776977688074,0.00018377858214080334,0.0007865461520850658
1783246431616861400,6.047861328125,0.0009484672918915749,0.0004079794744029641,-0.00012429989874362946
1783246431626873300,6.057873291015625,-0.0005887092556804419,-0.00039789313450455666,0.000004064291715621948
1783246431636884200,6.06788427734375,0.0008191203232854605,-0.00026546744629740715,-0.0004887646064162254
1783246431646896400,6.077896484375,-0.00022403988987207413,-0.000833253376185894,-0.00046266568824648857
1783246431656908300,6.087908203125,0.0013428307138383389,0.00132733304053545,0.00008559180423617363
1783246431666919200,6.097919189453125,-0.00008329213596880436,-0.000698799965903163,0.000825151801109314
1783246431676931000,6.10793115234375,0.0003542162012308836,-0.0005924419965595007,0.00018930574879050255
1783246431686942500,6.1179423828125,0.0003435635007917881,0.0010629788739606738,0.0007650814950466156
1783246431696954400,6.127954345703125,0.0008335933089256287,0.000003976514562964439,-0.00004835473373532295
1783246431706966300,6.13796630859375,-0.0018817656673491001,0.00025351473595947027,0.001618784386664629
1783246431716977400,6.147977294921875,0.0010354812256991863,-0.000066432636231184,0.00044032977893948555
1783246431726989300,6.1579892578125,-0.0005568226333707571,0.000210536178201437,0.0006973245181143284
1783246431737000200,6.168000244140625,-0.00031919125467538834,-0.0004130562301725149,-0.0012268188875168562
1783246431747012400,6.178012451171875,0.0006374160293489695,-0.0003779022954404354,0.00018252572044730186
1783246431757023200,6.188023193359375,-0.0000645944382995367,-0.0004294654354453087,-0.001135135069489479
1783246431767035100,6.19803515625,-0.0011357178445905447,-0.0008401249069720507,0.0011647706851363182
1783246431777047000,6.208047119140625,0.0005126143805682659,-0.0008088024333119392,-0.0011893841437995434
1783246431787058400,6.218058349609375,-0.0007744915783405304,0.00011877669021487236,-0.0004168008454144001
1783246431797070300,6.2280703125,-0.0005422031972557306,0.00028307538013905287,0.00011615781113505363
1783246431807081200,6.238081298828125,0.00003330595791339874,0.00005750567652285099,0.0003377324901521206
1783246431817093400,6.24809326171875,0.000807969830930233,-0.0008460280951112509,0.000983317382633686
1783246431827105300,6.258105224609375,0.0015288875438272953,0.0004818240413442254,0.0007356433197855949
1783246431837116200,6.2681162109375,0.0007021704223006964,-0.0007346177008002996,0.0009256787598133087
1783246431847128000,6.278128173828125,0.0001623476855456829,-0.0008984021842479706,-0.00007247412577271461
1783246431857139500,6.288139404296875,-0.0012442017905414104,0.00019035185687243938,-0.00012727966532111168
1783246431867151400,6.2981513671875,-0.0005531115457415581,0.0019240697147324681,0.0006221341900527477
1783246431877162200,6.308162353515625,0.00024847243912518024,-0.0003659818321466446,0.00041151978075504303
1783246431887174400,6.31817431640625,0.00022370507940649986,0.0007557416101917624,-0.0006185907404869795
1783246431897186300,6.328186279296875,0.001125585287809372,-0.00041875429451465607,-0.0007945394609123468
1783246431907197200,6.338197265625,-0.0009383647702634335,0.0013826078502461314,0.0010773963294923306
1783246431917209000,6.348208984375,0.0006407401524484158,-0.00032560969702899456,0.0003311214968562126
1783246431927220200,6.35822021484375,0.00035098823718726635,-0.0013527909759432077,-0.00014478527009487152
1783246431937232100,6.368232177734375,0.00023914920166134834,-0.000039972132071852684,-0.0003840280696749687
1783246431947244300,6.378244384765625,0.00041704834438860416,-0.0005291949491947889,-0.000038349535316228867
1783246431957255400,6.38825537109375,-0.00008566002361476421,-0.0006530468817800283,-0.0015389316249638796
1783246431967267300,6.398267333984375,-0.000528011005371809,0.001798925455659628,-0.0010007068049162626
1783246431977278200,6.4082783203125,0.0001664562150835991,-0.0009984758216887712,0.00037747854366898537
1783246431987290000,6.4182900390625,-0.001051407540217042,-0.001294619170948863,-0.0006318595260381699
1783246431997301200,6.42830126953125,-0.0015049765352159739,0.00003359653055667877,-0.00028231553733348846
1783246432007313200,6.438313232421875,-0.00023997505195438862,-0.001385335810482502,-0.00015315227210521698
1783246432017325000,6.448324951171875,0.0006358788814395666,-0.0009743389673531055,0.00038084806874394417
1783246432027336400,6.45833642578125,-0.0003199297934770584,0.00019478879403322935,0.001553704496473074
1783246432037348400,6.468348388671875,0.0004220271948724985,0.0008506184676662087,0.00035089021548628807
1783246432047359200,6.478359130859375,-0.0005684024654328823,0.0006175918970257044,0.0015280074439942837
1783246432057371400,6.488371337890625,-0.00027292571030557156,-0.00048132147639989853,-0.0007127232383936644
1783246432067383300,6.49838330078125,-0.0001618717797100544,0.00029738678131252527,0.0016455058939754963
1783246432077394200,6.508394287109375,0.0008636480197310448,-0.0007271156646311283,-0.0008939625695347786
1783246432087406000,6.518406005859375,0.0011637862771749496,-0.0006456228438764811,-0.00044735055416822433
1783246432097417500,6.52841748046875,-0.0010439446195960045,0.0006145822117105126,0.000833708792924881
1783246432107429400,6.538429443359375,0.00017711473628878593,-0.00013749441131949425,-0.0011005452834069729
1783246432117441300,6.548441162109375,-0.0008808709681034088,0.0005700208712369204,-0.0005207359790802002
1783246432127452400,6.558452392578125,0.0007630984764546156,-0.000817486084997654,0.0008068499155342579
1783246432137464300,6.56846435546875,0.00015750620514154434,-0.00010500149801373482,0.00042109983041882515
1783246432147475200,6.57847509765625,-0.0005421063397079706,0.0009810356423258781,0.0007414780557155609
1783246432157487000,6.588487060546875,-0.0009381731506437063,-0.0009687745478004217,-0.0007624325808137655
1783246432167498200,6.598498291015625,0.0003148443065583706,-0.0010092547163367271,-0.0005999798886477947
1783246432177510100,6.60851025390625,-0.0005598005373030901,0.00017903756815940142,-0.0003040395677089691
1783246432187522000,6.61852197265625,0.0005020019598305225,0.0012152735143899918,-0.0011655723210424185
1783246432197533400,6.628533447265625,0.00039689429104328156,-0.0004141393583267927,0.00046850647777318954
1783246432207545300,6.63854541015625,0.0011010339949280024,0.0009861508151516318,-0.000409537460654974
1783246432217556200,6.64855615234375,0.0014918185770511627,-0.00034761661663651466,0.0001835138536989689
1783246432227568000,6.658568115234375,0.0008292240090668201,-0.0012352480553090572,-0.00009505264461040497
1783246432237580300,6.668580322265625,0.00039892527274787426,-0.00010279892012476921,-0.0012572500854730606
1783246432247591200,6.678591064453125,0.0016870961990207434,0.0003672490129247308,-0.0001565655693411827
1783246432257603000,6.68860302734375,0.0005816298071295023,-0.0006202273070812225,0.00017921533435583115
1783246432267614500,6.698614501953125,-0.00007377425208687782,0.00014463253319263458,0.0005669714882969856
1783246432277626400,6.70862646484375,0.0018542655743658543,-0.00043443962931632996,-0.0003414335660636425
1783246432287638300,6.71863818359375,-0.00014816527254879475,0.0002609117655083537,0.00037415744736790657
1783246432297649200,6.728649169921875,0.00006826641038060188,0.0008700612233951688,-0.0008985553868114948
1783246432307661300,6.738661376953125,-0.0002680907491594553,0.0005033438792452216,0.0003664460964500904
1783246432317672200,6.748672119140625,0.00010953843593597412,0.000705524580553174,0.0009633218869566917
1783246432327684000,6.75868408203125,0.00037239259108901024,0.000322029460221529,-0.0006468254141509533
1783246432337695500,6.768695556640625,0.0005610908847302198,-0.0006104991771280766,-0.000023358501493930817
1783246432347707400,6.778707275390625,-0.00006688246503472328,0.00029950286261737347,-0.0015325720887631178
1783246432357719300,6.78871923828125,0.00013885949738323689,-0.0007642989512532949,-0.0003294041380286217
1783246432367730200,6.798730224609375,0.00005204044282436371,-0.0005714860744774342,0.00021334830671548843
1783246432377742300,6.808742431640625,-0.0006137148011475801,-0.0008004836272448301,0.000029691960662603378
1783246432387753200,6.818753173828125,-0.00017775525338947773,-0.0004324347246438265,-0.0016217343509197235
1783246432397765000,6.82876513671875,0.0005425284616649151,-0.0009989242535084486,0.001084943301975727
1783246432407777300,6.83877734375,0.00024345563724637032,-0.00020130746997892857,0.0006583048962056637
1783246432417788200,6.8487880859375,-0.00030591548420488834,0.00015688117127865553,0.00008312985301017761
1783246432427800000,6.858800048828125,-0.00013707089237868786,-0.0006537851877510548,-0.0007453795988112688
1783246432437811500,6.8688115234375,-0.0002487229648977518,-0.0011617513373494148,-0.0010083350352942944
1783246432447823400,6.8788232421875,-0.00103542092256248,-0.000737243564799428,-0.001334572210907936
1783246432457834200,6.888834228515625,0.0014466907596215606,-0.0003165658563375473,-0.0003424813039600849
1783246432467846100,6.89884619140625,0.0008520069532096386,0.00039769394788891077,-0.0006841649301350117
1783246432477858300,6.9088583984375,-0.0006905982736498117,-0.0006154931616038084,0.0009657144546508789
1783246432487869200,6.918869140625,0.0014111684868112206,-0.0011550495401024818,-0.00023137638345360756
1783246432497881000,6.928881103515625,0.001184210181236267,0.0007431028643622994,0.00036398833617568016
1783246432507892500,6.938892578125,-0.0006722793914377689,0.00017664849292486906,0.0006036730483174324
1783246432517904400,6.948904296875,-0.00037219864316284657,-0.00037166872061789036,-0.000015677884221076965
1783246432527916300,6.958916259765625,-0.0013631610199809074,0.000045116059482097626,-0.0009099673479795456
1783246432537927200,6.96892724609375,-0.00010566366836428642,-0.0003171372227370739,-0.001419631065800786
1783246432547939300,6.978939208984375,-0.0018500343430787325,0.04651401564478874,0.01565415970981121
1783246432557950200,6.9889501953125,0.00025090156123042107,0.0014865593984723091,-0.0007788082584738731
1783246432567962000,6.998962158203125,0.00239607784897089,-0.01677367091178894,-0.00017080875113606453
1783246432577974300,7.008974365234375,-0.0018583070486783981,0.04700402170419693,0.01309912372380495
1783246432587985200,7.018985107421875,-0.0013115601614117622,0.027238572016358376,0.008236458525061607
1783246432597997300,7.028997314453125,-0.00001284060999751091,-0.0035714840050786734,0.0013090441934764385
1783246432608008200,7.03900830078125,0.0008577466942369938,0.006864112801849842,0.0001367209479212761
1783246432618020000,7.04902001953125,-0.0002723198849707842,0.001604661694727838,0.0006631603464484215
1783246432628031000,7.059031005859375,-0.00023956294171512127,-0.0054737539030611515,-0.0020034629851579666
1783246432638043100,7.069043212890625,0.0002323377411812544,-0.0053720660507678986,-0.003408745862543583
1783246432648055000,7.079054931640625,0.0022456874139606953,-0.011620374396443367,-0.006692689843475819
1783246432658066000,7.08906591796875,0.0012764944694936275,-0.027219455689191818,-0.009771367534995079
1783246432668078000,7.099078125,0.002760674338787794,-0.020110679790377617,-0.008501572534441948
1783246432678089200,7.109089111328125,0.000576515682041645,-0.028576932847499847,-0.005376284942030907
1783246432688101000,7.11910107421875,0.0020804028026759624,-0.007353668101131916,-0.0020228326320648193
