time,seconds_elapsed,z,y,x
1783246360216612900,0.05461279296875,0.0007179114036262035,-0.0004980163648724556,0.0005143857561051846
1783246360226625000,0.064625,0.0003032572567462921,-0.0025438566226512194,0.0008435524068772793
1783246360236636000,0.074635986328125,0.0006998318713158369,0.0007242923602461815,-0.0002599162980914116
1783246360246647800,0.084647705078125,0.0008566919714212418,0.00030777405481785536,0.0010157376527786255
1783246360256659000,0.094658935546875,-0.0004650484770536423,-0.001050313701853156,-0.0007996885105967522
1783246360266670800,0.1046708984375,-0.00024187564849853516,-0.0013698930852115154,0.0014168601483106613
1783246360276682800,0.114682861328125,-0.0005626825150102377,-0.00024534016847610474,0.0006776293739676476
1783246360286694100,0.124694091796875,-0.00024629896506667137,-0.00009274098556488752,-0.000946366460993886
1783246360296706000,0.1347060546875,-0.0009671482257544994,-0.0005920650437474251,0.0009223753586411476
1783246360306717000,0.144717041015625,-0.0003636761102825403,-0.0013169774319976568,0.00033115362748503685
1783246360316728800,0.154728759765625,0.00016273674555122852,-0.00024597765877842903,0.0002857488580048084
1783246360326741000,0.164740966796875,-0.0014442144893109798,0.00038545788265764713,-0.00003090081736445427
1783246360336751900,0.174751953125,0.0005320929922163486,-0.0001214868389070034,-0.00017157243564724922
1783246360346763800,0.184763671875,0.0008167847990989685,-0.0002993859816342592,0.0005498775281012058
1783246360356775200,0.194775146484375,-0.0006879281718283892,-0.0007631846237927675,-0.00144621217623353
1783246360366787000,0.204787109375,-0.0007089672144502401,0.001347636803984642,0.0011855238117277622
1783246360376799000,0.214799072265625,0.00012944824993610382,-0.00017452449537813663,-0.0005334229208528996
1783246360386809900,0.224809814453125,-0.00003966246731579304,-0.0009795981459319592,0.0007709930650889874
1783246360396822000,0.234822021484375,0.0006033831741660833,-0.00024380767717957497,-0.0008825729601085186
1783246360406833000,0.2448330078125,-0.00009063654579222202,0.0003072003601118922,-0.0011318447068333626
1783246360416844800,0.2548447265625,0.0019671465270221233,0.0002416251227259636,0.0005145887844264507
1783246360426857000,0.26485693359375,0.0005330343265086412,-0.0010241754353046417,-0.00028569111600518227
1783246360436867800,0.274867919921875,0.0012557196896523237,-0.0004655672237277031,0.0003267046995460987
1783246360446879700,0.284879638671875,0.0015910116489976645,-0.00006502773612737656,0.00024680979549884796
1783246360456891000,0.294890869140625,0.0009519499726593494,-0.00045475014485418797,0.0010034739971160889
1783246360466903000,0.304903076171875,0.00031039444729685783,0.00010984006803482771,-0.0003808368928730488
1783246360476915000,0.3149150390625,0.0014783451333642006,0.0004458501935005188,-0.0005932934582233429
1783246360486925800,0.32492578125,-0.0011246285866945982,0.001335345907136798,-0.00036985427141189575
1783246360496938000,0.33493798828125,0.0012694787001237273,-0.0003413129597902298,-0.00022724783048033714
1783246360506948900,0.344948974609375,-0.0005513245705515146,-0.0012651635333895683,-0.0009630792774260044
1783246360516960800,0.354960693359375,-0.00026344903744757175,0.001573533401824534,-0.0005291714332997799
1783246360526973000,0.364972900390625,-0.0005220419261604548,0.0009426305769011378,0.00009720399975776672
1783246360536984000,0.374984130859375,0.001510518486611545,-0.0008289816323667765,0.0013379594311118126
1783246360546996000,0.384995849609375,0.000016218749806284904,-0.0004782432224601507,0.0003017233684659004
1783246360557006800,0.3950068359375,-0.00005438970401883125,0.0013959846692159772,0.0013088001869618893
1783246360567019000,0.40501904296875,0.0007823754567652941,-0.0009641086217015982,-0.00022411532700061798
1783246360577030000,0.41502978515625,-0.0016501119825989008,-0.0018527049105614424,0.0006805821321904659
1783246360587041800,0.425041748046875,0.0005696325097233057,0.0009912848472595215,0.0004371693357825279
1783246360597054000,0.435053955078125,0.00041473936289548874,0.001495850970968604,0.00016318680718541145
1783246360607065000,0.445065185546875,-0.0007748948410153389,-0.0011044596321880817,-0.00005359482020139694
1783246360617077000,0.455076904296875,0.0002466163132339716,-0.0001139672240242362,0.0015413900837302208
1783246360627088000,0.465087890625,0.0002426214050501585,0.0001273151719942689,0.0006689382717013359
1783246360637100000,0.47510009765625,0.00009218673221766949,0.0012681306106969714,-0.00027890224009752274
1783246360647112000,0.48511181640625,0.00013053626753389835,-0.0007880961056798697,-0.0007028775289654732
1783246360657122800,0.495122802734375,-0.0002637007273733616,-0.0004425821825861931,0.0006510154344141483
1783246360667135000,0.505135009765625,0.00008437433280050755,0.0007270780624821782,0.00006325589492917061
1783246360677145900,0.515145751953125,0.0011033911723643541,0.0012218335177749395,-0.0013309221249073744
1783246360687157800,0.52515771484375,0.0002794091124087572,0.00001994892954826355,-0.00007417658343911171
1783246360697170000,0.535169921875,0.000277860090136528,-0.0004697446711361408,-0.00031765643507242203
1783246360707181000,0.54518115234375,0.0007138196378946304,0.000309229944832623,0.00042456667870283127
1783246360717193000,0.55519287109375,0.000416802242398262,0.0008855171035975218,-0.0007984633557498455
1783246360727203800,0.565203857421875,-0.0009142458438873291,-0.0008463365957140923,-0.00007062125951051712
1783246360737216000,0.575216064453125,0.0002464321441948414,-0.00010109879076480865,-0.0011479926761239767
1783246360747228000,0.585227783203125,-0.00035357801243662834,0.00043073459528386593,0.001494129654020071
1783246360757238800,0.59523876953125,-0.0005573737435042858,0.0004742672899737954,0.00025515956804156303
1783246360767251000,0.6052509765625,-0.00042528100311756134,-0.0005214887205511332,0.0011451882310211658
1783246360777262000,0.615261962890625,0.0013063285732641816,0.00048534595407545567,0.001028875820338726
1783246360787274000,0.62527392578125,0.0006674362812191248,-0.0005719290347769856,0.00032233912497758865
1783246360797286100,0.6352861328125,-0.00034532998688519,0.000463946838863194,-0.00022762548178434372
1783246360807297000,0.645297119140625,-0.000801529735326767,-0.0005970565835013986,-0.00019753165543079376
1783246360817309000,0.655308837890625,0.0005007067229598761,0.0003367052413523197,-0.0003622099757194519
1783246360827319800,0.66531982421875,0.0010889992117881775,0.0008086173329502344,-0.0008122844155877829
1783246360837332000,0.67533203125,0.0009369975887238979,0.00001706741750240326,0.0013720882125198841
1783246360847343900,0.68534375,-0.000824683578684926,-0.00006069685332477093,0.0010035065934062004
1783246360857354800,0.695354736328125,-0.0010319435968995094,-0.00044461723882704973,-0.0009931770619004965
1783246360867367000,0.705366943359375,0.0005912529304623604,-0.0007418260211125016,0.0008028587326407433
1783246360877378000,0.7153779296875,-0.0007303999736905098,0.00034345185849815607,-0.00024007214233279228
1783246360887390000,0.725389892578125,0.0006144964136183262,-0.0003343228017911315,0.0007293182425200939
1783246360897400800,0.73540087890625,0.00002852478064596653,0.0005494869546964765,-0.0004448695108294487
1783246360907413000,0.7454130859375,-0.0006561737973242998,-0.0006270976737141609,-0.0004896107129752636
1783246360917425000,0.7554248046875,-0.0014897766523063183,0.000713190296664834,0.0014413893222808838
1783246360927435800,0.765435791015625,-0.0009954939596354961,-0.001232248730957508,-0.0009503958281129599
1783246360937448000,0.775447998046875,0.0005140067078173161,-0.0002194211119785905,0.0005411379970610142
1783246360947459000,0.785458984375,-0.00045138923451304436,0.0010176172945648432,-0.0008916424121707678
1783246360957471000,0.795470947265625,-0.0007256453391164541,-0.00004305096808820963,-0.0019432033877819777
1783246360967483100,0.805483154296875,0.00007889559492468834,0.0006650836439803243,-0.0005370546132326126
1783246360977494000,0.815493896484375,-0.0011784934904426336,0.0023906093556433916,-0.00020751822739839554
1783246360987506000,0.825505859375,-0.0012663777451962233,-0.0002469854662194848,0.0010929033160209656
1783246360997516800,0.835516845703125,0.0002678690943866968,-0.0006680269725620747,0.00039667030796408653
1783246361007529000,0.845529052734375,-0.00020191236399114132,0.0004475711612030864,-0.0004235832020640373
1783246361017540900,0.855540771484375,-0.00008416920900344849,0.00033836765214800835,0.0005296464078128338
1783246361027552000,0.865552001953125,0.00006257114000618458,0.00003769679460674524,-0.000621904619038105
1783246361037564200,0.875564208984375,-0.001844034530222416,-0.0007882246281951666,-0.002121921628713608
1783246361047575000,0.885574951171875,0.0001844954676926136,-0.0010470838751643896,-0.00005823792889714241
1783246361057587000,0.8955869140625,-0.00009505264461040497,-0.000003650202415883541,0.0007628854364156723
1783246361067598800,0.905598876953125,-0.00007587810978293419,-0.00045212649274617434,0.0009218761697411537
1783246361077610000,0.91560986328125,-0.000043702078983187675,0.00009679852519184351,-0.00035088183358311653
1783246361087622000,0.925621826171875,-0.00007779058068990707,-0.00027604401111602783,0.00018787570297718048
1783246361097632800,0.9356328125,0.0008778201881796122,-0.0006303420523181558,-0.00039014173671603203
1783246361107645000,0.94564501953125,0.00020989938639104366,0.00012120208702981472,-0.0002319500781595707
1783246361117656800,0.95565673828125,-0.00016329530626535416,0.00019231683108955622,0.0005524260923266411
1783246361127668000,0.96566796875,0.001048443140462041,0.0004767423961311579,0.00010874355211853981
1783246361137680000,0.975679931640625,-0.000698757590726018,-0.0008240158203989267,0.0010044416412711143
1783246361147691000,0.98569091796875,0.0013702523428946733,0.000044174608774483204,-0.0005252780392765999
1783246361157703000,0.995702880859375,-0.0011055341456085443,0.0013403361663222313,-0.00020793359726667404
1783246361167714800,1.00571484375,0.0004444257356226444,-0.001359043875709176,0.0012999484315514565
1783246361177726000,1.015725830078125,0.0017837753985077143,0.0006773163331672549,-0.000822190660983324
1783246361187737900,1.02573779296875,0.0004436727613210678,-0.0004428091924637556,-0.000551347155123949
1783246361197749000,1.0357490234375,-0.0005013453774154186,0.0010507003171369433,0.0004600556567311287
1783246361207761200,1.04576123046875,0.00079188565723598,0.0008722685743123293,-0.00041505927219986916
1783246361217772000,1.05577197265625,-0.0002077107783406973,-0.00021763425320386887,-0.0018038894049823284
1783246361227784000,1.065783935546875,0.00023384136147797108,-0.00046051456592977047,-0.0001990683376789093
1783246361237795800,1.0757958984375,-0.0003477586433291435,-0.0017725068610161543,-0.0003058020956814289
1783246361247807000,1.085806884765625,0.0012120547471567988,-0.00009418278932571411,0.001245755236595869
1783246361257819000,1.09581884765625,0.0008098951075226068,-0.000027062837034463882,0.0004958203062415123
1783246361267830000,1.105830078125,-0.0003523083869367838,-0.0007431867998093367,0.00048623280599713326
1783246361277842000,1.115842041015625,0.001183614251203835,0.0000021508894860744476,0.00010084174573421478
1783246361287854000,1.12585400390625,0.0010544508695602417,-0.0006599109619855881,0.0006936616264283657
1783246361297865000,1.135864990234375,0.0005230729002505541,-0.000043109292164444923,-0.0016168218571692705
1783246361307876900,1.145876953125,0.0002927095629274845,-0.0004726771730929613,0.0009520631283521652
1783246361317888000,1.155887939453125,0.000298517057672143,0.000014886143617331982,-0.0012907839845865965
1783246361327900000,1.16589990234375,-0.00016540568321943283,0.000666561652906239,-0.0008028929587453604
1783246361337911800,1.175911865234375,0.0007809351664036512,-0.00023620971478521824,0.00001577194780111313
1783246361347923000,1.1859228515625,-0.0007751497905701399,0.0015768702141940594,-0.0004393626004457474
1783246361357934800,1.195934814453125,-0.001221993239596486,-0.000048312125727534294,-0.0011341264471411705
1783246361367946000,1.205946044921875,-0.0011045478750020266,-0.00012128264643251896,0.0005356757901608944
1783246361377958000,1.2159580078125,-0.00021146261133253574,0.00012217811308801174,0.00022350437939167023
1783246361387970000,1.225969970703125,0.0007645860314369202,-0.0009891591034829617,-0.001410078490152955
1783246361397981000,1.23598095703125,0.0006485625635832548,0.00040650845039635897,-0.000874814810231328
1783246361407992800,1.245992919921875,0.0006424372550100088,0.00018972705584019423,-0.00046735117211937904
1783246361418004000,1.25600390625,0.0001581923570483923,-0.00015289662405848503,0.0016606636345386505
1783246361428015900,1.266015869140625,0.0009347700979560614,0.0011086426675319672,-0.00024695880711078644
1783246361438027800,1.27602783203125,0.000013099750503897667,0.00014812045264989138,-0.0017391291912645102
1783246361448039000,1.286038818359375,0.0012149843387305737,-0.00029502948746085167,-0.0003929012455046177
1783246361458051000,1.296051025390625,0.0013343632454052567,-0.0012658827472478151,0.0010701441206037998
1783246361468062000,1.30606201171875,-0.0017716814763844013,-0.000239234184846282,-0.00017168791964650154
1783246361478073900,1.316073974609375,0.0011366496328264475,-0.0009593793656677008,-0.0013907293323427439
1783246361488085000,1.3260849609375,0.002244524657726288,-0.0004347367212176323,0.00011315755546092987
1783246361498097000,1.336096923828125,-0.0014396659098565578,-0.00034787249751389027,-0.0002473299391567707
1783246361508108800,1.34610888671875,-0.0007275366224348545,0.0005107305478304625,-0.001004200428724289
1783246361518120000,1.356119873046875,0.00020809215493500233,0.00019588542636483908,0.0003460529260337353
1783246361528131800,1.3661318359375,0.00022433744743466377,-0.0007338239811360836,0.00015217484906315804
1783246361538142200,1.37614208984375,0.0001601097173988819,0.0006235787877812982,-0.0006774226203560829
1783246361548154000,1.386154052734375,0.0005662417970597744,0.0013711281353607774,0.0006962362676858902
1783246361558166000,1.396166015625,0.00012280791997909546,0.00010544969700276852,-0.00047034816816449165
1783246361568177000,1.406177001953125,-0.0010985180269926786,-0.0008596798870712519,-0.000887399073690176
1783246361578189000,1.41618896484375,0.000020953593775629997,0.000027061905711889267,0.00034203194081783295
1783246361588200200,1.4262001953125,0.00044998875819146633,0.0003596906317397952,0.0003891699016094208
1783246361598212000,1.436212158203125,0.00020202947780489922,0.00058450095821172,-0.000630608294159174
1783246361608224300,1.446224365234375,-0.001048058271408081,-0.00035958969965577126,-0.000048974063247442245
1783246361618235100,1.456235107421875,-0.0001675705425441265,-0.000870459945872426,-0.0006046313792467117
1783246361628247000,1.4662470703125,0.0007192622870206833,0.0009231790900230408,-0.0006019682623445988
1783246361638258200,1.476258056640625,-0.00033477088436484337,-0.0005291688721626997,-0.001373831881210208
1783246361648270000,1.48627001953125,-0.0007209291215986013,0.00018296041525900364,-0.000690198503434658
1783246361658282000,1.496281982421875,-0.0003038805443793535,-0.0006917181890457869,-0.00034476490691304207
1783246361668293000,1.506293212890625,0.0011067958548665047,-0.0006682821549475193,-0.0014592979568988085
1783246361678305000,1.516304931640625,-0.0021488498896360397,-0.0003134703729301691,0.00028975680470466614
1783246361688316200,1.526316162109375,0.00014413194730877876,0.0013203788548707962,0.000842629000544548
1783246361698328000,1.536328125,-0.0002389904111623764,-0.000653065973892808,-0.0003306269645690918
1783246361708340200,1.54634033203125,-0.0012653726153075695,-0.0007225745357573032,0.0003769751638174057
1783246361718351000,1.55635107421875,-0.0004901066422462463,-0.0012837357353419065,0.0014284965582191944
1783246361728363000,1.566363037109375,0.00022575119510293007,-0.0007194119971245527,0.00014591822400689125
1783246361738374000,1.576373779296875,0.00004730303771793842,0.0006937539437785745,-0.00031464360654354095
1783246361748386000,1.586385986328125,0.00031841290183365345,0.000266582821495831,0.00006325915455818176
1783246361758397200,1.596397216796875,-0.0008756418246775866,0.00014358130283653736,0.0005504386499524117
1783246361768409000,1.6064091796875,-0.00011637457646429539,0.0009198928019031882,-0.0010818128939718008
1783246361778421200,1.616421142578125,0.0011142892763018608,0.000447432859800756,0.0003738938830792904
1783246361788432100,1.62643212890625,-0.0008798856288194656,0.0007241351995617151,0.0000817454420030117
1783246361798444000,1.636444091796875,0.0016395767452195287,0.000029133399948477745,0.0008561336435377598
1783246361808455000,1.646454833984375,0.0010060106869786978,-0.0023948755115270615,-0.0001577315852046013
1783246361818467000,1.656467041015625,-0.0008004812989383936,-0.00046828645281493664,-0.0002038641832768917
1783246361828479000,1.66647900390625,-0.0008388308342546225,-0.000933807110413909,0.000660597812384367
1783246361838490000,1.676489990234375,-0.0002350404392927885,-0.0006556212902069092,0.0001705596223473549
1783246361848502300,1.686502197265625,-0.0014507733285427094,-0.0008998331613838673,0.0012291660532355309
1783246361858513200,1.69651318359375,-0.0008953826036304235,-0.0008492388296872377,0.0004626810550689697
1783246361868525000,1.706525146484375,0.0004801400937139988,0.00046822684817016125,0.0011231452226638794
1783246361878537200,1.716537109375,0.0010716791730374098,-0.00015531457029283047,-0.001175649929791689
1783246361888548000,1.726548095703125,-0.0011744308285415173,-0.0007436068262904882,0.0002701804041862488
1783246361898560000,1.73656005859375,-0.000027586473152041435,-0.00008270982652902603,0.00029568932950496674
1783246361908571000,1.74657080078125,-0.0014968523755669594,0.0003631033468991518,0.0003787800669670105
1783246361918583000,1.7565830078125,-0.0016337456181645393,-0.0012430904898792505,0.0014840704388916492
1783246361928595000,1.766594970703125,0.0006373981013894081,0.0004639957332983613,0.000976738054305315
1783246361938606000,1.776606201171875,0.00001572398468852043,0.0006171653512865305,-0.0005290969274938107
1783246361948618200,1.7866181640625,0.000951825175434351,0.001725839334540069,-0.00024067657068371773
1783246361958629000,1.796629150390625,0.0008683702908456326,-0.0001529850997030735,0.0011628824286162853
1783246361968641000,1.80664111328125,-0.0007843873463571072,0.0005468936869874597,-0.0007886819075793028
1783246361978652000,1.81665185546875,0.00024165678769350052,-0.000712020555511117,-0.0005651242099702358
1783246361988664000,1.8266640625,0.0003444547764956951,-0.0004582214169204235,0.002465286757797003
1783246361998676000,1.836676025390625,0.00040059536695480347,-0.0002406383864581585,0.0010045450180768967
1783246362008687000,1.84668701171875,-0.0007613417692482471,-0.0014824704267084599,0.0009696576744318008
1783246362018699300,1.85669921875,0.0005832270253449678,-0.0004958498757332563,0.0015801060944795609
1783246362028710100,1.866710205078125,-0.0005819059442728758,0.00006527814548462629,-0.0007797207217663527
1783246362038722000,1.87672216796875,-0.0011713772546499968,0.001251070061698556,-0.0006196806207299232
1783246362048734200,1.886734130859375,-0.0003860113210976124,0.00010990549344569445,-0.0010721518192440271
1783246362058745000,1.8967451171875,0.00020552705973386765,-0.001193066593259573,-0.0008939520921558142
1783246362068757000,1.906757080078125,0.00033415784128010273,-0.0006276774220168591,-0.00002576177939772606
1783246362078768000,1.91676806640625,0.00004634563811123371,0.0013430810067802668,0.00024254340678453445
1783246362088780300,1.9267802734375,-0.0006367552559822798,0.0001244185259565711,-0.0008717230521142483
1783246362098792200,1.936792236328125,-0.0009968949016183615,0.0004354434786364436,0.00010898848995566368
1783246362108803000,1.946802978515625,-0.0009052820969372988,0.0007789912633597851,-0.00005053449422121048
1783246362118815200,1.956815185546875,0.0008741163183003664,-0.0009360022377222776,0.0024741822853684425
1783246362128826000,1.966826171875,-0.0015110108070075512,0.0006405891617760062,0.0007694927044212818
1783246362138838000,1.976838134765625,-0.0001632834319025278,0.0004860851913690567,0.00021831877529621124
1783246362148850200,1.98685009765625,0.00047188042663037777,-0.0013376474380493164,-0.0003574565052986145
1783246362158861000,1.996861083984375,-0.0018047827761620283,-0.00037255557253956795,-0.001131599536165595
1783246362168873000,2.006873046875,0.001006716163828969,0.0012232104782015085,-0.00022958684712648392
1783246362178884000,2.016884033203125,-0.0001185205765068531,0.00001071183942258358,0.0003565829247236252
1783246362188896300,2.026896240234375,0.0002551209181547165,-0.0013751972001045942,0.0001704278402030468
1783246362198907100,2.0369072265625,-0.0010574387852102518,0.001282058423385024,-0.00019453838467597961
1783246362208919000,2.0469189453125,0.0008781463839113712,0.0013518333435058594,-0.00024061137810349464
1783246362218931200,2.05693115234375,0.0001407340168952942,0.00048579752910882235,-0.0006747692823410034
1783246362228942000,2.066942138671875,0.0008275634609162807,-0.000714489258825779,0.00033084070309996605
1783246362238954000,2.0769541015625,-0.001258636824786663,-0.00003495696000754833,-0.00034608785063028336
1783246362248965000,2.086965087890625,0.00016002915799617767,0.0008276409935206175,-0.000001741107553243637
1783246362258977300,2.096977294921875,0.0004780162125825882,-0.000739548821002245,0.0003208024427294731
1783246362268989200,2.1069892578125,0.0006308816373348236,0.0006484906189143658,-0.0005351374857127666
1783246362279000000,2.117,0.00037456839345395565,0.00021559034939855337,-0.00024110032245516777
1783246362289012200,2.12701220703125,-0.0014899105299264193,0.0009602102218195796,0.000639340840280056
1783246362299023000,2.137023193359375,-0.00035003270022571087,-0.000300639308989048,-0.0012142660561949015
1783246362309035000,2.147034912109375,0.0007919305935502052,0.0021337561774998903,0.0003165188245475292
1783246362319047200,2.157047119140625,-0.0014035268686711788,0.0006118827732279897,0.0003885822370648384
1783246362329058000,2.16705810546875,0.0006500366143882275,0.0006414437666535378,-0.0002489783801138401
1783246362339070200,2.1770703125,-0.0002749266568571329,0.0007339869625866413,-0.00030523305758833885
1783246362349081000,2.1870810546875,0.0007549177389591932,-0.0014055967330932617,-0.0005113617517054081
1783246362359093200,2.19709326171875,-0.0004540383815765381,0.0005941709969192743,0.0002530831843614578
1783246362369105200,2.207105224609375,0.0005728765390813351,0.0009089566301554441,-0.00010804133489727974
1783246362379116000,2.217115966796875,-0.0006370495539158583,-0.000989008927717805,0.000753362663090229
1783246362389128200,2.227128173828125,-0.0001302498858422041,-0.0005455927457660437,-0.00041443342342972755
1783246362399139000,2.23713916015625,-0.00015194457955658436,0.0013796344865113497,0.00010610464960336685
1783246362409151000,2.24715087890625,0.00006377161480486393,-0.00036926334723830223,-0.00008351216092705727
1783246362419163000,2.257162841796875,0.0004023611545562744,-0.0016476858872920275,-0.00027871644124388695
1783246362429174300,2.26717431640625,0.00043298746459186077,0.00048257666639983654,0.00034446315839886665
1783246362439186200,2.277186279296875,-0.0019190318416804075,-0.00019303243607282639,-0.0006695403717458248
1783246362449197000,2.287197021484375,0.001434686710126698,0.00026369967963546515,-0.00006287265568971634
1783246362459209200,2.297209228515625,0.0007029201369732618,-0.00045411335304379463,0.0004330524243414402
1783246362469220000,2.30722021484375,-0.0013746118638664484,-0.0015766357537359,0.0009369226172566414
1783246362479232000,2.31723193359375,0.0008596137631684542,0.00009067018982023001,0.0003446820192039013
1783246362489244000,2.327243896484375,-0.0006325552240014076,0.0008898847736418247,-0.0001317574642598629
1783246362499255300,2.33725537109375,-0.00035356637090444565,0.001542411744594574,0.0008523971773684025
1783246362509267200,2.34726708984375,0.002007592236623168,-0.0005857201758772135,-0.0007705334573984146
1783246362519278000,2.357278076171875,-0.0005945868324488401,0.000008332077413797379,0.0005571609362959862
1783246362529290200,2.367290283203125,0.00035935756750404835,-0.0008100571576505899,-0.000014353543519973755
1783246362539303000,2.377302978515625,-0.0008710944093763828,-0.0001811946276575327,0.0010330402292311192
1783246362549313800,2.387313720703125,-0.0009179664775729179,-0.0006701508536934853,0.00016325199976563454
1783246362559325700,2.39732568359375,0.0007086505647748709,0.0009943227050825953,0.00007520942017436028
1783246362569336600,2.407336669921875,-0.0005462309345602989,-0.0011615061666816473,-0.00027339812368154526
1783246362579348700,2.4173486328125,0.0014294234570115805,-0.0009541900362819433,-0.0005666068755090237
1783246362589360600,2.427360595703125,0.0007702910806983709,0.0001843112986534834,0.0013490044511854649
1783246362599371800,2.437371826171875,-0.0004195643123239279,-0.00044176378287374973,0.0002804407849907875
1783246362609384000,2.447384033203125,0.000033972086384892464,-0.000748559832572937,0.00044182827696204185
1783246362619394800,2.457394775390625,-0.000338537385687232,-0.0008238200098276138,-0.0016750320792198181
1783246362629406700,2.46740673828125,-0.0006115112919360399,-0.0006342029664665461,0.0003138165920972824
1783246362639419000,2.4774189453125,0.0006848303601145744,0.000653517316095531,0.00048551103100180626
1783246362649429800,2.4874296875,-0.0009101368486881256,-0.0006796610541641712,0.0004301173612475395
1783246362659441700,2.497441650390625,0.0001031865831464529,-0.0007673839572817087,0.0003146226517856121
1783246362669452500,2.50745263671875,-0.001737590180709958,0.0004161248216405511,-0.0010356002021580935
1783246362679464700,2.517464599609375,0.001748721580952406,0.00013477366883307695,-0.00027823634445667267
1783246362689475800,2.527475830078125,-0.00018180394545197487,0.0005925711011514068,0.000850677490234375
1783246362699487700,2.53748779296875,-0.000037456629797816277,-0.002524993382394314,0.0006046132184565067
1783246362709500000,2.5475,-0.0012100464664399624,0.000704621896147728,-0.00003774138167500496
1783246362719510800,2.5575107421875,0.0013858888996765018,-0.00035937223583459854,-0.0011043515987694263
1783246362729522700,2.567522705078125,0.0000013115350157022476,-0.0007324810139834881,0.0002778288908302784
1783246362739533600,2.577533447265625,-0.0000383125152438879,-0.0012389286421239376,-0.00011984957382082939
1783246362749545700,2.587545654296875,-0.000051095616072416306,0.00031289528124034405,-0.0007347734645009041
1783246362759557600,2.5975576171875,-0.000024670502170920372,0.0009200668428093195,-0.0001703975722193718
1783246362769568800,2.60756884765625,-0.00012507173232734203,0.0008375088218599558,-0.00045295897871255875
1783246362779581000,2.617580810546875,0.0009862107690423727,0.0008321478962898254,-0.00038906652480363846
1783246362789591800,2.627591796875,0.00008073588833212852,-0.0010922523215413094,0.0011457130312919617
1783246362799603700,2.637603759765625,-0.0007195069920271635,0.001743158558383584,-0.0005308096297085285
1783246362809615600,2.64761572265625,0.0004325765185058117,-0.00015833834186196327,-0.00005596783012151718
1783246362819626800,2.657626708984375,-0.000592885771766305,-0.00014826213009655476,-0.0009494018740952015
1783246362829638700,2.667638671875,0.0007634621579200029,0.0002030087634921074,-0.00020664650946855545
1783246362839649800,2.67764990234375,0.0007050693966448307,0.00018183398060500622,0.0006303591653704643
1783246362849662000,2.687661865234375,0.0001103854738175869,-0.00044960156083106995,-0.00032784603536129
1783246362859673900,2.697673828125,0.0014934417558833957,-0.00020310375839471817,-0.0005193850956857204
1783246362869684700,2.707684814453125,0.0007498872000724077,-0.000035058241337537766,-0.0011140687856823206
1783246362879696600,2.717696533203125,0.0006033978424966335,0.0009077360155060887,0.00011703372001647949
1783246362889707800,2.727707763671875,0.0001107130665332079,-0.00013435888104140759,0.00005311798304319382
1783246362899719700,2.7377197265625,0.00015072384849190712,0.0012156273005530238,-0.0005513192154467106
1783246362909731600,2.747731689453125,-0.0015473074745386839,0.0011964525328949094,-0.00009378790855407715
1783246362919742700,2.75774267578125,-0.0003116575535386801,-0.001349371625110507,0.0005146102048456669
1783246362929754600,2.767754638671875,-0.0007369641680270433,-0.00017198803834617138,-0.0007288195192813873
1783246362939765800,2.777765869140625,0.000622560502961278,-0.0010892576538026333,0.0011810190044343472
1783246362949778000,2.78777783203125,0.0005599760916084051,-0.00036194827407598495,0.0007178951054811478
1783246362959788800,2.797788818359375,0.000012294389307498932,0.0014177948469296098,-0.000026399269700050354
1783246362969800700,2.80780078125,-0.0006795949302613735,-0.000697021372616291,0.0005251411348581314
1783246362979812600,2.8178125,-0.0003539517056196928,-0.0004273329395800829,0.0014213025569915771
1783246362989823700,2.82782373046875,-0.0006721995305269957,0.00010716356337070465,-0.00034517189487814903
1783246362999835600,2.837835693359375,-0.001664365641772747,0.00021951354574412107,-0.0002126600593328476
1783246363009846800,2.8478466796875,-0.00045023043639957905,-0.0010955554898828268,-0.0001423526555299759
1783246363019859000,2.85785888671875,0.00000942358747124672,-0.00033696694299578667,-0.0002061557024717331
1783246363029870800,2.867870849609375,0.0002597607672214508,0.0007408142555505037,-0.00022719474509358406
1783246363039881700,2.8778818359375,0.0007913596928119659,0.0002021815162152052,-0.0006605922244489193
1783246363049893600,2.8878935546875,-0.0006001419387757778,0.0010658446699380875,0.0006507481448352337
1783246363059904800,2.89790478515625,-0.0010714868549257517,-0.0017610301729291677,-0.0004382794722914696
1783246363069916700,2.907916748046875,0.00044198776595294476,0.0006376790115609765,-0.00019752979278564453
1783246363079928600,2.917928466796875,-0.00018888060003519058,-0.0014353152364492416,0.0005514021031558514
1783246363089939700,2.927939697265625,-0.0001830216497182846,-0.001085375901311636,0.00013994378969073296
1783246363099951900,2.937951904296875,-0.0012371183838695288,-0.0006972390692681074,0.0011893059127032757
1783246363109962800,2.947962646484375,-0.00013030855916440487,0.0011802895460277796,0.0008476222865283489
1783246363119974700,2.957974609375,0.0002353265881538391,0.0002928308676928282,0.0007999585941433907
1783246363129986800,2.96798681640625,0.0004656899254769087,0.00014236231800168753,-0.0008674466516822577
1783246363139997700,2.977997802734375,0.0006460570730268955,-0.0004869794938713312,0.00020821765065193176
1783246363150009600,2.988009521484375,-0.001095383893698454,-0.001485398504883051,-0.0008706287480890751
1783246363160020700,2.998020751953125,-0.0009458973072469234,-0.000197133282199502,-0.0009387088939547539
1783246363170032600,3.00803271484375,0.0011374936439096928,-0.00027862610295414925,0.00014679552987217903
1783246363180044500,3.01804443359375,0.00003324798308312893,-0.0008636065758764744,0.0010918560437858105
1783246363190055700,3.0280556640625,-0.00043706619180738926,0.0007912816945463419,-0.0004048408009111881
1783246363200067800,3.03806787109375,0.000672459602355957,-0.00030830688774585724,0.00006124330684542656
1783246363210078700,3.04807861328125,0.00009268941357731819,0.0010589599842205644,0.0005960059352219105
1783246363220090600,3.058090576171875,0.0008822011295706034,0.000032697804272174835,0.00004006456583738327
1783246363230101800,3.068101806640625,0.000577535480260849,0.0008883713744580746,-0.00019962014630436897
1783246363240113700,3.07811376953125,0.000253467820584774,0.0005202116444706917,-0.00018061930313706398
1783246363250125600,3.08812548828125,-0.0012783824931830168,0.00038439035415649414,-0.0012954184785485268
1783246363260137000,3.098136962890625,0.00026595802046358585,0.00021191430278122425,-0.0019150229636579752
1783246363270148900,3.10814892578125,0.00017381273210048676,-0.00039102532900869846,-0.0019112944137305021
1783246363280159700,3.11815966796875,-0.00023871706798672676,0.00041004479862749577,-0.0003747199662029743
1783246363290171600,3.128171630859375,-0.0005021037068217993,0.00211233738809824,0.0000969255343079567
1783246363300183800,3.138183837890625,-0.0016288412734866142,-0.00006760749965906143,-0.00013611512258648872
1783246363310194700,3.148194580078125,0.00026786187663674355,-0.00034164683893322945,0.0009581777267158031
1783246363320206600,3.15820654296875,0.0004306100308895111,0.0002661142498254776,0.00018158834427595139
1783246363330217700,3.1682177734375,0.00008573080413043499,0.0005310988053679466,0.00030542537569999695
1783246363340229600,3.178229736328125,-0.00008474080823361874,-0.000048725632950663567,-0.0004275115206837654
1783246363350241500,3.188241455078125,-0.0005649086087942123,0.00026792415883392096,-0.0004621329717338085
1783246363360252700,3.198252685546875,-0.0002462903503328562,-0.0005781911313533783,0.00046063028275966644
1783246363370264800,3.208264892578125,0.0011883543338626623,0.00027135724667459726,0.0003810017369687557
1783246363380275700,3.218275634765625,0.0009327461011707783,-0.000565369613468647,-0.0014346956741064787
1783246363390287600,3.22828759765625,0.0018922830931842327,-0.0003874704707413912,0.0013033002614974976
1783246363400299800,3.2382998046875,0.00009426707401871681,0.0008379962528124452,-0.0020789848640561104
1783246363410310700,3.248310546875,0.0003187714610248804,0.0005245421780273318,0.0007050838321447372
1783246363420322600,3.258322509765625,0.0006974986754357815,0.00009495008271187544,-0.000498711597174406
1783246363430333700,3.268333740234375,-0.001345145981758833,0.00036739150527864695,-0.00002333754673600197
1783246363440345900,3.278345947265625,-0.000550693366676569,-0.000624979380518198,-0.001136911567300558
1783246363450357800,3.288357666015625,0.0006594469305127859,0.00027889758348464966,0.0005099871195852757
1783246363460368600,3.29836865234375,-0.00033966638147830963,0.0009140002075582743,0.00002065533772110939
1783246363470380800,3.308380859375,0.00011813105084002018,-0.000019437633454799652,-0.0015362286940217018
1783246363480391700,3.3183916015625,-0.0001220102421939373,-0.00005360366776585579,0.0008831988088786602
1783246363490403600,3.328403564453125,-0.000020543811842799187,-0.000009927898645401001,0.0007013049907982349
1783246363500414700,3.338414794921875,0.00009889504872262478,0.0012021145084872842,-0.000977133633568883
1783246363510427000,3.348427001953125,0.0005857208743691444,-0.001728427829220891,0.0002109026536345482
1783246363520438800,3.358438720703125,0.001277904724702239,0.00020911137107759714,0.0003932942636311054
1783246363530449700,3.36844970703125,0.00008001481182873249,0.0014842328382655978,0.0013557607308030128
1783246363540462000,3.378462158203125,0.000449910294264555,-0.0005247696535661817,0.0004692189395427704
1783246363550473000,3.388472900390625,0.0007132969330996275,-0.00027043779846280813,-0.0006205467507243156
1783246363560485000,3.398485107421875,-0.0016484204679727554,0.0011588777415454388,-0.0003495970740914345
1783246363570497000,3.4084970703125,-0.0007109879516065121,-0.00045233452692627907,-0.0003671739250421524
1783246363580508000,3.4185078125,0.0004860053304582834,0.00003395217936486006,-0.0011670305393636227
1783246363590520000,3.42852001953125,0.00013606599532067776,-0.0007921605138108134,0.00026148930191993713
1783246363600531200,3.43853125,-0.0006106693763285875,0.000495259533636272,-0.0001468723639845848
1783246363610543000,3.448543212890625,0.0010623284615576267,-0.0008011673344299197,0.0003998749889433384
1783246363620555300,3.45855517578125,-0.00004034978337585926,-0.0015357979573309422,0.0014091050252318382
1783246363630566100,3.468566162109375,-0.0006081357132643461,0.005281894467771053,0.00029430584982037544
1783246363640578000,3.478578125,-0.00000784243457019329,-0.00022387411445379257,0.00046166498214006424
1783246363650589000,3.4885888671875,-0.000056578079238533974,-0.010999556630849838,-0.0007207784801721573
1783246363660601000,3.49860107421875,0.000594601733610034,0.006929239258170128,-0.00011087441816926003
1783246363670613000,3.508613037109375,-0.00010767369531095028,0.004143572878092527,0.0010960702784359455
1783246363680624000,3.5186240234375,0.0015662553487345576,-0.006862728390842676,-0.0018209717236459255
1783246363690636000,3.528635986328125,-0.00025028688833117485,-0.003226981032639742,0.0010725525207817554
1783246363700647200,3.538647216796875,-0.0005904394201934338,0.006410918198525906,0.00023342669010162354
1783246363710659000,3.5486591796875,-0.000528387725353241,0.0011812688317149878,0.0005812356248497963
1783246363720671200,3.558671142578125,-0.0007993257604539394,-0.004976124037057161,-0.0005527981556952
1783246363730682000,3.56868212890625,0.0019780846778303385,-0.0018618236063048244,-0.001954153645783663
1783246363740694000,3.578694091796875,-0.00039314478635787964,0.004786853212863207,0.0004130387678742409
1783246363750705000,3.588704833984375,0.0008620028384029865,0.0026826898101717234,0.0006553865969181061
1783246363760717000,3.598717041015625,0.0008469945751130581,-0.0068944706581532955,-0.0005191308446228504
1783246363770729000,3.60872900390625,0.000615033321082592,-0.0012429769849404693,-0.0017252764664590359
1783246363780740000,3.618739990234375,0.00034156907349824905,0.00548982061445713,0.0004141349345445633
1783246363790752300,3.628752197265625,-0.0005612424574792385,0.001757400226779282,0.0019851340912282467
1783246363800763100,3.63876318359375,0.00009489175863564014,-0.005030445288866758,-0.0003979424946010113
1783246363810775000,3.648775146484375,0.0003646700643002987,-0.0009366342565044761,-0.0007321690209209919
1783246363820786000,3.658785888671875,0.00004667066968977451,0.003889733459800482,0.0011786241084337234
1783246363830798000,3.668798095703125,0.0003641194198280573,0.00013307842891663313,0.00026223063468933105
1783246363840810000,3.67881005859375,0.00027353735640645027,-0.005424285773187876,-0.0014060311950743198
1783246363850821000,3.688821044921875,0.0003526334185153246,0.0015633163275197148,0.000765244010835886
1783246363860833300,3.698833251953125,-0.000258070882409811,0.0024458467960357666,0.001165837049484253
1783246363870844200,3.70884423828125,0.00030012778006494045,-0.0028431909158825874,-0.0006616241298615932
1783246363880856000,3.71885595703125,0.0005047500599175692,-0.00441560335457325,-0.0008024678099900484
1783246363890868000,3.728867919921875,0.0007375103887170553,0.0009248335845768452,0.0010862462222576141
1783246363900879000,3.738879150390625,-0.0006329345051199198,0.0036468529142439365,-0.00012027472257614136
1783246363910891000,3.74889111328125,0.0009838705882430077,-0.0010629472089931369,0.0007098321802914143
1783246363920902000,3.75890185546875,0.001518546137958765,-0.002382109872996807,-0.0000669797882437706
1783246363930914000,3.7689140625,-0.00038667931221425533,0.0029029331635683775,0.0002723070792853832
1783246363940926000,3.778926025390625,0.00030899932608008385,0.002250310964882374,-0.0000902414321899414
1783246363950937000,3.78893701171875,-0.0003410782665014267,-0.0014983544824644923,-0.000153358094394207
1783246363960949000,3.798948974609375,-0.0012389395851641893,-0.002979809418320656,-0.00009007472544908524
1783246363970960100,3.808960205078125,0.0005648194346576929,0.0013190651079639792,0.00015227310359477997
1783246363980972000,3.818971923828125,-0.0009827970061451197,0.0031482866033911705,-0.0004984145052731037
1783246363990984000,3.82898388671875,-0.00015801610425114632,-0.002862202003598213,-0.0017690088134258986
1783246364000995000,3.8389951171875,-0.00035547930747270584,-0.0019228431629016995,0.00040023215115070343
1783246364011007000,3.849007080078125,-0.001786129316315055,0.002375498879700899,0.0000660051591694355
1783246364021018000,3.85901806640625,0.00004238937981426716,0.0016047607641667128,0.0004801102913916111
1783246364031030000,3.869030029296875,0.001252796035259962,-0.0030887946486473083,0.0006755860522389412
1783246364041042200,3.879042236328125,-0.00025696330703794956,0.00009980844333767891,-0.0016738695558160543
1783246364051053000,3.889052978515625,-0.0009046441409736872,0.002489462960511446,0.0006276341155171394
1783246364061065000,3.89906494140625,-0.00004224642179906368,0.0014804955571889877,-0.0006087580695748329
1783246364071076000,3.909076171875,0.00011088536120951176,-0.002354190219193697,-0.0007890539709478617
1783246364081088000,3.919087890625,-0.00036240904591977596,-0.0006968466332182288,-0.00030809640884399414
1783246364091100000,3.929099853515625,-0.00034483219496905804,0.0011359406635165215,0.0013886033557355404
1783246364101111300,3.939111328125,-0.00014765653759241104,-0.0002946479944512248,0.00003402912989258766
1783246364111123200,3.949123291015625,0.0010174764320254326,-0.001678160042501986,0.00029262201860547066
1783246364121134000,3.959134033203125,0.001112236175686121,0.00020853267051279545,0.0005698902532458305
1783246364131146000,3.96914599609375,0.0004722785670310259,0.0019225431606173515,-0.00043199118226766586
1783246364141157000,3.9791572265625,0.0002615340054035187,0.000032373820431530476,-0.0005690273828804493
1783246364151169000,3.9891689453125,-0.0006463376339524984,-0.0026483642868697643,-0.0004619685932993889
1783246364161181000,3.999180908203125,0.00047172605991363525,-0.0008885905845090747,0.0007010861299932003
1783246364171192000,4.009192138671875,0.0005689314566552639,0.0025372998788952827,0.000049410853534936905
1783246364181204000,4.019203857421875,-0.0004605329595506191,-0.0005661471514031291,0.0000332915224134922
1783246364191215000,4.029215087890625,-0.0003545391373336315,-0.0012010448845103383,-0.0006388900801539421
1783246364201227000,4.03922705078125,-0.0000059371814131736755,-0.0011015041964128613,-0.0009112779516726732
1783246364211239200,4.0492392578125,-0.00033057667315006256,0.0007286202162504196,0.0014759795740246773
1783246364221250000,4.05925,0.0008201762102544308,-0.0013592758914455771,-0.00007380591705441475
1783246364231262000,4.069261962890625,0.0011330978013575077,-0.0009416922694072127,-0.0009025817271322012
1783246364241273000,4.079273193359375,-0.0003105218056589365,0.0004859649343416095,0.0006658872589468956
1783246364251285000,4.089284912109375,0.0009302450343966484,0.0025216853246092796,-0.0000651506707072258
1783246364261297000,4.099296875,-0.0011962242424488068,-0.0017733353888615966,-0.002124844817444682
1783246364271308000,4.10930810546875,0.0002794333267956972,-0.0009658649796620011,0.0005364520475268364
1783246364281320200,4.1193203125,-0.0010647971648722887,0.0028053331188857555,-0.00010255025699734688
1783246364291331000,4.1293310546875,-0.001335374778136611,0.00039597146678715944,-0.00031720101833343506
1783246364301343000,4.139343017578125,0.00018648011609911919,-0.0003219995414838195,-0.00006907014176249504
1783246364311355100,4.149355224609375,0.0005468057934194803,-0.00047007144894450903,-0.0002693398855626583
1783246364321366000,4.159365966796875,-0.0010192953050136566,0.0007911833235993981,-0.00016468577086925507
1783246364331378000,4.1693779296875,-0.00040543684735894203,0.0003831869689747691,0.0001516975462436676
1783246364341389000,4.17938916015625,0.00010933633893728256,0.00125172920525074,0.0019267993047833443
1783246364351401200,4.189401123046875,0.0009916415438055992,-0.00011766818352043629,0.0007837708108127117
1783246364361412000,4.199412109375,-0.0009743995033204556,0.002134423004463315,-0.0006123571656644344
1783246364371424000,4.209424072265625,0.0004783549811691046,0.00035995873622596264,0.00017886795103549957
1783246364381436200,4.219436279296875,-0.0009682071395218372,-0.0014409832656383514,-0.00040123937651515007
1783246364391447000,4.229447021484375,0.0005383428651839495,-0.000025246990844607353,-0.0016113799065351486
1783246364401459000,4.239458984375,-0.0005808263085782528,0.0010379576124250889,0.00047325389459729195
1783246364411471000,4.24947119140625,0.0014391813892871141,0.0005396801279857755,-0.0014870988670736551
1783246364421482000,4.25948193359375,0.0013705483870580792,-0.001423614681698382,0.0006332201883196831
1783246364431494000,4.269493896484375,-0.00045424955897033215,-0.0017746194498613477,0.0003522569313645363
1783246364441505000,4.279505126953125,-0.0007890891283750534,0.001764289801940322,-0.0007373848930001259
1783246364451517200,4.28951708984375,-0.00005565467290580273,0.0005381704540923238,-0.0012801371049135923
1783246364461528000,4.299528076171875,-0.0004674529191106558,-0.0005949684418737888,0.0016675274819135666
1783246364471540000,4.3095400390625,-0.0021835940424352884,0.0005448645679280162,0.00015778141096234322
1783246364481552100,4.31955224609375,0.00014327233657240868,0.00015763170085847378,0.0011343811638653278
1783246364491563000,4.32956298828125,0.00001837010495364666,-0.00010974961332976818,0.0007897680625319481
1783246364501575000,4.339574951171875,0.0011316954623907804,-0.0009417809778824449,0.0003871661610901356
1783246364511586000,4.3495859375,0.00041690305806696415,0.0003434605896472931,0.0008188649080693722
1783246364521598200,4.35959814453125,-0.0002646055072546005,0.0014796750620007515,0.0013974346220493317
1783246364531610000,4.369610107421875,-0.00015648105181753635,-0.00018160475883632898,-0.00033654971048235893
1783246364541620200,4.3796201171875,0.0007852599956095219,-0.000611591269262135,-0.0006862836889922619
1783246364551632100,4.389632080078125,0.0008465128485113382,0.001302156364545226,-0.000635949894785881
1783246364561643000,4.39964306640625,-0.0005041246768087149,0.0005213228287175298,0.0014420491643249989
1783246364571655200,4.4096552734375,0.000015990808606147766,0.00006805278826504946,0.0015328628942370415
1783246364581667000,4.4196669921875,-0.000645145308226347,-0.0018466993933543563,-0.001035474706441164
1783246364591678200,4.42967822265625,0.0006369005423039198,0.0005914246430620551,0.0006154188886284828
1783246364601690400,4.4396904296875,0.0008349383715540171,-0.0009939224692061543,-0.0008748117834329605
1783246364611701200,4.449701171875,-0.0008822677191346884,-0.00029031524900346994,-0.00008278759196400642
1783246364621713200,4.459713134765625,0.0007117229979485273,-0.0012277188943699002,0.00007450953125953674
1783246364631725000,4.46972509765625,0.0010909570846706629,-0.0006905592745169997,-0.0001886109821498394
1783246364641736200,4.479736083984375,-0.0014468017034232616,-0.00006339920219033957,-0.00011110072955489159
1783246364651748000,4.489748046875,0.000009681330993771553,0.000010903109796345234,-0.0010661103297024965
1783246364661759200,4.49975927734375,-0.00014705630019307137,-0.0012604928342625499,-0.00011328095570206642
1783246364671771400,4.509771484375,-0.000039730919525027275,0.000991209875792265,0.0010558469220995903
1783246364681782300,4.5197822265625,-0.0004792432300746441,0.0005411605816334486,0.0004252712242305279
1783246364691794200,4.529794189453125,0.00014606700278818607,-0.0012034762185066938,0.00063353031873703
1783246364701806000,4.53980615234375,0.00020895153284072876,-0.0007189507596194744,-0.0012306675780564547
1783246364711817200,4.549817138671875,0.0005716742016375065,0.0020515357609838247,0.0004990552552044392
1783246364721829000,4.5598291015625,0.0002966292668133974,0.0005966711323708296,0.0006697690114378929
1783246364731840300,4.56984033203125,0.0007182077970355749,-0.0003341035917401314,0.00001995731145143509
1783246364741852200,4.57985205078125,0.0003562674392014742,-0.00014014285989105701,-0.00014796573668718338
1783246364751864300,4.5898642578125,0.001182646257802844,-0.00021923868916928768,-0.00018205400556325912
1783246364761875200,4.599875244140625,0.0011580504942685366,-0.00019330414943397045,-0.0015712189488112926
1783246364771887400,4.609887451171875,-0.0005085556767880917,-0.0004087539855390787,-0.0012974459677934647
1783246364781898200,4.619898193359375,0.0007455868180841208,-0.0003333659842610359,-0.0007248604670166969
1783246364791910100,4.62991015625,0.00043852441012859344,0.0014632025267928839,0.00011829612776637077
1783246364801922000,4.639922119140625,0.0005067361053079367,-0.00007516168989241123,-0.0010055035818368196
1783246364811933200,4.64993310546875,0.0006849016062915325,-0.001502349739894271,-0.00025342684239149094
1783246364821945000,4.659945068359375,0.0002702302299439907,0.00020855048205703497,-0.000184591393917799
1783246364831956200,4.669956298828125,-0.00048291170969605446,-0.0009930678643286228,-0.0006767432205379009
1783246364841968400,4.679968505859375,0.000029729213565587997,-0.00016958150081336498,0.0017132633365690708
1783246364851980300,4.689980224609375,-0.000773746520280838,0.00009380502160638571,0.0009766328148543835
1783246364861991200,4.6999912109375,0.00044532865285873413,-0.000251114834100008,0.0006368039175868034
1783246364872003000,4.710003173828125,-0.0007006297819316387,-0.00002740928903222084,-0.0008026347495615482
1783246364882014200,4.72001416015625,0.000502466456964612,-0.00006340141408145428,-0.0007352633401751518
1783246364892026000,4.730026123046875,0.0008912880439311266,0.0007802880136296153,0.00021841470152139664
1783246364902038000,4.7400380859375,-0.0010794168338179588,0.001799095538444817,0.0015716287307441235
1783246364912049400,4.75004931640625,0.0023962748236954212,-0.0003143891226500273,-0.00003931717947125435
1783246364922061300,4.760061279296875,0.0005422593094408512,0.0005817264318466187,-0.000600054394453764
1783246364932072200,4.770072265625,0.0006671615410596132,-0.00044225913006812334,0.00007931794971227646
1783246364942084000,4.780083984375,-0.000960690900683403,-0.0006092822877690196,0.0006156829185783863
1783246364952095200,4.79009521484375,-0.00001580151729285717,0.0008991322247311473,-0.0012474646791815758
1783246364962107100,4.800107177734375,0.0014349711127579212,-0.0007347182836383581,0.000796144362539053
1783246364972119000,4.810119140625,-0.0005677258595824242,0.0005121736321598291,-0.00027737580239772797
1783246364982130200,4.820130126953125,0.0007530436851084232,-0.00045717915054410696,-0.00018411455675959587
1783246364992142000,4.83014208984375,0.0012742243707180023,-0.00029552506748586893,-0.0001894407905638218
1783246365002153200,4.8401533203125,0.0000013120006769895554,0.0003317830851301551,0.0008746050298213959
1783246365012165000,4.8501650390625,-0.0002024197019636631,-0.0007896739989519119,0.001420020591467619
1783246365022177300,4.86017724609375,0.0008488169405609369,0.000021849642507731915,-0.0007691143546253443
1783246365032188200,4.870188232421875,-0.00002043880522251129,0.00017977505922317505,0.0010860436595976353
1783246365042200000,4.880199951171875,-0.0002207688521593809,0.0007358375005424023,-0.00040475698187947273
1783246365052211200,4.890211181640625,-0.0004849545657634735,0.0009696630877442658,0.00025677215307950974
1783246365062223000,4.90022314453125,-0.0008075470104813576,0.001033513224683702,-0.00012949109077453613
1783246365072235000,4.910235107421875,-0.0007300490979105234,-0.0011550725903362036,0.0018130186945199966
1783246365082246100,4.92024609375,-0.0011278674937784672,-0.0005860022502020001,-0.0005521564744412899
1783246365092258300,4.93025830078125,0.00008626747876405716,-0.001049658632837236,-0.0006711999885737896
1783246365102269200,4.940269287109375,0.0012855377281084657,0.0011507404269650578,-0.0007655210793018341
1783246365112281000,4.950281005859375,-0.0018404806032776833,0.0006450061919167638,0.0006419597193598747
1783246365122293200,4.960293212890625,-0.0011858944781124592,0.000040904851630330086,0.0008816742338240147
1783246365132304100,4.97030419921875,-0.0002841483801603317,-0.000735406531020999,0.0012649032287299633
1783246365142316000,4.98031591796875,0.0000351655762642622,0.0004347406793385744,-0.00016397330909967422
1783246365152327400,4.990327392578125,0.000015990808606147766,-0.000058210454881191254,0.0009524235501885414
1783246365162339300,5.00033935546875,0.0006699280347675085,-0.0006015675608068705,-0.00006188126280903816
1783246365172351200,5.010351318359375,0.00015753577463328838,0.0010197649244219065,0.000645720399916172
1783246365182362000,5.020362060546875,-0.0005153284873813391,0.00100876041688025,-0.0004239561967551708
1783246365192374300,5.030374267578125,0.0009880259167402983,-0.0008445334387943149,-0.0012468730565160513
1783246365202385200,5.04038525390625,-0.00013526645489037037,-0.000831479555927217,-0.00031788041815161705
1783246365212397000,5.05039697265625,-0.0012279613874852657,-0.00041629269253462553,0.001241400372236967
1783246365222409200,5.0604091796875,-0.0007086948025971651,-0.0005575274117290974,-0.00032247696071863174
1783246365232420000,5.070420166015625,-0.0000013592652976512909,0.0009005531901493669,0.0009393291547894478
1783246365242432000,5.080431884765625,-0.0007077516056597233,-0.000356022035703063,0.0008770134299993515
1783246365252443100,5.090443115234375,-0.0004512891173362732,-0.000618077116087079,0.0008791438303887844
1783246365262455300,5.100455322265625,0.0014357611071318388,0.001572038047015667,-0.0004959828220307827
1783246365272466200,5.110466064453125,0.001103664981201291,-0.00039310846477746964,-0.00003925105556845665
1783246365282478000,5.12047802734375,-0.0005840242374688387,0.00008965330198407173,0.0008223275654017925
1783246365292490200,5.130490234375,0.0007598067168146372,-0.00007652782369405031,-0.00009806081652641296
1783246365302501000,5.140501220703125,-0.0010964111424982548,-0.0003435061080381274,0.00159126752987504
1783246365312513000,5.150512939453125,0.0007464960217475891,0.0012919411528855562,-0.0007754839025437832
1783246365322524200,5.160524169921875,0.0004385332576930523,0.00043730647303164005,-0.0004364210180938244
1783246365332536300,5.170536376953125,0.001354394480586052,-0.0003528534434735775,0.0006983517669141293
1783246365342548200,5.18054833984375,0.002033456228673458,-0.00014138140249997377,-0.0001400182954967022
1783246365352559000,5.19055908203125,0.0019255982479080558,0.00041601830162107944,0.0003750370815396309
1783246365362571300,5.2005712890625,-0.00023527024313807487,-0.001214597257785499,-0.0006734603084623814
1783246365372582100,5.21058203125,-0.000598791753873229,-0.00005052948836237192,0.0004005925729870796
1783246365382594000,5.220593994140625,0.0006797690875828266,-0.00034544593654572964,-0.0006731473840773106
1783246365392606200,5.230606201171875,-0.0011620728764683008,-0.00013079517520964146,-0.0012910007499158382
1783246365402617300,5.240617431640625,-0.0008953774813562632,-0.0010323046008124948,0.0012051314115524292
1783246365412629200,5.250629150390625,-0.00003730691969394684,0.00012617046013474464,0.00032788608223199844
1783246365422640000,5.26064013671875,-0.00048651755787432194,-0.0005495179211720824,0.00005591660737991333
1783246365432652300,5.27065234375,0.000501515343785286,0.00017166603356599808,-0.0010855142027139664
1783246365442664200,5.280664306640625,0.0008523159194737673,-0.00022024416830390692,0.00043962616473436356
1783246365452675000,5.290675048828125,0.0003388584591448307,0.0001254342496395111,-0.00027543259784579277
1783246365462687200,5.300687255859375,-0.000014464836567640305,-0.00048748450353741646,-0.0005429200828075409
1783246365472698000,5.310697998046875,-0.0004520220682024956,-0.00008055358193814754,-0.0009882005397230387
1783246365482710000,5.3207099609375,0.0015623023500666022,-0.0004503062227740884,-0.000558207742869854
1783246365492722200,5.33072216796875,0.0008328624535351992,-0.0004218105459585786,0.00004952540621161461
1783246365502733300,5.3407333984375,0.0002901905681937933,0.00028648029547184706,-0.001209803856909275
1783246365512745200,5.3507451171875,-0.0004238027613610029,-0.0009524222696200013,-0.0002747680991888046
1783246365522756000,5.360756103515625,-0.0006747280713170767,-0.0004386227810755372,0.00042867520824074745
1783246365532768300,5.370768310546875,-0.00010427902452647686,0.0008436891948804259,0.0008641020394861698
1783246365542784300,5.3807841796875,-0.0004058063495904207,-0.0011787933763116598,-0.0004810984246432781
1783246365552795400,5.39079541015625,-0.0008532174397259951,0.0008923469576984644,-0.0012821773998439312
1783246365562807300,5.400807373046875,-0.00005733710713684559,-0.00046272482722997665,0.000054047442972660065
1783246365572818200,5.410818115234375,0.00022415886633098125,0.00014500855468213558,-0.0003486224450170994
1783246365582830000,5.420830078125,-0.0008752462454140186,-0.0012442040024325252,-0.0008058534003794193
1783246365592841500,5.430841552734375,-0.0003972086124122143,-0.0006631022552028298,-0.00016083614900708199
1783246365602853400,5.440853271484375,-0.0006732712499797344,-0.0003575836308300495,-0.0011386116966605186
1783246365612865300,5.450865234375,0.0002883961424231529,-0.00036930153146386147,0.00002758670598268509
1783246365622876400,5.46087646484375,-0.0014366167597472668,0.0010483377845957875,0.0002754637971520424
1783246365632888300,5.470888427734375,-0.00011329213157296181,-0.0006504927296191454,-0.00011868402361869812
1783246365642899200,5.480899169921875,0.00028214603662490845,0.0009113226551562548,-0.0008443119004368782
1783246365652911400,5.490911376953125,-0.0009098849259316921,-0.0002897630911320448,0.0000497112050652504
1783246365662923300,5.50092333984375,0.0003977890592068434,-0.0004464725498110056,-0.0005053281784057617
1783246365672934400,5.510934326171875,-0.000944976694881916,-0.00002356269396841526,0.000672588124871254
1783246365682946300,5.5209462890625,0.0012601797934621572,-0.0004075034521520138,0.00019618123769760132
1783246365692957400,5.53095751953125,0.0009557805024087429,0.0005182113964110613,-0.0011359320487827063
1783246365702969300,5.54096923828125,-0.0009871525689959526,0.0005314809968695045,-0.0008152569644153118
1783246365712981200,5.550981201171875,0.000725792720913887,-0.00021740002557635307,0.00022843573242425919
1783246365722992400,5.560992431640625,0.0011005119886249304,0.0009666766272857785,0.0015929616056382656
1783246365733004300,5.57100439453125,-0.0009613072033971548,0.0004321802407503128,0.0009024040773510933
1783246365743015200,5.58101513671875,-0.0010725101456046104,-0.0013773676473647356,-0.0005306513048708439
1783246365753027300,5.59102734375,-0.0014565382152795792,-0.0011459391098469496,-0.0014624912291765213
1783246365763039200,5.601039306640625,-0.0009268149733543396,0.0008532876381650567,0.000003308989107608795
1783246365773050400,5.61105029296875,0.0015105099882930517,-0.0007906816899776459,-0.0012246742844581604
1783246365783062300,5.621062255859375,0.0008847482968121767,-0.001794977579265833,-0.0009411328937858343
1783246365793073400,5.631073486328125,-0.002310512587428093,0.0003725691931322217,0.0026562651619315147
1783246365803085300,5.641085205078125,0.0004726701881736517,0.000535437953658402,0.0005420581437647343
1783246365813096200,5.65109619140625,-0.001352393999695778,-0.0010062658693641424,-0.001182338921353221
1783246365823108000,5.661108154296875,0.0000946875661611557,-0.0000443111639469862,-0.0016832547262310982
1783246365833120300,5.671120361328125,0.0009527578949928284,-0.00018865452148020267,-0.0006062723696231842
1783246365843131400,5.68113134765625,-0.0001538270153105259,-0.0005866526626050472,0.0006025689654052258
1783246365853143300,5.691143310546875,-0.0002989692147821188,0.00046716025099158287,-0.00028559518977999687
1783246365863154400,5.701154541015625,0.000029454240575432777,0.00007923820521682501,0.001152766402810812
1783246365873166300,5.711166259765625,0.0005410474259406328,0.0005570092471316457,-0.0005942671559751034
1783246365883178200,5.72117822265625,-0.0008183217141777277,-0.0003678218927234411,-0.00024164561182260513
1783246365893189000,5.731189208984375,0.0002541332505643368,0.0011310051195323467,-0.001984950853511691
1783246365903201300,5.741201171875,-0.00033622607588768005,0.0009041783632710576,-0.000007922761142253876
1783246365913212400,5.75121240234375,-0.001395631581544876,-0.00040290108881890774,-0.00045346980914473534
1783246365923224300,5.761224365234375,0.0002670655958354473,-0.0005579120479524136,0.00012224912643432617
1783246365933236500,5.771236572265625,-0.0016512095462530851,0.00013983622193336487,-0.0010916197206825018
1783246365943247400,5.781247314453125,0.001083275070413947,0.00043882487807422876,0.00018722005188465118
1783246365953259300,5.79125927734375,0.0005261416081339121,-0.000031755538657307625,0.00022184103727340698
1783246365963270400,5.8012705078125,-0.0003126820083707571,-0.00038620876148343086,-0.0005484782159328461
1783246365973282300,5.8112822265625,0.00010090670548379421,0.0005046186270192266,-0.00015406403690576553
1783246365983294200,5.821294189453125,-0.00032220897264778614,-0.0006426251493394375,0.000616258941590786
1783246365993305000,5.83130517578125,0.0007686219178140163,-0.00023329746909439564,0.000025037210434675217
1783246366003317200,5.841317138671875,-0.0010810417588800192,0.0006477399729192257,-0.0006391820497810841
1783246366013328400,5.851328369140625,-0.0012078082654625177,-0.0007221901323646307,0.0004316749982535839
1783246366023340300,5.86134033203125,0.0011509263422340155,-0.00034010689705610275,0.0012136022560298443
1783246366033352400,5.8713525390625,0.0000923199113458395,0.0003725549904629588,0.0008333027362823486
1783246366043363300,5.88136328125,0.00003361026756465435,0.0006128582172095776,-0.0005708266980946064
1783246366053375200,5.891375244140625,-0.0004713251255452633,0.00130448117852211,0.00002172635868191719
1783246366063386000,5.90138623046875,0.000052969204261898994,0.0003407851327210665,-0.0008236768189817667
1783246366073398300,5.911398193359375,-0.0002506312448531389,-0.0005785380490124226,-0.0005040974356234074
1783246366083409400,5.921409423828125,-0.0010499178897589445,0.0007224899018183351,0.00038508838042616844
1783246366093421300,5.93142138671875,0.00045024091377854347,-0.00005914783105254173,0.0008844314143061638
1783246366103433500,5.94143359375,-0.00005142437294125557,-0.0007461796049028635,-0.0005845515988767147
1783246366113444400,5.9514443359375,0.00036030029878020287,-0.00022047152742743492,0.00047512026503682137
1783246366123456300,5.961456298828125,-0.0023301218170672655,0.0008433565963059664,-0.0003858255222439766
1783246366133467100,5.971467041015625,0.0015812627971172333,0.00006597989704459906,0.0013183308765292168
1783246366143479300,5.981479248046875,0.0005225723143666983,0.0007704960880801082,0.000013056676834821701
1783246366153491200,5.9914912109375,-0.0002888930030167103,-0.00005215429700911045,0.00018083583563566208
1783246366163502300,6.00150244140625,0.0002678842283785343,-0.0008098478429019451,-0.0009581155609339476
1783246366173514200,6.01151416015625,-0.0006796685047447681,0.000624530715867877,-0.0003336044028401375
1783246366183525400,6.021525390625,-0.001160414656624198,0.000376017764210701,-0.0008207305800169706
1783246366193537300,6.031537353515625,-0.00088664167560637,-0.00008204602636396885,-0.0003719879314303398
1783246366203549400,6.041549560546875,-0.00014984887093305588,-0.0006363773718476295,-0.0010320472065359354
1783246366213560300,6.051560302734375,0.002027551643550396,0.0013069312553852797,-0.00016545457765460014
1783246366223572200,6.061572265625,0.000037991441786289215,-0.00046661426313221455,-0.0003245682455599308
1783246366233583000,6.0715830078125,-0.000691181980073452,-0.00018032430671155453,0.0006594695150852203
1783246366243595300,6.08159521484375,-0.00001757778227329254,0.0013820843305438757,0.0007872921414673328
1783246366253607200,6.091607177734375,0.0023851259611546993,0.00020257034339010715,-0.0007581403478980064
1783246366263618300,6.101618408203125,-0.0001762791071087122,-0.0015900253783911467,-0.0001683100126683712
1783246366273630500,6.11163037109375,-0.000024745240807533264,-0.0015314356423914433,-0.0004687141627073288
1783246366283641300,6.121641357421875,-0.001041423063725233,0.0008688243106007576,0.0004728296771645546
1783246366293653200,6.1316533203125,0.0011458308435976505,0.0012075784616172314,-0.0010465038940310478
1783246366303665400,6.14166552734375,-0.00010874238796532154,-0.0006012064404785633,0.0003078482113778591
1783246366313676300,6.15167626953125,0.00034958752803504467,-0.0006941505707800388,-0.0006463625468313694
1783246366323688200,6.161688232421875,-0.00008745817467570305,0.0006584527436643839,-0.0009197378531098366
1783246366333699300,6.17169921875,-0.0005609684158116579,-0.0004973590839654207,0.001070176251232624
1783246366343711500,6.18171142578125,0.0005823548417538404,-0.0002620925661176443,-0.00042668869718909264
1783246366353722400,6.191722412109375,-0.0005039484240114689,0.0014678968582302332,0.000507282093167305
1783246366363734300,6.201734375,0.00006669946014881134,-0.0006849358323961496,0.000834126491099596
1783246366373746400,6.211746337890625,0.0010366227943450212,-0.0007605697028338909,-0.0003547081723809242
1783246366383757300,6.22175732421875,-0.0002894606441259384,-0.00016127084381878376,0.0009995591826736927
1783246366393769200,6.231769287109375,0.001610172213986516,0.001313321408815682,0.0011465656571090221
1783246366403780000,6.241780029296875,-0.00017388025298714638,-0.00014798692427575588,-0.00003647711127996445
1783246366413792300,6.251792236328125,0.00012439372949302197,0.00017425569240003824,0.0007661995477974415
1783246366423804200,6.26180419921875,0.0012983431806787848,0.0006338107632473111,0.002566924784332514
1783246366433815300,6.271815185546875,-0.0005070138722658157,0.0008559183916077018,-0.0014659003354609013
1783246366443827500,6.281827392578125,-0.00013091042637825012,-0.0029341327026486397,0.00040278350934386253
1783246366453838300,6.29183837890625,-0.0007612807676196098,0.0007833738345652819,0.0025511556304991245
1783246366463850200,6.301850341796875,-0.0015247727278620005,-0.000876834848895669,-0.0015409518964588642
1783246366473862400,6.3118623046875,-0.00022887857630848885,-0.002942116465419531,-0.00002934178337454796
1783246366483873300,6.321873291015625,0.00026243156753480434,0.003888254053890705,0.001291988417506218
1783246366493885200,6.33188525390625,-0.0005359840579330921,-0.0012124984059482813,0.0003188694827258587
1783246366503896300,6.341896240234375,0.0005173906683921814,-0.0018919699359685183,-0.0005910694599151611
1783246366513908500,6.351908447265625,-0.0011015450581908226,-0.0007129884324967861,-0.00009572133421897888
1783246366523920400,6.36192041015625,0.0018153376877307892,0.0026687083300203085,-0.00031295791268348694
1783246366533931300,6.37193115234375,-0.0018622216302901506,-0.0016453461721539497,0.0007041031494736671
1783246366543939300,6.381939208984375,0.0016021218616515398,0.00019475480075925589,-0.0005224174819886684
1783246366553950500,6.391950439453125,0.00009157694876194,-0.0005480009131133556,-0.0008334745652973652
1783246366563962400,6.40196240234375,-0.00036555039696395397,0.0006275225896388292,0.0005227988585829735
1783246366573974300,6.411974365234375,-0.0008670233655720949,-0.0006047219503670931,-0.001764856744557619
1783246366583985400,6.4219853515625,-0.000008609611541032791,-0.00012169033288955688,0.0011810078285634518
1783246366593997600,6.43199755859375,0.0006787523161619902,0.0008519614348188043,0.0004462418146431446
1783246366604008400,6.442008544921875,0.0009092655964195728,0.00044043618254363537,-0.0006496948190033436
1783246366614020400,6.452020263671875,0.002031521638855338,0.0013541667722165585,0.0012802979908883572
1783246366624031500,6.462031494140625,0.00020743883214890957,0.00041362782940268517,0.0007989597506821156
1783246366634043400,6.47204345703125,-0.0011353271547704935,0.0007063092198222876,0.0006247893907129765
1783246366644055300,6.48205517578125,-0.000021442770957946777,0.0006029440555721521,0.00031514139845967293
1783246366654066400,6.49206640625,-0.00003662286326289177,0.0002596626291051507,0.0004626805894076824
1783246366664078600,6.50207861328125,0.00013934331946074963,0.0010589146986603737,-0.00047539081424474716
1783246366674089500,6.51208935546875,0.0020874456968158484,0.000991803128272295,0.00017362134531140327
1783246366684101400,6.522101318359375,0.0003327084705233574,-0.0009607728570699692,0.0005741110071539879
1783246366694113500,6.532113525390625,-0.00026730168610811234,0.002992955967783928,-0.0016797224525362253
1783246366704124400,6.54212451171875,0.0005656525027006865,-0.0010685394518077374,-0.0007433732971549034
1783246366714136300,6.55213623046875,-0.0008455563802272081,0.00012695358600467443,-0.0001913001760840416
1783246366724147200,6.562147216796875,-0.0006207013502717018,-0.0008495477959513664,-0.00035590166226029396
1783246366734159400,6.572159423828125,-0.00019273138605058193,-0.0018602174241095781,0.0006097606383264065
1783246366744171300,6.582171142578125,0.00020103086717426777,-0.0011090148473158479,-0.00035786349326372147
1783246366754182400,6.592182373046875,0.001436204998753965,0.0002406751736998558,-0.00029847491532564163
1783246366764194600,6.602194580078125,-0.0013413443230092525,-0.0004331244854256511,0.0006670188158750534
1783246366774205400,6.612205322265625,0.00015002605505287647,-0.0004120854428038001,-0.00014790846034884453
1783246366784217300,6.62221728515625,0.00025155837647616863,0.00045253464486449957,-0.00032079219818115234
1783246366794229500,6.6322294921875,-0.00030104746110737324,-0.00007929850835353136,-0.00043877027928829193
1783246366804240400,6.642240478515625,0.00011188746429979801,-0.0019770499784499407,0.00013027992099523544
1783246366814252300,6.652252197265625,0.0008242831099778414,0.0013729403726756573,-0.0008178052958101034
1783246366824263400,6.662263427734375,0.0006453676614910364,0.0003148461692035198,0.000027173664420843124
1783246366834275600,6.672275634765625,-0.0010324239265173674,0.0006267023272812366,-0.0005187741480767727
1783246366844286500,6.682286376953125,-0.00012319674715399742,-0.000998537172563374,-0.0005827350541949272
1783246366854298400,6.69229833984375,0.00003233179450035095,-0.000044592772610485554,0.0010383310727775097
1783246366864310500,6.702310546875,0.0012304013362154365,-0.00014056358486413956,-0.00029010185971856117
1783246366874321400,6.7123212890625,0.0004993635229766369,0.0005907403538003564,-0.00019342871382832527
1783246366884333300,6.722333251953125,0.0012707801070064306,-0.00044234516099095345,0.0004300978034734726
1783246366894344400,6.732344482421875,0.0019560116343200207,0.0008618046995252371,-0.0018953743856400251
1783246366904356400,6.7423564453125,-0.00012917770072817802,0.00034245802089571953,-0.0012287362478673458
1783246366914368500,6.752368408203125,-0.0008149417117238045,-0.001167021575383842,-0.0008050273172557354
1783246366924379400,6.76237939453125,0.00023629958741366863,-0.0010434346040710807,-0.0006146999076008797
1783246366934391600,6.7723916015625,-0.0016367014031857252,-0.00037231820169836283,-0.0006783492863178253
1783246366944402400,6.78240234375,-0.0002749564591795206,0.0007455946179106832,0.0014880425296723843
1783246366954414300,6.792414306640625,0.00030028633773326874,0.0005855385679751635,-0.00022383732721209526
1783246366964426500,6.802426513671875,0.0006475998088717461,-0.0007040026830509305,0.0016109892167150974
1783246366974437400,6.812437255859375,0.0001871392596513033,0.0008779149502515793,0.000146517064422369
1783246366984449300,6.82244921875,-0.00073967594653368,0.0005078291287645698,-0.0010106046684086323
1783246366994460400,6.83246044921875,-0.00023980066180229187,-0.0022597278002649546,-0.00048596179112792015
1783246367004472600,6.84247265625,-0.0007256821263581514,0.00029962288681417704,0.0004529147408902645
1783246367014484500,6.852484375,0.0001574221532791853,-0.0004407358355820179,-0.0006139478646218777
1783246367024495400,6.862495361328125,0.0002756328321993351,0.0007269319612532854,-0.0020673347171396017
1783246367034507500,6.872507568359375,-0.0009065445046871901,0.0002843146212399006,-0.001360265538096428
1783246367044518400,6.882518310546875,0.0017622881568968296,0.0003168585244566202,0.002648338209837675
1783246367054530300,6.8925302734375,0.0005513487849384546,-0.0003356159431859851,-0.00021163048222661018
1783246367064542500,6.90254248046875,-0.00008041365072131157,0.0006188558181747794,-0.0006951740942895412
1783246367074553600,6.9125537109375,-0.00043887505307793617,-0.0007697163382545114,-0.0013393927365541458
1783246367084565500,6.9225654296875,0.0017494442872703075,0.000530971447005868,0.0010976660996675491
1783246367094576400,6.932576416015625,-0.0006508762016892433,0.00029294961132109165,-0.0007907510735094547
1783246367104588500,6.942588623046875,-0.000965433893725276,-0.0007441733032464981,-0.00032084714621305466
1783246367114599400,6.952599365234375,-0.0007031126879155636,0.0013141838135197759,0.00045413244515657425
1783246367124611300,6.962611328125,0.01417204737663269,-0.03837504982948303,-0.0007208220195025206
1783246367134623500,6.97262353515625,-0.0605570524930954,-0.02156970463693142,0.00277883792296052
1783246367144634400,6.98263427734375,0.00661684013903141,-0.0016640594694763422,-0.0010866376105695963
1783246367154646300,6.992646240234375,-0.00006716139614582062,0.0017067035660147667,0.00032350607216358185
1783246367164657400,7.002657470703125,-0.0003555561415851116,-0.0006079818122088909,0.0008571380749344826
1783246367174669600,7.012669677734375,0.00029984768480062485,-0.0006535218562930822,-0.0021911158692091703
1783246367184681500,7.022681396484375,-0.018705328926444054,0.014336859807372093,0.0018631876446306705
1783246367194692400,7.0326923828125,-0.021073944866657257,-0.022012092173099518,0.0016266992315649986
1783246367204704500,7.04270458984375,0.021791016682982445,0.021118128672242165,-0.0006469083018600941
1783246367214715400,7.05271533203125,-0.030613603070378304,-0.023180624470114708,0.0022559375502169132
1783246367224727300,7.062727294921875,0.02296595089137554,0.022910641506314278,-0.0010479134507477283
1783246367234739500,7.072739501953125,-0.03127118572592735,-0.02575702965259552,0.0010511898435652256
1783246367244750600,7.08275048828125,0.022158678621053696,0.024273088201880455,-0.0006946288049221039
1783246367254762500,7.092762451171875,-0.031649958342313766,-0.02727399207651615,0.000950405839830637
1783246367264773400,7.1027734375,0.020374540239572525,0.02523539401590824,-0.0013340022414922714
1783246367274785500,7.11278564453125,-0.031679071485996246,-0.027458708733320236,0.0010479292832314968
1783246367284796400,7.12279638671875,0.01868571899831295,0.02562972903251648,0.0004895292222499847
1783246367294808300,7.132808349609375,-0.029655447229743004,-0.026433205232024193,0.0013542575761675835
1783246367304820500,7.142820556640625,0.017170140519738197,0.02476860024034977,-0.00043251458555459976
1783246367314831600,7.15283154296875,-0.025561878457665443,-0.027196064591407776,0.0003065126948058605
1783246367324843500,7.162843505859375,0.009621676057577133,0.024385103955864906,-0.0009728700388222933
1783246367334854400,7.1728544921875,-0.024786366149783134,-0.023522499948740005,0.0015704487450420856
1783246367344866600,7.182866455078125,0.010380487889051437,0.024686293676495552,-0.0008392548188567162
1783246367354878500,7.19287841796875,-0.020202720537781715,-0.02303648740053177,-0.00000994652509689331
1783246367364889300,7.202889404296875,0.008618669584393501,0.0232191551476717,-0.0012527715880423784
1783246367374901500,7.212901611328125,-0.018212677910923958,-0.02347298339009285,0.0002894648350775242
1783246367384912400,7.222912353515625,0.006972629576921463,0.021802105009555817,-0.0007883128710091114
1783246367394924300,7.23292431640625,-0.013544363901019096,-0.023625563830137253,0.000688676256686449
1783246367404936400,7.2429365234375,0.0023301474284380674,0.019994333386421204,-0.0006570224650204182
1783246367414947600,7.252947509765625,-0.00461218087002635,-0.019600480794906616,-0.00040348945185542107
1783246367424959500,7.26295947265625,-0.0021136978175491095,0.0176836084574461,0.001259061973541975
1783246367434970400,7.272970458984375,0.001198209123685956,-0.014953697100281715,-0.0010304576717317104
1783246367444982500,7.282982421875,-0.005853754933923483,0.012188916094601154,-0.0009015705436468124
1783246367454994400,7.292994384765625,0.006926488131284714,-0.01212228275835514,-0.001042984426021576
1783246367465005300,7.30300537109375,-0.008817639201879501,0.0096932053565979,-0.001613099593669176
1783246367475017500,7.313017578125,0.00972009263932705,-0.008714830502867699,-0.0003920402377843857
1783246367485028600,7.323028564453125,-0.009913237765431404,0.00979641079902649,0.0010960809886455536
1783246367495040500,7.33304052734375,0.012851996347308159,-0.008762093260884285,-0.00016492605209350586
1783246367505052400,7.343052490234375,-0.012339102104306221,0.009506667032837868,0.0010445322841405869
1783246367515063600,7.3530634765625,0.013491962105035782,-0.008463544771075249,-0.0013608350418508053
1783246367525075500,7.363075439453125,-0.013681851327419281,0.0067986780777573586,0.0016816956922411919
1783246367535086300,7.37308642578125,0.015239279717206955,-0.005952803418040276,0.00016369391232728958
1783246367545098500,7.383098388671875,-0.016456536948680878,0.00598190538585186,0.0005027172155678272
1783246367555110700,7.393110595703125,0.01637757569551468,-0.0051224110648036,-0.0018376687075942755
1783246367565121500,7.40312158203125,-0.01799686625599861,0.004751097410917282,0.0014141802676022053
1783246367575133400,7.413133544921875,0.017832502722740173,-0.00534388143569231,-0.0008087602909654379
1783246367585144600,7.42314453125,-0.018146177753806114,0.003609034698456526,0.0008222246542572975
1783246367595156700,7.43315673828125,0.017821943387389183,-0.0035647223703563213,-0.00020415754988789558
1783246367605167600,7.443167724609375,-0.018213802948594093,0.0013471250422298908,0.0009800205007195473
1783246367615179500,7.453179443359375,0.01917964220046997,-0.0021543989423662424,-0.0005419761873781681
1783246367625191700,7.463191650390625,-0.021367114037275314,0.0008794809691607952,0.0017216401174664497
1783246367635202600,7.47320263671875,0.020686330273747444,-0.0009258759673684835,-0.0022115823812782764
1783246367645214500,7.48321435546875,-0.01950058341026306,0.0014616606058552861,0.0013257008977234364
1783246367655225600,7.4932255859375,0.01932431012392044,-0.0014907198492437601,0.00045990757644176483
1783246367665237800,7.50323779296875,-0.01900305226445198,0.0006063147448003292,0.0006957962177693844
1783246367675249700,7.513249755859375,0.018411431461572647,0.0002883333945646882,-0.0010440468322485685
1783246367685260500,7.523260498046875,-0.01875130645930767,-0.0006371785420924425,0.0013532117009162903
1783246367695272700,7.533272705078125,0.017991792410612106,0.0005282207857817411,-0.0010878415778279305
1783246367705283600,7.54328369140625,-0.015800077468156815,-0.0002069717738777399,0.00013486482203006744
1783246367715295500,7.55329541015625,0.012949278578162193,0.00017013191245496273,-0.0005833897739648819
1783246367725307600,7.5633076171875,-0.011587696149945259,-0.001081268535926938,0.000643530860543251
1783246367735318800,7.57331884765625,0.006912218872457743,0.00003592739813029766,0.00000916607677936554
1783246367745330700,7.58333056640625,-0.004773310851305723,0.00066222227178514,-0.0003941478207707405
1783246367755341600,7.593341552734375,0.0028366718906909227,0.0007642214186489582,-0.0008612663950771093
1783246367765353700,7.603353759765625,-0.0013416563160717487,0.00010332476813346148,0.0004619024693965912
1783246367775365600,7.61336572265625,-0.0015035765245556831,0.0002173080574721098,-0.00009096972644329071
1783246367785376500,7.62337646484375,0.00005438155494630337,0.0007150111487135291,0.0006236075423657894
1783246367795388700,7.633388671875,0.00044000730849802494,0.0009152808925136924,0.0010244129225611687
1783246367805399600,7.643399658203125,-0.0003792843781411648,-0.00152216712012887,-0.0008876144420355558
1783246367815411500,7.653411376953125,0.002435144269838929,-0.00026914989575743675,-0.0004151696339249611
1783246367825423600,7.663423583984375,0.0003119606990367174,-0.0008101195562630892,-0.0006173383444547653
1783246367835434800,7.673434814453125,-0.0008161542937159538,-0.0002785525284707546,0.000027945730835199356
1783246367845446700,7.68344677734375,-0.00004703341983258724,-0.00027029658667743206,-0.0010653450153768063
1783246367855457500,7.69345751953125,0.0003095637075603008,0.00003250467125326395,-0.0005353759042918682
1783246367865469700,7.7034697265625,0.001005697064101696,-0.0002808652352541685,0.00024337135255336761
1783246367875480600,7.71348046875,0.00037452811375260353,0.0006238105706870556,0.0005248673260211945
1783246367885492500,7.723492431640625,-0.0004022042267024517,0.0003053776454180479,0.0005661798641085625
1783246367895504600,7.733504638671875,-0.0007076687179505825,0.0004939293721690774,-0.00004261871799826622
1783246367905515800,7.743515869140625,-0.0014852855820208788,0.0012608456891030073,0.000049124471843242645
1783246367915527700,7.753527587890625,0.0005581576842814684,-0.00014157500118017197,0.0011037359945476055
1783246367925538600,7.76353857421875,0.00020617316477000713,0.00018614903092384338,-0.0004147803410887718
1783246367935550700,7.77355078125,-0.00027878861874341965,-0.000516925472766161,-0.0011111970525234938
1783246367945562600,7.783562744140625,-0.0021628630347549915,0.00032151921186596155,-0.00042407354339957237
1783246367955573500,7.793573486328125,-0.0006986572407186031,0.000126309460029006,-0.0008666908834129572
1783246367965585700,7.803585693359375,-0.00008009932935237885,-0.00042640906758606434,0.0016804072074592113
1783246367975596500,7.813596435546875,-0.0005999484565109015,0.0006021037697792053,-0.00007062125951051712
1783246367985608700,7.823608642578125,-0.0005921479314565659,0.0017972615314647555,0.0028443043120205402
1783246367995620600,7.83362060546875,-0.002644912339746952,0.02549752965569496,0.005816924385726452
1783246368005631700,7.8436318359375,0.00016313325613737106,-0.00783463567495346,0.001142632681876421
1783246368015643600,7.8536435546875,0.0007887098472565413,0.0023586133029311895,0.0025756796821951866
1783246368025654500,7.863654541015625,-0.0020824959501624107,0.017800092697143555,0.005241593811661005
1783246368035666700,7.873666748046875,0.0003452417440712452,0.0024783937260508537,0.0025054621510207653
1783246368045678600,7.8836787109375,-0.001955437706783414,0.006425340659916401,0.0032042046077549458
1783246368055689500,7.893689453125,-0.001402299152687192,0.016213789582252502,0.004424731712788343
1783246368065701400,7.903701416015625,0.0000780750997364521,0.005087164230644703,0.0015096357092261314
1783246368075712800,7.913712646484375,0.00013080565258860588,-0.003867448540404439,-0.00012101791799068451
1783246368085724700,7.923724609375,-0.00027331593446433544,0.0008724074577912688,-0.0011048223823308945
1783246368095736600,7.933736572265625,0.0005623840261250734,-0.0029934372287243605,-0.0021897940896451473
1783246368105747700,7.943747802734375,-0.0005208784714341164,-0.017555521801114082,-0.006315784994512796
1783246368115759600,7.953759521484375,-0.0005773373413830996,-0.022369185462594032,-0.009014898911118507
1783246368125770500,7.9637705078125,0.0008655369747430086,-0.011970792897045612,-0.005873950198292732
1783246368135782700,7.97378271484375,-0.00008281460031867027,-0.003119777189567685,0.0008976692333817482
1783246368145794600,7.983794677734375,0.0005675985012203455,0.0022451861295849085,-0.0008830719161778688
