time,seconds_elapsed,z,y,x
1783246417575915300,0.061915283203125,0.0008002105168998241,-0.004193603992462158,0.0005453941412270069
1783246417585927200,0.07192724609375,0.00008728238753974438,-0.0001863457728177309,-0.0005270605906844139
1783246417595940000,0.081940185546875,0.0000025453045964241028,-0.0004330170340836048,0.00004212185740470886
1783246417605951000,0.091950927734375,-0.0003410025965422392,-0.0013576666824519634,-0.0007938442286103964
1783246417615963000,0.101962890625,0.0005921230185776949,-0.0010623850394040346,-0.0012566354125738144
1783246417625974000,0.11197412109375,-0.0014531845226883888,0.00025428179651498795,-0.000848905649036169
1783246417635986200,0.121986083984375,0.0003948383964598179,0.0007640738040208817,-0.00009796023368835449
1783246417645997000,0.1319970703125,0.001022811746224761,-0.0011083947028964758,-0.00016560452058911324
1783246417656009000,0.142009033203125,-0.0010360630694776773,-0.00032360805198550224,-0.001014026114717126
1783246417666021000,0.152021240234375,0.0018492054659873247,0.00039730966091156006,-0.002343476051464677
1783246417676032000,0.162031982421875,-0.0003991017583757639,0.0006140952464193106,-0.0009284806437790394
1783246417686044000,0.1720439453125,-0.0005253355484455824,0.0006628310075029731,0.00010402686893939972
1783246417696055000,0.182054931640625,0.0009517602156847715,-0.0007647196762263775,-0.000507366843521595
1783246417706067200,0.192067138671875,-0.00036517297849059105,-0.00017829169519245625,-0.0001611555926501751
1783246417716078000,0.202078125,-0.00019674282521009445,0.00033391336910426617,-0.0008541780989617109
1783246417726090000,0.212090087890625,-0.0007570721209049225,0.0003094123676419258,0.00013678427785634995
1783246417736102100,0.22210205078125,0.0003059995360672474,-0.0009355866350233555,-0.00014211051166057587
1783246417746113000,0.232113037109375,0.000042080413550138474,-0.0009409128688275814,-0.0006747427396476269
1783246417756125000,0.242125,-0.0008150788489729166,0.001608077553100884,0.0012546493671834469
1783246417766135800,0.2521357421875,0.0015418187249451876,0.0007513386663049459,-0.0016756269615143538
1783246417776148000,0.26214794921875,0.0007296865805983543,0.00016097817569971085,-0.00042778486385941505
1783246417786159000,0.2721591796875,0.0013685788726434112,-0.0011993644293397665,-0.0013377871364355087
1783246417796171000,0.2821708984375,-0.0016006305813789368,0.0007402008632197976,-0.0009516221471130848
1783246417806183200,0.29218310546875,-0.00040247454307973385,0.0005838732467964292,-0.0002288403920829296
1783246417816194000,0.302194091796875,-0.00035691820085048676,0.00012950750533491373,-0.0002018357627093792
1783246417826206000,0.3122060546875,-0.000061041209846735,0.0004733216483145952,0.001579818781465292
1783246417836216800,0.322216796875,0.0009645270183682442,0.0004362232284620404,-0.00029396358877420425
1783246417846229000,0.33222900390625,0.00031604734249413013,-0.0004269073251634836,-0.00040475139394402504
1783246417856240000,0.342240234375,0.0016241708071902394,0.0006044723559170961,-0.0004345132037997246
1783246417866252000,0.352251953125,0.0007772855460643768,0.0007187220035120845,-0.0011556970421224833
1783246417876264200,0.36226416015625,0.00016033649444580078,0.000033945776522159576,-0.0009387964382767677
1783246417886275000,0.372275146484375,0.0007217309903353453,-0.0004590053576976061,-0.0004730094224214554
1783246417896287000,0.382286865234375,-0.00007319170981645584,0.0012275287881493568,0.0004109572619199753
1783246417906297900,0.3922978515625,0.00048580579459667206,0.00032951089087873697,0.0008205515332520008
1783246417916310000,0.40231005859375,-0.0000934121198952198,-0.0001756451092660427,-0.00020056823268532753
1783246417926321200,0.412321044921875,-0.000728576211258769,-0.00029601994901895523,0.001276154536753893
1783246417936333000,0.4223330078125,-0.000007498310878872871,-0.0001215680968016386,-0.0006773280911147594
1783246417946345200,0.43234521484375,0.0002662746701389551,0.0006350360345095396,0.0001122988760471344
1783246417956356000,0.442356201171875,-0.0017596750985831022,0.0011568900663405657,0.00044638989493250847
1783246417966368000,0.452367919921875,0.000819862587377429,0.00027511734515428543,-0.0009712106548249722
1783246417976379000,0.46237890625,0.000465963501483202,-0.00004109297879040241,0.0017581204883754253
1783246417986391000,0.47239111328125,0.0010348146315664053,0.0020055463537573814,-0.0004435144364833832
1783246417996402000,0.48240185546875,-0.0008970531634986401,-0.0005099349655210972,0.00048174988478422165
1783246418006413800,0.492413818359375,0.0015852791257202625,0.00003494787961244583,0.000868440605700016
1783246418016426000,0.502426025390625,-0.000022317515686154366,0.0003432799130678177,-0.0005509085021913052
1783246418026437000,0.51243701171875,0.001219780882820487,0.0017491625621914864,0.0011623031459748745
1783246418036449000,0.522448974609375,0.001024802215397358,-0.0001975309569388628,-0.0017506708391010761
1783246418046460000,0.5324599609375,-0.00006123492494225502,0.000032033538445830345,0.000827801413834095
1783246418056472000,0.54247216796875,0.00015379441902041435,-0.0008870079182088375,-0.00018601398915052414
1783246418066483000,0.55248291015625,0.0009881628211587667,-0.0001650247722864151,0.0003908267244696617
1783246418076494800,0.562494873046875,0.00022026337683200836,0.00020350981503725052,-0.000007991213351488113
1783246418086507000,0.572507080078125,0.001661832444369793,-0.00017279479652643204,0.0008886950090527534
1783246418096518100,0.58251806640625,0.0007430980913341045,-0.00020216847769916058,-0.00017855875194072723
1783246418106530000,0.592530029296875,0.0008062149863690138,-0.000911634648218751,-0.0007253056392073631
1783246418116541000,0.602541015625,-0.0013730707578361034,-0.0012576666194945574,-0.0004764040932059288
1783246418126553000,0.612552978515625,0.00018887314945459366,0.0003628669073805213,-0.001253248192369938
1783246418136564000,0.62256396484375,0.0005188758950680494,-0.00044785882346332073,0.0007542683742940426
1783246418146576000,0.632575927734375,-0.0016563942190259695,0.000208343961276114,-0.0011560171842575073
1783246418156588000,0.642588134765625,0.00039630825631320477,-0.0007319008000195026,0.0009013391099870205
1783246418166599000,0.652598876953125,0.0008335993625223637,0.00005959067493677139,-0.0004169256426393986
1783246418176611000,0.662611083984375,-0.0012369423639029264,0.0015993218403309584,0.00024385936558246613
1783246418186622000,0.6726220703125,-0.0000752713531255722,0.0006866564508527517,0.0012204404920339584
1783246418196634000,0.682634033203125,0.0005511082708835602,0.0005641772877424955,-0.0006408286280930042
1783246418206645000,0.69264501953125,0.00020915851928293705,0.0009407482575625181,-0.0006094034761190414
1783246418216657000,0.702656982421875,0.0002923265565186739,0.0002358651254326105,-0.00020622462034225464
1783246418226669000,0.7126689453125,-0.001986274030059576,0.0005328075494617224,-0.00006907200440764427
1783246418236680000,0.722679931640625,0.0014517452800646424,0.001240863581188023,0.0007743700407445431
1783246418246691800,0.73269189453125,-0.0008518891409039497,0.0009857327677309513,0.0001525217667222023
1783246418256703000,0.742702880859375,-0.000005471985787153244,-0.000361298443749547,0.0005209166556596756
1783246418266715100,0.752715087890625,-0.000022516120225191116,0.00021421071141958237,-0.0006428845226764679
1783246418276727000,0.76272705078125,-0.00012903381139039993,0.0009594657458364964,0.00003053387627005577
1783246418286738000,0.772738037109375,0.0003303615376353264,0.0006795675726607442,0.0009349435567855835
1783246418296750000,0.78275,0.00025414442643523216,0.0009105700301006436,-0.000346246175467968
1783246418306761000,0.792760986328125,0.00021153385750949383,0.0003169514238834381,0.0014103748835623264
1783246418316772900,0.80277294921875,-0.00009199650958180428,0.00043820496648550034,-0.0013954727910459042
1783246418326784000,0.812783935546875,-0.00018174503929913044,0.0012917481362819672,-0.0006796151865273714
1783246418336796200,0.822796142578125,0.00043461169116199017,0.0016687277238816023,0.00016649439930915833
1783246418346807000,0.83280712890625,-0.0004948314744979143,-0.0006897677667438984,-0.00044203782454133034
1783246418356819000,0.84281884765625,-0.0005461550317704678,0.0002757720649242401,-0.00008396152406930923
1783246418366831000,0.8528310546875,-0.0009054155088961124,0.000531435594893992,-0.0005042082630097866
1783246418376842000,0.862842041015625,0.000197715125977993,-0.0001738418359309435,-0.0002541891299188137
1783246418386854000,0.87285400390625,0.00008746027015149593,0.00021231663413345814,0.00018336810171604156
1783246418396864800,0.88286474609375,0.000717265997081995,-0.0001095733605325222,0.00006189337000250816
1783246418406877000,0.892876953125,0.0008235261775553226,-0.0008571227081120014,-0.0009879248682409525
1783246418416888000,0.90288818359375,0.0005644864868372679,-0.00040647760033607483,-0.0010093683376908302
1783246418426900000,0.91289990234375,0.001380479079671204,0.0007224363507702947,0.0007070391438901424
1783246418436912000,0.922912109375,-0.0007373692933470011,-0.000032516662031412125,0.0004579564556479454
1783246418446923000,0.932923095703125,-0.00005400204099714756,0.001053520361892879,-0.0021229127887636423
1783246418456935000,0.942934814453125,-0.0007721642032265663,0.0003598089097067714,-0.000657147727906704
1783246418466945800,0.95294580078125,-0.0005788186099380255,0.0002026824513450265,-0.0001729852519929409
1783246418476958000,0.9629580078125,0.00043414346873760223,0.000668324064463377,0.000933697447180748
1783246418486969000,0.972968994140625,-0.0010574930347502232,-0.00019161077216267586,0.0008652540855109692
1783246418496981000,0.98298095703125,0.00021050707437098026,0.00015426753088831902,-0.00047947047278285027
1783246418506993200,0.9929931640625,-0.0008283921051770449,0.0015183386858552694,-0.00016495119780302048
1783246418517004000,1.003004150390625,0.0015077166026458144,0.00004290766082704067,-0.0006043147295713425
1783246418527016000,1.013015869140625,0.000525276642292738,0.00020908878650516272,0.00033950991928577423
1783246418537026800,1.02302685546875,-0.0009955596178770065,-0.0007073218002915382,0.0018111630342900753
1783246418547039000,1.0330390625,-0.00028928928077220917,0.0006375745870172977,0.0004508201964199543
1783246418557051000,1.04305078125,0.0003249598667025566,-0.00008124345913529396,-0.0003901831805706024
1783246418567062000,1.05306201171875,-0.0004305788315832615,-0.0011632856912910938,-0.00011241575703024864
1783246418577074200,1.06307421875,0.000325141241773963,0.00023157440591603518,0.0004927683621644974
1783246418587085000,1.0730849609375,0.0015134437708184123,-0.0010629883036017418,0.001904776319861412
1783246418597096700,1.0830966796875,-0.0005631656385958195,-0.00027603236958384514,-0.0011262963525950909
1783246418607107600,1.093107666015625,0.00024217437021434307,-0.0015719265211373568,0.00043591391295194626
1783246418617119500,1.103119384765625,0.0005551187787204981,-0.000991123728454113,-0.0006043631583452225
1783246418627131400,1.11313134765625,-0.0002973591908812523,-0.001137065002694726,0.0011927378363907337
1783246418637142800,1.123142822265625,-0.001319363247603178,0.00038947362918406725,0.00016248831525444984
1783246418647154700,1.13315478515625,0.0011664312332868576,-0.0005932329222559929,-0.0008156904950737953
1783246418657165600,1.14316552734375,0.0008300347253680229,-0.0007099080830812454,0.0005072131752967834
1783246418667177700,1.153177734375,0.00031338143162429333,-0.0003620993811637163,0.0005242573097348213
1783246418677188600,1.163188720703125,0.0002387280110269785,0.0008589505450800061,-0.00021328916773200035
1783246418687200500,1.173200439453125,-0.000023593194782733917,0.0008123451843857765,-0.0004345979541540146
1783246418697211400,1.18321142578125,-0.000003673834726214409,-0.00021883915178477764,0.0007279636338353157
1783246418707223600,1.1932236328125,-0.000055339187383651733,-0.0002031263429671526,0.0006744340062141418
1783246418717235500,1.2032353515625,-0.0010589829180389643,0.0005302296485751867,-0.0009043000172823668
1783246418727246600,1.21324658203125,0.0004483661614358425,-0.0011624754406511784,0.0010922718793153763
1783246418737258800,1.2232587890625,-0.00044778850860893726,-0.0004645022563636303,-0.00036077387630939484
1783246418747269600,1.23326953125,-0.0013966728001832962,0.0012516388669610023,0.0009750677272677422
1783246418757281500,1.243281494140625,0.000367872416973114,-0.0006561989430338144,0.00021596113219857216
1783246418767292400,1.25329248046875,0.0010805341880768538,-0.00019387411884963512,-0.0001390380784869194
1783246418777304600,1.2633046875,-0.00028734770603477955,-0.000528253149241209,-0.0014412377495318651
1783246418787316500,1.27331640625,-0.0002146435435861349,0.002524262061342597,0.0001763659529387951
1783246418797327600,1.28332763671875,0.00013437611050903797,0.0005663405172526836,0.00010849116370081902
1783246418807339800,1.29333984375,0.0009090895764529705,0.0007756650447845459,-0.002187952632084489
1783246418817350700,1.3033505859375,0.0000010628718882799149,0.001440191175788641,0.0006256760098040104
1783246418827362600,1.313362548828125,0.00048096454702317715,0.0008028966840356588,-0.0003905864432454109
1783246418837374700,1.323374755859375,0.000127843813970685,-0.00011161458678543568,0.0004940242506563663
1783246418847385600,1.333385498046875,0.0002729860134422779,0.000023940345272421837,0.00025380728766322136
1783246418857397500,1.3433974609375,-0.00006750132888555527,0.0002489930484443903,-0.0009707855060696602
1783246418867408600,1.35340869140625,0.00023423484526574612,-0.0005345090758055449,0.0013232612982392311
1783246418877420500,1.363420654296875,0.000009334413334727287,-0.0008439377415925264,-0.0010087275877594948
1783246418887431700,1.373431640625,-0.00002262345515191555,0.00015661190263926983,0.00015853578224778175
1783246418897443600,1.383443603515625,0.0008904868736863136,-0.0002923568245023489,-0.0002874252386391163
1783246418907455700,1.393455810546875,0.0002997978590428829,0.00036863971035927534,0.00018368801102042198
1783246418917466600,1.403466552734375,0.00017318082973361015,0.00035855371970683336,-0.00025836098939180374
1783246418927478500,1.413478515625,-0.0021597484592348337,-0.0002830016892403364,0.00011581322178244591
1783246418937489400,1.423489501953125,0.00010782480239868164,-0.0011454618070274591,0.0002606259658932686
1783246418947501600,1.43350146484375,-0.0009172256104648113,0.0010676250094547868,-0.0002472386695444584
1783246418957512700,1.4435126953125,-0.0013516196049749851,-0.0004050454590469599,0.0011655278503894806
1783246418967524600,1.453524658203125,-0.0002687780652195215,-0.00036270124837756157,0.0003207731060683727
1783246418977536800,1.463536865234375,-0.00025891605764627457,-0.0006498310249298811,0.00015763984993100166
1783246418987547600,1.473547607421875,0.00011925282888114452,0.0008601812878623605,-0.0008026962168514729
1783246418997559600,1.4835595703125,0.00020710797980427742,-0.001389980548992753,0.0003697257488965988
1783246419007570400,1.4935703125,-0.000058409059420228004,-0.0006086090579628944,0.00032525090500712395
1783246419017582600,1.50358251953125,0.0003646533004939556,0.000008841976523399353,0.00023914361372590065
1783246419027593700,1.51359375,0.001392100821249187,0.0004349477821961045,-0.00025647087022662163
1783246419037605600,1.523605712890625,-0.0007346817292273045,-0.0005371673032641411,0.0007475842721760273
1783246419047617800,1.53361767578125,0.00025761197321116924,-0.0004372987896203995,-0.0005842628888785839
1783246419057628700,1.543628662109375,0.0017851494485512376,0.0006348001770675182,0.0002766246907413006
1783246419067640600,1.553640625,0.0008056387305259705,0.0005972496001049876,0.001194083597511053
1783246419077651500,1.5636513671875,0.00001318356953561306,0.00013977382332086563,0.0009305095300078392
1783246419087663600,1.57366357421875,0.0018779289675876498,-0.0001206833403557539,0.00042104674503207207
1783246419097674500,1.583674560546875,-0.0016363111790269613,0.0004407134838402271,0.00015908107161521912
1783246419107686400,1.593686279296875,0.00002443627454340458,-0.0008410660084336996,-0.0008750241249799728
1783246419117698600,1.603698486328125,0.00015387148596346378,0.0007908815750852227,0.001534801907837391
1783246419127709700,1.613709716796875,0.00104123679921031,-0.0003228522837162018,-0.0012929423246532679
1783246419137721600,1.6237216796875,0.00021236389875411987,0.000776496366597712,-0.0006466321647167206
1783246419147732500,1.633732421875,0.00023872917518019676,-0.0006549528334289789,0.00015737628564238548
1783246419157744600,1.64374462890625,0.00043052854016423225,-0.00015823985449969769,-0.0008073141798377037
1783246419167755500,1.653755615234375,0.000513352919369936,0.0001578773371875286,0.0005354513414204121
1783246419177767400,1.663767333984375,0.0012579220347106457,0.00022973795421421528,0.00040968507528305054
1783246419187779600,1.673779541015625,0.0002717534080147743,0.0004326708149164915,-0.0005557108670473099
1783246419197790700,1.683790771484375,0.0010590297169983387,0.0006632085423916578,-0.0011969995684921741
1783246419207802600,1.693802734375,0.0008291988633573055,0.0006443001329898834,0.00004083756357431412
1783246419217813500,1.7038134765625,0.00016877776943147182,-0.0010121744126081467,-0.0003334181383252144
1783246419227825700,1.71382568359375,-0.00046159233897924423,-0.00003745756112039089,0.0002958872355520725
1783246419237836500,1.72383642578125,-0.00040167057886719704,0.0015179102774709463,-0.0005379300564527512
1783246419247848400,1.733848388671875,-0.0006181856151670218,0.0006486544152721763,0.00036221835762262344
1783246419257860600,1.743860595703125,0.0005928946193307638,0.00011499272659420967,-0.0005148346535861492
1783246419267871700,1.753871826171875,-0.0003416086547076702,0.0018609610851854086,-0.0008967318572103977
1783246419277883600,1.763883544921875,-0.0005887583829462528,-0.0009200016502290964,-0.0007112645544111729
1783246419287894500,1.77389453125,0.00009753811173141003,0.00017988402396440506,-0.0004409537650644779
1783246419297906700,1.78390673828125,-0.00007779384031891823,-0.00016100984066724777,-0.0007116436026990414
1783246419307917600,1.79391748046875,0.0006945228669792414,0.0006091763498261571,0.00009582703933119774
1783246419317929500,1.803929443359375,-0.0003053746186196804,0.0010446013184264302,-0.0006786170415580273
1783246419327941600,1.813941650390625,0.001605709781870246,0.001639018882997334,-0.00029538804665207863
1783246419337952500,1.823952392578125,0.000794729683548212,0.00008591962978243828,-0.00034295255318284035
1783246419347964400,1.83396435546875,0.000523886177688837,-0.0009146297816187143,0.0005223085172474384
1783246419357975600,1.8439755859375,-0.001265183323994279,-0.0005093787331134081,-0.001445620320737362
1783246419367987700,1.85398779296875,0.001515689305961132,-0.0007226979359984398,0.00027904286980628967
1783246419377998600,1.86399853515625,-0.0007900840137153864,0.0002510728081688285,-0.0011957695242017508
1783246419388010500,1.874010498046875,-0.0007120531518012285,-0.0005630555097013712,-0.0003922940231859684
1783246419398022700,1.884022705078125,0.001168790040537715,0.0004626592854037881,0.0006523774936795235
1783246419408033500,1.894033447265625,-0.00013322941958904266,-0.00019673933275043964,-0.0009777434170246124
1783246419418045400,1.90404541015625,-0.0004684450104832649,0.0014128545299172401,-0.0009854098316282034
1783246419428056600,1.914056640625,0.00019654608331620693,0.0003284153062850237,-0.0016256337985396385
1783246419438068700,1.92406884765625,0.00043775863014161587,-0.0009559893514961004,0.0010046078823506832
1783246419448079600,1.93407958984375,0.0006172556895762682,-0.0005759564228355885,-0.00015386706218123436
1783246419458091500,1.944091552734375,-0.0001817760057747364,-0.00042240810580551624,-0.0012078071013092995
1783246419468103700,1.954103759765625,-0.0003330435138195753,-0.0008834011387079954,0.0007663941942155361
1783246419478114600,1.964114501953125,-0.0008898635860532522,0.00195506913587451,0.0011966708116233349
1783246419488126500,1.97412646484375,0.00013598636724054813,-0.0007616216316819191,-0.0006060227751731873
1783246419498137600,1.9841376953125,-0.0008265990763902664,0.00045899837277829647,-0.0007707523182034492
1783246419508149500,1.9941494140625,-0.0010452447459101677,0.0014539554249495268,0.00023592263460159302
1783246419518160600,2.00416064453125,-0.00041476311162114143,-0.00005780183710157871,-0.0007147439755499363
1783246419528172500,2.014172607421875,-0.0011119786649942398,0.00026337546296417713,-0.0003645382821559906
1783246419538184700,2.024184814453125,-0.00014485744759440422,-0.0004325665067881346,0.0004894617013633251
1783246419548195600,2.034195556640625,0.00016460195183753967,-0.0003763739950954914,-0.0009904569014906883
1783246419558207500,2.04420751953125,-0.00018768198788166046,0.00039348029531538486,-0.002003957750275731
1783246419568218400,2.05421826171875,-0.0006111245602369308,0.00045739614870399237,-0.0022276632953435183
1783246419578230500,2.06423046875,0.0014291724655777216,0.00032312050461769104,-0.0002583358436822891
1783246419588241700,2.07424169921875,-0.00019988324493169785,0.0007180672837421298,0.0006479378789663315
1783246419598253600,2.084253662109375,0.0011732568964362144,-0.00023727957159280777,-0.0013152833562344313
1783246419608265500,2.094265380859375,-0.0013450284022837877,0.001454626675695181,-0.00037785060703754425
1783246419618276400,2.1042763671875,-0.0007632242050021887,-0.0005671507678925991,0.0012415987439453602
1783246419628288500,2.11428857421875,0.000289789866656065,0.0002379228826612234,-0.0011296800803393126
1783246419638299400,2.12429931640625,0.0004741998855024576,0.0000693236943334341,-0.000653010793030262
1783246419648311300,2.134311279296875,-0.0007399353198707104,0.0012123523047193885,-0.0005360981449484825
1783246419658322700,2.14432275390625,0.0007300530560314655,0.0011041866382583976,-0.0004253312945365906
1783246419668334600,2.15433447265625,0.001955905929207802,0.00005463487468659878,-0.0012314703781157732
1783246419678346500,2.164346435546875,-0.0003172997385263443,-0.0006537341978400946,0.0003354214131832123
1783246419688357400,2.174357421875,-0.0009268971625715494,0.0004898271290585399,-0.00012823520228266716
1783246419698369500,2.18436962890625,0.000630565918982029,-0.00027316249907016754,0.000595353078097105
1783246419708380400,2.19438037109375,0.0010702537838369608,0.0006821133429184556,0.0000022668391466140747
1783246419718392300,2.204392333984375,0.00002003251574933529,0.0003900283481925726,-0.0003307284787297249
1783246419728404500,2.214404541015625,-0.00014748028479516506,0.0013745990581810474,-0.0001637483946979046
1783246419738415400,2.224415283203125,-0.00020853104069828987,0.0005506235174834728,0.001555025577545166
1783246419748427300,2.23442724609375,0.0003299601376056671,0.0011809937423095107,-0.00044234516099095345
1783246419758438400,2.2444384765625,0.0013680387055501342,0.0005589432548731565,0.00004610372707247734
1783246419768450600,2.254450439453125,0.00020263949409127235,0.0011459039524197578,0.0008133603259921074
1783246419778461400,2.26446142578125,0.00022553978487849236,-0.00048371730372309685,0.0007455232553184032
1783246419788473300,2.274473388671875,-0.0011353353038430214,0.0005927324527874589,-0.0002659452147781849
1783246419798485500,2.284485595703125,-0.0004757402930408716,0.001642229501157999,-0.0008323362562805414
1783246419808496400,2.294496337890625,-0.0018041252624243498,0.0018757887883111835,-0.001114098820835352
1783246419818508300,2.30450830078125,0.0009786130394786596,-0.0005462286062538624,0.00010535912588238716
1783246419828519400,2.31451953125,-0.00012979470193386078,-0.00048337806947529316,0.0006558345630764961
1783246419838531600,2.324531494140625,-0.00024655438028275967,-0.00010019424371421337,0.00007123872637748718
1783246419848542500,2.33454248046875,0.001034692395478487,0.0007080751238390803,0.00032157590612769127
1783246419858554400,2.344554443359375,0.0015779916429892182,0.00019890745170414448,0.00034931255504488945
1783246419868566500,2.35456640625,0.0008964887820184231,0.00100637786090374,0.0016209715977311134
1783246419878577400,2.364577392578125,-0.0008649083320051432,-0.00021088076755404472,0.0006488403305411339
1783246419888589300,2.37458935546875,-0.00024119624868035316,0.00037714524660259485,0.0012680250220000744
1783246419898600400,2.384600341796875,-0.000687118386849761,-0.00009689247235655785,0.0009422395378351212
1783246419908612600,2.394612548828125,0.00030197971500456333,0.000181674025952816,-0.00011982908472418785
1783246419918623500,2.40462353515625,-0.000032419804483652115,0.0005520704435184598,0.0007925434038043022
1783246419928635400,2.414635498046875,0.0007090042345225811,0.0003307617735117674,-0.0011462378315627575
1783246419938647600,2.4246474609375,-0.0007580802775919437,0.0005311549175530672,-0.00011112447828054428
1783246419948658400,2.434658447265625,-0.00004142359830439091,0.0006637802580371499,0.00030645914375782013
1783246419958670300,2.44467041015625,0.0006962425541132689,-0.00001398799940943718,-0.0005404497496783733
1783246419968681500,2.454681396484375,0.00048478739336133003,-0.000057930126786231995,0.001237476710230112
1783246419978693400,2.464693359375,0.0002444458659738302,-0.00048155500553548336,0.0011899285018444061
1783246419988704500,2.47470458984375,-0.0014285517390817404,-0.00008767331019043922,0.0013744854368269444
1783246419998716400,2.48471630859375,-0.000047087203711271286,-0.0003280669916421175,-0.0004007243551313877
1783246420008728600,2.494728515625,-0.00033817067742347717,0.00021148938685655594,-0.0005333495792001486
1783246420018739500,2.504739501953125,-0.001992488745599985,0.0004933138843625784,-0.00033484725281596184
1783246420028751400,2.51475146484375,0.000921275932341814,0.002232358092442155,0.0024843751452863216
1783246420038762500,2.524762451171875,-0.0004084997344762087,0.0006939484737813473,-0.00022632256150245667
1783246420048774400,2.5347744140625,-0.00034378492273390293,-0.0001673176884651184,0.0013100551441311836
1783246420058785500,2.54478564453125,-0.0006671333685517311,-0.0006233523599803448,0.0003260192461311817
1783246420068797400,2.55479736328125,-0.0010591507889330387,-0.0004680901765823364,-0.000059606507420539856
1783246420078809600,2.5648095703125,-0.0007162203546613455,-0.0006811397615820169,0.001368459314107895
1783246420088820500,2.574820556640625,0.00018898816779255867,0.0005058312090113759,-0.00036312825977802277
1783246420098832400,2.584832275390625,-0.0007505710236728191,-0.0005118700210005045,0.0011146795004606247
1783246420108843500,2.594843505859375,-0.0026081260293722153,0.0005898796953260899,-0.0007729690987616777
1783246420118855400,2.60485546875,-0.0006928443908691406,0.0001485743559896946,0.0015605431981384754
1783246420128866600,2.614866455078125,-0.0008276004809886217,0.0004271410871297121,-0.00058596464805305
1783246420138878500,2.62487841796875,0.0005462465342134237,0.00012962520122528076,-0.0003879270516335964
1783246420148890400,2.634890380859375,-0.00032194401137530804,0.001781850354745984,-0.0006675589829683304
1783246420158901500,2.644901611328125,-0.0010542471427470446,-0.0003707983996719122,-0.001240807818248868
1783246420168913400,2.654913330078125,0.0002640176098793745,0.00034133088774979115,0.0001709340140223503
1783246420178924500,2.664924560546875,0.0005886973813176155,-0.00034784944728016853,-0.0004801058676093817
1783246420188936400,2.6749365234375,0.00014900951646268368,-0.00037341564893722534,0.0006314972415566444
1783246420198947300,2.684947265625,0.0011499656829982996,-0.0003586914390325546,0.0011758129112422466
1783246420208959200,2.694959228515625,-0.0006354174111038446,-0.0006396549288183451,0.0005877870135009289
1783246420218971400,2.704971435546875,-0.0003531975671648979,0.0006751157343387604,0.0006401222199201584
1783246420228982500,2.714982421875,-0.001800093101337552,-0.0006354257930070162,-0.00006481632590293884
1783246420238994400,2.724994384765625,-0.0007952309679239988,0.00067089032381773,0.0006620134226977825
1783246420249005600,2.735005615234375,0.0009398183319717646,0.0005052416818216443,0.0009549614042043686
1783246420259017500,2.745017578125,-0.00028050527907907963,-0.0005904531572014093,-0.0004898619372397661
1783246420269028400,2.7550283203125,-0.00027224933728575706,-0.00005302741192281246,-0.00021236063912510872
1783246420279040500,2.76504052734375,-0.0005695025902241468,0.0007539755897596478,0.0005185743793845177
1783246420289052400,2.775052490234375,-0.00020225276239216328,0.0003249403089284897,-0.000017520040273666382
1783246420299063600,2.7850634765625,-0.00017555267550051212,-0.00013723666779696941,0.00007983529940247536
1783246420309075500,2.795075439453125,-0.000021355459466576576,0.0011599890422075987,0.0008494891226291656
1783246420319086600,2.805086669921875,-0.00012149172835052013,0.00032746430952101946,-0.00039784517139196396
1783246420329098500,2.815098388671875,0.0005285858642309904,-0.0004850660916417837,0.0012748860754072666
1783246420339110400,2.8251103515625,0.0006760451942682266,0.00021353340707719326,-0.000015707220882177353
1783246420349121500,2.83512158203125,-0.00023369072005152702,-0.0005324180237948895,0.0007169283926486969
1783246420359133400,2.845133544921875,-0.0002560985740274191,0.0006744483252987266,0.0014232122339308262
1783246420369144300,2.855144287109375,-0.0016100495122373104,-0.0011785791721194983,-0.0004186299629509449
1783246420379156200,2.86515625,-0.00029458501376211643,0.0011976971291005611,-0.0013697005342692137
1783246420389167600,2.875167724609375,0.0012718862853944302,0.0000022042077034711838,-0.00019498029723763466
1783246420399179500,2.885179443359375,0.000608192291110754,0.0012775075156241655,0.001165882684290409
1783246420409191400,2.89519140625,0.00042683095671236515,0.0002231620019301772,0.0007941052317619324
1783246420419202600,2.90520263671875,0.0014308368554338813,-0.00030325097031891346,0.000009331852197647095
1783246420429214500,2.91521435546875,0.0009221730288118124,0.00007598311640322208,-0.00015578418970108032
1783246420439225300,2.925225341796875,-0.0017038697842508554,0.00026753952261060476,0.0000015101395547389984
1783246420449237200,2.9352373046875,0.000012537697330117226,-0.001452063675969839,0.0006675664335489273
1783246420459248600,2.94524853515625,0.0008683288469910622,0.0006124048959463835,0.0005341465584933758
1783246420469260500,2.955260498046875,0.0007090717554092407,0.00042491836939007044,-0.0009561586193740368
1783246420479272400,2.9652724609375,-0.0003873007372021675,0.00041956023778766394,0.0005745086818933487
1783246420489283600,2.97528369140625,0.0008294975850731134,0.0009103808552026749,0.0006216466426849365
1783246420499295500,2.98529541015625,0.0010357726132497191,0.00021577882580459118,-0.0008908987510949373
1783246420509306400,2.995306396484375,-0.000595413614064455,-0.000020443694666028023,-0.00013642525300383568
1783246420519318300,3.005318359375,-0.0010024807415902615,-0.000269182026386261,0.0006110882386565208
1783246420529329700,3.01532958984375,-0.00023229466751217842,-0.0007456215098500252,0.0013258806429803371
1783246420539341600,3.025341552734375,-0.0015602200292050838,0.0012452516239136457,-0.0006964448839426041
1783246420549353500,3.035353515625,-0.0008182632736861706,-0.00008766050450503826,0.0004750797525048256
1783246420559364600,3.045364501953125,-0.0007859966717660427,0.0008411710150539875,0.0012767692096531391
1783246420569376500,3.05537646484375,0.00007127481512725353,0.00010001333430409431,0.0003582448698580265
1783246420579387400,3.065387451171875,0.0012553991982713342,-0.001780747203156352,-0.00009666197001934052
1783246420589399300,3.0753994140625,-0.00022771512158215046,0.00011462438851594925,-0.0010205123107880354
1783246420599411000,3.085410888671875,-0.0005116185639053583,-0.0004155749920755625,0.0005922317504882812
1783246420609422800,3.0954228515625,-0.0004548933357000351,-0.0003860138822346926,0.0008183340542018414
1783246420619435000,3.10543505859375,0.00014301412738859653,0.0004200096009299159,0.0005512973293662071
1783246420629446100,3.115446044921875,-0.0010548760183155537,-0.00038612913340330124,0.00023358222097158432
1783246420639458000,3.1254580078125,-0.00011541694402694702,0.0005581100704148412,0.001259226817637682
1783246420649469000,3.135468994140625,0.00020336336456239223,-0.00007092859596014023,0.000032042618840932846
1783246420659481000,3.145481201171875,0.0004178208764642477,0.0011357356561347842,-0.00028008269146084785
1783246420669492000,3.155491943359375,0.0016609843587502837,0.0013234885409474373,0.0005047507584095001
1783246420679504000,3.16550390625,0.0005698052700608969,-0.000524566974490881,-0.0006888033822178841
1783246420689516000,3.17551611328125,0.0012592975981533527,0.00030101300217211246,-0.0010499279014766216
1783246420699527000,3.18552685546875,0.000641803489997983,0.0012618418550118804,0.0004974897019565105
1783246420709538800,3.195538818359375,-0.00026819854974746704,-0.00005402602255344391,0.0005574105307459831
1783246420719550000,3.205550048828125,-0.00036195339635014534,0.0006875025574117899,0.0008539264090359211
1783246420729562000,3.21556201171875,0.0009246198460459709,-0.0007431474514305592,-0.00007311999797821045
1783246420739574000,3.225573974609375,-0.0011972177308052778,0.0003703442635014653,-0.0001924680545926094
1783246420749585000,3.2355849609375,0.0009303814731538296,0.0017205668846145272,-0.000831094104796648
1783246420759597000,3.24559716796875,0.0006720498204231262,-0.000024089589715003967,0.0006367112509906292
1783246420769608000,3.25560791015625,0.0006675224285572767,0.0002949570771306753,0.00044789304956793785
1783246420779619800,3.265619873046875,-0.0016692581120878458,0.0006100359605625272,0.00043411506339907646
1783246420789631000,3.275630859375,0.0000037394929677248,0.0006087044021114707,0.00026287371292710304
1783246420799643100,3.28564306640625,-0.000046454137191176414,0.00009359745308756828,0.0009693130850791931
1783246420809655000,3.295655029296875,0.001518951845355332,-0.0002451566979289055,-0.0003667948767542839
1783246420819666000,3.305666015625,0.0008217047434300184,-0.00012998096644878387,0.0012276223860681057
1783246420829678000,3.315677978515625,-0.00003556674346327782,0.00040478177834302187,0.0002816673368215561
1783246420839689000,3.32568896484375,-0.0005581239238381386,0.0004218900576233864,-0.0008627425413578749
1783246420849700900,3.335700927734375,0.0000938179437071085,-0.001584002748131752,0.0008043963462114334
1783246420859712000,3.3457119140625,0.00011056405492126942,-0.00005170842632651329,0.001194812823086977
1783246420869724200,3.35572412109375,0.0005854056216776371,0.00019782991148531437,-0.0006270557641983032
1783246420879736000,3.365736083984375,0.000153103144839406,-0.0004154937341809273,-0.00035135773941874504
1783246420889747000,3.375746826171875,0.0018948103534057736,0.0013208872405812144,-0.0006349841132760048
1783246420899759000,3.385759033203125,-0.0009338378440588713,-0.00005193892866373062,0.00005383230745792389
1783246420909770000,3.39577001953125,0.0016227966407313943,0.0004838891327381134,0.000301506370306015
1783246420919782000,3.405781982421875,0.0008430401794612408,-0.00010745762847363949,-0.0003657224588096142
1783246420929792800,3.415792724609375,0.001393781858496368,-0.0008049395401030779,-0.0015580197796225548
1783246420939805000,3.425804931640625,0.0008037439547479153,0.0010206750594079494,-0.000773097388446331
1783246420949816800,3.43581689453125,-0.0000037264544516801834,0.000269397278316319,-0.0008380785584449768
1783246420959828000,3.445827880859375,-0.002034082543104887,-0.0006072232499718666,-0.0010769355576485395
1783246420969840000,3.455840087890625,-0.0006902513559907675,0.00007321452721953392,0.0004988568834960461
1783246420979851000,3.46585107421875,-0.0007458028849214315,0.0002191648818552494,0.0003071487881243229
1783246420989863000,3.47586279296875,0.0007506271358579397,0.0007251654751598835,0.00042379507794976234
1783246420999873800,3.485873779296875,0.00126061518676579,0.00041396101005375385,-0.001990195829421282
1783246421009886000,3.495885986328125,0.0012829857878386974,-0.0015730233862996101,0.0016625961288809776
1783246421019897900,3.50589794921875,0.0006646676920354366,0.0006672920426353812,0.000013994984328746796
1783246421029909000,3.515908935546875,0.00007477751933038235,0.0008949923794716597,-0.00041397521272301674
1783246421039921200,3.525921142578125,0.00022594421170651913,-0.00022726994939148426,-0.00029834313318133354
1783246421049932000,3.53593212890625,-0.0001479636412113905,0.0007565016858279705,0.0003437451086938381
1783246421059944000,3.54594384765625,-0.001527475891634822,0.0006525202188640833,0.0011331923305988312
1783246421069956000,3.5559560546875,0.000637674005702138,-0.00002019433304667473,0.00023384299129247665
1783246421079967000,3.565967041015625,-0.000039072008803486824,-0.00014055846258997917,-0.0004300987347960472
1783246421089979000,3.575978759765625,0.00037904432974755764,0.0018597417511045933,0.0003805677406489849
1783246421099990000,3.585989990234375,-0.0009442409500479698,0.00042102194856852293,-0.000761022325605154
1783246421110002000,3.596001953125,-0.0006060195155441761,-0.0011867282446473837,0.000523420050740242
1783246421120013000,3.606012939453125,0.00022796145640313625,0.00016365083865821362,0.00001965649425983429
1783246421130025000,3.61602490234375,-0.000654077623039484,-0.0005221129395067692,-0.00033720722422003746
1783246421140037000,3.626037109375,-0.00043450878001749516,-0.0008411586750298738,-0.00013029435649514198
1783246421150048000,3.636048095703125,-0.001626805867999792,0.0010291794314980507,0.00030779559165239334
1783246421160060000,3.646059814453125,-0.00009558000601828098,0.0010776093695312738,-0.000051697250455617905
1783246421170070800,3.65607080078125,0.0009744779672473669,-0.0013064523227512836,0.00018532387912273407
1783246421180083000,3.6660830078125,0.00009058462455868721,-0.0009927835781127214,-0.0004895525053143501
1783246421190094000,3.676093994140625,-0.0011251484975218773,-0.001211429014801979,-0.0010650618933141232
1783246421200106000,3.68610595703125,0.0014572602231055498,-0.00030047004111111164,-0.00014762906357645988
1783246421210118100,3.6961181640625,0.0005390022415667772,0.00074002705514431,0.0010968660935759544
1783246421220129000,3.70612890625,-0.00016295304521918297,0.00010506529361009598,-0.00004907045513391495
1783246421230141000,3.716140869140625,-0.00022660265676677227,-0.0009535413701087236,-0.0010743874590843916
1783246421240151800,3.72615185546875,-0.000831659184768796,0.0006156269228085876,-0.0004881005734205246
1783246421250164000,3.7361640625,0.0008160385768860579,0.0008867367869243026,-0.0007709283381700516
1783246421260175000,3.746175048828125,0.002633141353726387,-0.00016905809752643108,-0.00008085789158940315
1783246421270187000,3.75618701171875,-0.00038262223824858665,-0.0015887892805039883,-0.000673145055770874
1783246421280199200,3.76619921875,-0.001283843768760562,-0.00021412502974271774,-0.0003161155618727207
1783246421290210000,3.7762099609375,0.00018382444977760315,-0.0006644655950367451,-0.00039680954068899155
1783246421300222000,3.786221923828125,-0.0007121500093489885,0.00016485387459397316,-0.00018141744658350945
1783246421310232800,3.79623291015625,0.000049780355766415596,-0.0005259700119495392,0.00021539349108934402
1783246421320245000,3.806244873046875,-0.0004358678124845028,-0.0008863727562129498,0.0007670111954212189
1783246421330257000,3.8162568359375,-0.0007429304532706738,0.00010858406312763691,-0.0012069239746779203
1783246421340267800,3.826267822265625,0.0017712283879518509,-0.0006439059507101774,-0.0002701347693800926
1783246421350280000,3.836280029296875,-0.000638133380562067,-0.0003685350529849529,0.0011517270468175411
1783246421360291000,3.846291015625,0.00027883797883987427,-0.00032428186386823654,-0.00008189864456653595
1783246421370303000,3.856302978515625,-0.001101744594052434,0.0010744103929027915,-0.0007716570980846882
1783246421380313900,3.86631396484375,-0.00040239468216896057,0.000814786646515131,-0.0012439501006156206
1783246421390326000,3.876325927734375,0.00043090851977467537,0.0007711107609793544,0.0005795164033770561
1783246421400338000,3.886337890625,0.0010381070896983147,0.00016324524767696857,-0.0010313913226127625
1783246421410348800,3.896348876953125,-0.0008551343344151974,-0.0012647418770939112,0.00009805522859096527
1783246421420361000,3.90636083984375,0.0005211983807384968,0.0012142807245254517,0.000057470519095659256
1783246421430372000,3.9163720703125,-0.0008082515560090542,0.0015642200596630573,0.0010058223269879818
1783246421440384000,3.926384033203125,0.000005736248567700386,-0.00035607791505753994,0.00023961206898093224
1783246421450395000,3.936394775390625,-0.00008933874778449535,-0.00012598070316016674,-0.00016678636893630028
1783246421460407000,3.946406982421875,0.0003869549836963415,-0.000996986636891961,-0.0000916006974875927
1783246421470419000,3.9564189453125,0.00019041378982365131,0.0008411270100623369,-0.001080698799341917
1783246421480429800,3.966429931640625,-0.001414356054738164,0.0003881386946886778,-0.0001190919429063797
1783246421490442000,3.97644189453125,0.0006786223966628313,0.0006288884906098247,-0.0016085980460047722
1783246421500453000,3.986453125,-0.0017662567552179098,-0.0012890174984931946,-0.001209579175338149
1783246421510465000,3.996465087890625,-0.0008104483131319284,0.0005911741172894835,0.00003837794065475464
1783246421520476000,4.006475830078125,-0.0009687277488410473,0.00013032043352723122,0.0002509080804884434
1783246421530488000,4.016488037109375,0.0003892183303833008,0.00019823096226900816,0.0009012520313262939
1783246421540500000,4.0265,0.0001905667595565319,-0.0010756696574389935,1.3690441846847534e-7
1783246421550510800,4.0365107421875,-0.00036310451105237007,-0.00021600141189992428,-0.00034953607246279716
1783246421560523000,4.04652294921875,-0.0007158746011555195,-0.0009623540099710226,-0.00034505361691117287
1783246421570534000,4.056533935546875,-0.0006165385711938143,0.0000784092117100954,-0.00022201566025614738
1783246421580545800,4.0665458984375,-0.00010557705536484718,-0.00115196593105793,-0.0008457605727016926
1783246421590557000,4.076556884765625,-0.0005079808179289103,-0.0007708675693720579,-0.00049928342923522
1783246421600569000,4.086569091796875,0.000600792933255434,0.000022237421944737434,0.00023256009444594383
1783246421610581000,4.0965810546875,-0.0011797966435551643,-0.0006366285961121321,-0.0004313662648200989
1783246421620591900,4.106591796875,-0.0005815685726702213,-0.0005186186172068119,-0.0007279589772224426
1783246421630604000,4.11660400390625,-0.0006151243578642607,0.000314418226480484,0.0011828588321805
1783246421640615000,4.126614990234375,0.0013318901183083653,-0.0013230929616838694,-0.0018696885090321302
1783246421650626800,4.136626708984375,0.00013639708049595356,-0.0008256144355982542,0.0002635037526488304
1783246421660639000,4.146638916015625,-0.0007489670533686876,0.0008063903078436852,-0.00027647847309708595
1783246421670650000,4.156650146484375,0.0007133746985346079,-0.00006686011329293251,-0.00003919098526239395
1783246421680662000,4.166662109375,0.00019232439808547497,-0.000013385433703660965,-0.0008844747208058834
1783246421690673000,4.1766728515625,-0.000027652829885482788,-0.001875467598438263,-0.00013426225632429123
1783246421700685000,4.18668505859375,-0.00086401985026896,0.00033952808007597923,0.000685553066432476
1783246421710696000,4.196696044921875,-0.0005697403103113174,-0.0002290569245815277,0.0009484072215855122
1783246421720707800,4.206707763671875,-0.000421818345785141,-0.0003751784097403288,-0.0009602981153875589
1783246421730720000,4.216719970703125,0.0003502320032566786,-0.0003562700003385544,-0.0018660391215234995
1783246421740731000,4.22673095703125,-0.00013463571667671204,0.00019379996228963137,-0.000470183789730072
1783246421750743000,4.236742919921875,-0.00034875376150012016,-0.0004826430231332779,-0.0001338268630206585
1783246421760754000,4.24675390625,0.0004184942226856947,-0.000043890904635190964,0.000340818427503109
1783246421770766000,4.25676611328125,0.000595061806961894,-0.0007917063776403666,0.0005152551457285881
1783246421780777000,4.26677685546875,0.00008410634472966194,0.00014668726362287998,0.00026932405307888985
1783246421790788900,4.276788818359375,0.000059605343267321587,-0.00037316163070499897,0.00132340332493186
1783246421800801000,4.286801025390625,-0.0008972601499408484,-0.000834297388792038,0.00014563091099262238
1783246421810812000,4.29681201171875,-0.0005936597008258104,-0.0005621223244816065,-0.0005417312495410442
1783246421820823800,4.30682373046875,-0.00028496887534856796,-0.0015227587427943945,-0.0007333639077842236
1783246421830835000,4.3168349609375,0.000801334623247385,-0.0014838767237961292,-0.0005741068162024021
1783246421840847000,4.32684716796875,0.000573804834857583,-0.0021218210458755493,-0.0006525609642267227
1783246421850858000,4.33685791015625,-0.002145549049600959,-0.000024848151952028275,-0.0009050285443663597
1783246421860870000,4.346869873046875,0.00007755821570754051,0.0007771651726216078,-0.0007238755933940411
1783246421870882000,4.356882080078125,0.0003350856713950634,-0.0004841077607125044,-0.0014743541833013296
1783246421880893000,4.366892822265625,0.0014709574170410633,0.0001307789934799075,-0.00032244622707366943
1783246421890904800,4.37690478515625,-0.0007674295920878649,-0.0007448683027178049,0.00003894465044140816
1783246421900916000,4.386916015625,-0.0007391772232949734,-0.0007202695123851299,-0.00048624584451317787
1783246421910928100,4.39692822265625,0.0000792122446000576,0.0004605761496350169,-0.0014873279724270105
1783246421920940000,4.40693994140625,-0.0008763759396970272,-0.0016104595270007849,0.00023961812257766724
1783246421930951000,4.416950927734375,-0.00007476424798369408,0.00010275188833475113,0.0009884992614388466
1783246421940963000,4.426963134765625,-0.00096374680288136,0.00008441170211881399,0.0003253752365708351
1783246421950974000,4.436973876953125,-0.0010774636175483465,0.00030598673038184643,-0.00012336717918515205
1783246421960985900,4.44698583984375,0.0008754597511142492,-0.0004518115893006325,-0.00032995501533150673
1783246421970996700,4.456996826171875,-0.0007770317606627941,-0.000602280255407095,-0.0011488771997392178
1783246421981009000,4.4670087890625,0.0003175879828631878,-0.0006438198033720255,0.000044638291001319885
1783246421991020800,4.477020751953125,-0.0019261250272393227,0.0007098651258274913,-0.001208645524457097
1783246422001032000,4.487031982421875,0.0015426718164235353,-0.0003642868250608444,0.0005445117130875587
1783246422011044000,4.497044189453125,-0.00002699531614780426,-0.0005555017851293087,0.000230525154620409
1783246422021055000,4.507054931640625,0.0006216827314347029,-0.00020069978199899197,-0.00019423151388764381
1783246422031067000,4.51706689453125,-0.00005049910396337509,-0.0007170867174863815,0.0002385322004556656
1783246422041077800,4.527077880859375,-0.0011319799814373255,0.00025191716849803925,-0.0004904428496956825
1783246422051090000,4.53708984375,-0.0002203797921538353,-0.0005603469908237457,-0.0008558286353945732
1783246422061101800,4.547101806640625,-0.00006934464909136295,-0.0014479600358754396,0.0006449325010180473
1783246422071113000,4.557113037109375,0.00025449576787650585,0.0001272996887564659,0.0010148454457521439
1783246422081125000,4.567125,0.0003581536002457142,0.0005505080334842205,0.0012567844241857529
1783246422091136000,4.577135986328125,0.0007270013447850943,-0.00007560127414762974,-0.0005251369439065456
1783246422101148000,4.58714794921875,-0.001130254939198494,0.0010390188544988632,-0.00009428197517991066
1783246422111160000,4.59716015625,-0.0008855103515088558,-0.0018079003784805536,-0.0004836362786591053
1783246422121171000,4.6071708984375,-0.0012807347811758518,-0.002068399451673031,-0.0023407265543937683
1783246422131182800,4.617182861328125,0.0010436724405735731,0.0002450884785503149,-0.000502878800034523
1783246422141194000,4.627194091796875,0.0004106617998331785,0.0000696245115250349,0.0004781843163073063
1783246422151206100,4.6372060546875,0.00022184359841048717,-0.00016606529243290424,0.00005261087790131569
1783246422161217000,4.647217041015625,-0.00048151821829378605,-0.0006106880027800798,-0.001070421189069748
1783246422171229000,4.65722900390625,-0.0005156067200005054,-0.0005294615402817726,-0.0003423127345740795
1783246422181241000,4.667240966796875,-0.0018908276688307524,-0.0010265037417411804,0.00014358852058649063
1783246422191252000,4.677251953125,0.00038031628355383873,-0.0008693772833794355,-0.000516076572239399
1783246422201263900,4.687263916015625,-0.0017294641584157944,0.0009965477511286736,0.0002926429733633995
1783246422211274800,4.697274658203125,-0.0010301177389919758,-0.001258084550499916,-0.0011372081935405731
1783246422221287000,4.707286865234375,-0.0007507333066314459,0.0006275298073887825,-0.0011042032856494188
1783246422231298000,4.717298095703125,0.00044928700663149357,0.00036068109329789877,0.00008782744407653809
1783246422241310000,4.72731005859375,-0.0008600293658673763,-0.0001739270519465208,0.0008427142165601254
1783246422251322000,4.737322021484375,-0.0002807921264320612,0.00019545352552086115,0.0005692075937986374
1783246422261333000,4.7473330078125,0.000689719570800662,0.0009432851802557707,-0.00015805521979928017
1783246422271345000,4.757344970703125,-0.00007141171954572201,0.0008383566746488214,-0.000058453064411878586
1783246422281355800,4.767355712890625,-0.0004271152429282665,0.0004769465886056423,0.0007679569534957409
1783246422291368000,4.777367919921875,0.00040086149238049984,-0.00003651087172329426,0.0008739507757127285
1783246422301379800,4.7873798828125,0.0006923249457031488,-0.0017884175758808851,0.00005174288526177406
1783246422311391000,4.797390869140625,0.00039458367973566055,0.00043532182462513447,0.00023496849462389946
1783246422321403100,4.807403076171875,-0.0018248448614031076,0.00002898275852203369,0.00021925847977399826
1783246422331414000,4.8174140625,0.0003546860534697771,-0.0005933979991823435,0.0004632039926946163
1783246422341426000,4.827426025390625,0.0003607443068176508,0.0003173910081386566,0.0010393625125288963
1783246422351436800,4.837436767578125,0.001224407576955855,0.0004433585563674569,-0.0018773316405713558
1783246422361449000,4.847448974609375,-0.0009732714388519526,-0.0003695008344948292,-0.00014408351853489876
1783246422371460900,4.8574609375,-0.0009455748368054628,0.0010696713579818606,0.00009187264367938042
1783246422381472000,4.867471923828125,0.0011186250485479832,0.001145218382589519,0.0005320790223777294
1783246422391484000,4.87748388671875,-0.0002292008139193058,-0.000639898469671607,0.0003555114381015301
1783246422401495000,4.8874951171875,0.0003110619727522135,-0.00077217654325068,0.0014118952676653862
1783246422411507000,4.8975068359375,0.0008436942007392645,-0.0009045356418937445,-0.0006267544813454151
1783246422421517800,4.907517822265625,-0.000770393293350935,-0.0009128244128078222,-0.0000934484414756298
1783246422431530000,4.917530029296875,-0.0007536152843385935,0.0005388647550716996,-0.00009877467527985573
1783246422441542000,4.9275419921875,-0.00010383175686001778,0.00026971090119332075,-0.0008236325811594725
1783246422451552800,4.937552734375,-0.0003166184760630131,-0.0004040687344968319,0.00045575015246868134
1783246422461565000,4.94756494140625,-0.0003888977225869894,0.0001058070920407772,-0.000169253908097744
1783246422471576000,4.957576171875,0.0003312209155410528,-0.00015891133807599545,-0.0007522199302911758
1783246422481588000,4.967587890625,0.0013917169999331236,-0.00037866225466132164,0.000460280105471611
1783246422491598800,4.977598876953125,0.0007160729728639126,0.00018779211677610874,-0.00017887866124510765
1783246422501611000,4.987611083984375,-0.00004230160266160965,0.0009055670816451311,0.00029928330332040787
1783246422511623000,4.997622802734375,-0.0005858528893440962,0.0007345920894294977,-0.000816048588603735
1783246422521633800,5.0076337890625,-0.0001344284974038601,0.00011741789057850838,0.000276343896985054
1783246422531646000,5.01764599609375,-0.0007006165105849504,-0.0019113779999315739,-0.0005372515879571438
1783246422541657000,5.027656982421875,-0.0005990378558635712,0.0007986294804140925,-0.0008920594118535519
1783246422551669000,5.0376689453125,-0.0007873233407735825,-0.0004804867785423994,-0.0010377343278378248
1783246422561681200,5.04768115234375,0.000008028699085116386,-0.0002649689558893442,-0.0010913300793617964
1783246422571692000,5.057692138671875,-0.0005325931124389172,0.00009269360452890396,-0.0004313988611102104
1783246422581704000,5.067703857421875,0.0009075680281966925,0.0005291490815579891,0.0007102084346115589
1783246422591714800,5.07771484375,-0.00018326262943446636,-0.00012918421998620033,0.00021166447550058365
1783246422601726700,5.087726806640625,-0.0011008747387677431,-0.0011553068179637194,0.0001484178937971592
1783246422611737900,5.09773779296875,0.00006878562271595001,-0.001225880580022931,-0.00003134552389383316
1783246422621749800,5.107749755859375,-0.0007381979376077652,-0.0002734165173023939,-0.0004171500913798809
1783246422631761700,5.11776171875,-0.0011360740754753351,-0.00011522485874593258,-0.0019908116664737463
1783246422641772800,5.127772705078125,0.0003160065971314907,-0.00017956807278096676,-0.0002067345194518566
1783246422651784700,5.13778466796875,-0.0007133050821721554,0.000994353205896914,0.0013962220400571823
1783246422661795600,5.147795654296875,-0.0008015881758183241,-0.0006590792909264565,-0.0008432825561612844
1783246422671807700,5.157807861328125,-0.0007307480555027723,0.0005348158301785588,0.00015700049698352814
1783246422681818600,5.167818603515625,0.0016719066770747304,0.00135151413269341,-0.0005713943392038345
1783246422691830500,5.17783056640625,0.000537932850420475,-0.00026449188590049744,-0.0007285210303962231
1783246422701842700,5.1878427734375,0.00043563591316342354,0.0005685157375410199,0.0001437729224562645
1783246422711853800,5.197853759765625,-0.001053603831678629,-0.0001233734656125307,0.00010595610365271568
1783246422721865700,5.20786572265625,-0.0002376236952841282,-0.0003139928448945284,-0.0013899914920330048
1783246422731876600,5.217876708984375,-0.0003603955265134573,0.00042982795275747776,-0.0019282163120806217
1783246422741888800,5.227888671875,-0.00027942960150539875,-0.00018893834203481674,-0.0010568853467702866
1783246422751899600,5.237899658203125,0.000053998082876205444,-0.0018145320937037468,0.0009910855442285538
1783246422761911600,5.24791162109375,0.00014858203940093517,-0.0005002066027373075,0.0006867367774248123
1783246422771923700,5.257923828125,0.0004939939826726913,0.000277702696621418,-0.0007324614562094212
1783246422781934800,5.267934814453125,0.0005467280279844999,-0.0005496321246027946,-0.00042818253859877586
1783246422791946800,5.27794677734375,-0.0014525072183459997,-0.0021208971738815308,0.00009645987302064896
1783246422801957600,5.28795751953125,-0.0008423069957643747,-0.00020745652727782726,0.0003909822553396225
1783246422811969800,5.2979697265625,-0.0006252594757825136,-0.00033528823405504227,-0.0003877258859574795
1783246422821981700,5.307981689453125,-0.00102856638841331,0.00016907230019569397,0.001150461845099926
1783246422831992600,5.31799267578125,-0.000510847894474864,0.0006282011745497584,-0.00011880043894052505
1783246422842004700,5.328004638671875,-0.00021749502047896385,-0.00008273334242403507,0.0007379697635769844
1783246422852015600,5.338015625,-0.00028167711570858955,-0.0010095133911818266,0.00001651933416724205
1783246422862027500,5.348027587890625,-0.0009107058867812157,-0.0010818543378263712,-0.00046314578503370285
1783246422872038700,5.35803857421875,-0.000606306828558445,-0.0006219262722879648,0.00020291097462177277
1783246422882050800,5.36805078125,0.0009653999004513025,-0.0005366217810660601,0.000022724270820617676
1783246422892062700,5.378062744140625,-0.0004143838305026293,-0.00012223399244248867,0.0008552283979952335
1783246422902073600,5.388073486328125,-0.00009190407581627369,-0.00003482936881482601,0.00028307177126407623
1783246422912085800,5.398085693359375,0.0013488661497831345,-0.00016266107559204102,0.0008181007578969002
1783246422922096600,5.4080966796875,-0.00021000485867261887,-0.0006213001906871796,0.0005774614401161671
1783246422932108500,5.418108642578125,0.0007556572090834379,0.0006543538765981793,0.0004893108271062374
1783246422942119700,5.42811962890625,-0.0003904856275767088,-0.0010062768124043941,-0.00016867229714989662
1783246422952131800,5.4381318359375,-0.000009653391316533089,0.0005367586854845285,-0.0010075678583234549
1783246422962143700,5.448143798828125,-0.0007547175046056509,-0.0011501065455377102,-0.00043905992060899734
1783246422972154600,5.458154541015625,-0.0012567234225571156,-0.00039057317189872265,-0.0008017823565751314
1783246422982166800,5.468166748046875,-0.001191184390336275,0.0004346925998106599,0.0004354161210358143
1783246422992177700,5.478177734375,-0.0005600154399871826,-0.0001799650490283966,-0.00006978539749979973
1783246423002189600,5.488189453125,0.0019100600620731711,0.0009597869357094169,-0.00019921176135540009
1783246423012201700,5.49820166015625,0.0007358724251389503,-0.000999766867607832,0.0001968005672097206
1783246423022212900,5.508212890625,0.0008432366885244846,-0.0006105543579906225,-0.0007873848080635071
1783246423032224800,5.518224853515625,0.0007502923253923655,-0.0012100317981094122,-0.00016260705888271332
1783246423042235600,5.528235595703125,-0.0010503949597477913,0.00028512056451290846,0.0008046417497098446
1783246423052247800,5.538247802734375,0.0009680145885795355,-0.00044751493260264397,-0.001173288095742464
1783246423062258700,5.5482587890625,0.0010992902098223567,0.00041683053132146597,0.0014210580848157406
1783246423072270600,5.5582705078125,-0.00047730118967592716,0.000681815086863935,0.00003914348781108856
1783246423082282800,5.56828271484375,0.00071187992580235,0.000585232162848115,0.0003421623259782791
1783246423092293600,5.578293701171875,-0.0001251515932381153,-0.00017589912749826908,0.0007099448703229427
1783246423102305500,5.588305419921875,0.0008693849667906761,0.00019929162226617336,-0.0003762291744351387
1783246423112316700,5.598316650390625,-0.00042704190127551556,-0.000045452965423464775,0.0011164727620780468
1783246423122328800,5.608328857421875,-0.0008286838419735432,0.0005312443245202303,-0.00011783000081777573
1783246423132340700,5.6183408203125,-0.0018212441354990005,0.0007458950858563185,-0.00007655099034309387
1783246423142351600,5.6283515625,0.00020869681611657143,0.0003374213119968772,0.00019059795886278152
1783246423152363800,5.63836376953125,0.0019903513602912426,-0.00025779521092772484,0.0002848738804459572
1783246423162374700,5.648374755859375,0.0003646018449217081,-0.0007768410723656416,-0.00017461320385336876
1783246423172386600,5.658386474609375,0.0011305268853902817,-0.0018357140943408012,0.000053353141993284225
1783246423182397700,5.668397705078125,0.00027762330137193203,0.0007413433631882071,0.0006636311300098896
1783246423192409900,5.678409912109375,0.0012395569356158376,-0.00020088301971554756,-0.00019523827359080315
1783246423202421800,5.688421875,0.000993927475064993,-0.0006059270817786455,-0.00025899335741996765
1783246423212432600,5.6984326171875,-0.00034724036231637,0.0006438943091779947,0.0010880334302783012
1783246423222444800,5.70844482421875,0.00003574392758309841,-0.0012551937252283096,0.001513098832219839
1783246423232455700,5.71845556640625,-0.0000034044496715068817,0.00025828066281974316,-0.0005276817828416824
1783246423242467600,5.728467529296875,-0.00014244439080357552,-0.000022895634174346924,-0.001463622786104679
1783246423252478700,5.738478759765625,-0.0003509698435664177,-0.0003254308830946684,0.0007491977885365486
1783246423262490600,5.74849072265625,0.0002942213322967291,-0.0005697284359484911,0.0011544395238161087
1783246423272502800,5.758502685546875,-0.000774238957092166,0.0006872835801914334,0.0009413864463567734
1783246423282513700,5.768513671875,0.0014185908949002624,-0.000009912997484207153,-0.00022163521498441696
1783246423292525800,5.77852587890625,0.000653198454529047,-0.0001992636825889349,-0.00034254277125000954
1783246423302536700,5.78853662109375,0.0000035918783396482468,-0.00021299486979842186,0.0006035738624632359
1783246423312548600,5.798548583984375,0.00026990799233317375,0.0005081892013549805,0.0010033142752945423
1783246423322559500,5.8085595703125,-0.00032258755527436733,0.0008893930353224277,0.00005798414349555969
1783246423332571600,5.818571533203125,-0.0003337729722261429,-0.0010312788654118776,-0.0016901148483157158
1783246423342583600,5.82858349609375,0.00022190879099071026,-0.0010353235993534327,0.00007841922342777252
1783246423352594700,5.8385947265625,0.0004046016838401556,0.00032874755561351776,-0.00004994496703147888
1783246423362606800,5.84860693359375,0.00043827202171087265,0.000497405999340117,0.0002370174042880535
1783246423372617700,5.85861767578125,-0.0015652242582291365,-0.0004203193821012974,0.00143437460064888
1783246423382629600,5.868629638671875,-0.00026849890127778053,-0.000210281228646636,-0.00011568982154130936
1783246423392641800,5.878641845703125,0.0014508378226310015,-0.00008005276322364807,0.000876337755471468
1783246423402652700,5.888652587890625,-0.0013747615739703178,-0.00007683271542191505,0.001292127650231123
1783246423412664600,5.89866455078125,0.0010282089933753014,-0.000002264278009533882,0.00122794508934021
1783246423422675700,5.90867578125,0.0006629703566431999,0.0008314172737300396,-0.00040460843592882156
1783246423432687900,5.91868798828125,0.0004192912019789219,0.0003895987756550312,-0.00048583466559648514
1783246423442698800,5.92869873046875,0.0005543362349271774,-0.0008942501153796911,-0.0006377764511853456
1783246423452710700,5.938710693359375,-0.00008934992365539074,-0.0005136844702064991,0.00035957712680101395
1783246423462722800,5.948722900390625,-0.0021015263628214598,-0.0007605939172208309,0.00022632209584116936
1783246423472733700,5.958733642578125,-0.0008256060536950827,-0.00022077118046581745,0.0008827913552522659
1783246423482745600,5.96874560546875,-0.000007023802027106285,-0.000015446916222572327,-0.00021999049931764603
1783246423492756500,5.978756591796875,-0.0001343230251222849,-0.0007560721132904291,-0.0009193364530801773
1783246423502768600,5.9887685546875,0.00034738844260573387,0.0010462765349075198,0.0009793941862881184
1783246423512779800,5.99877978515625,-0.0014446524437516928,0.000788216246291995,-0.0000547114759683609
1783246423522791700,6.008791748046875,-0.00044211791828274727,-0.00045268586836755276,-0.0005862975958734751
1783246423532803800,6.018803955078125,0.00032620388083159924,-0.0007413723506033421,0.00020173192024230957
1783246423542814700,6.028814697265625,0.0016939613269641995,0.00005668657831847668,0.000173129141330719
1783246423552826600,6.03882666015625,-0.00010047666728496552,0.001482542953453958,0.0005622170865535736
1783246423562837500,6.04883740234375,-0.00008986075408756733,0.0004902569344267249,0.0007177400402724743
1783246423572849700,6.058849609375,-0.0014366214163601398,-0.0009110984392464161,0.00033637508749961853
1783246423582861600,6.068861572265625,0.0006293363403528929,0.0009792364435270429,0.0010984060354530811
1783246423592872700,6.078872802734375,-0.00028386153280735016,-0.0001941523514688015,0.0001990566961467266
1783246423602884900,6.088884765625,0.00023745093494653702,0.00023608515039086342,0.001205923967063427
1783246423612896000,6.09889599609375,-0.0009777492377907038,-0.0001657858956605196,0.0006924662739038467
1783246423622908000,6.108907958984375,0.0014600662980228662,-0.0013215024955570698,0.0002360655926167965
1783246423632918800,6.118918701171875,0.0005380799993872643,0.0011634929105639458,-0.0012654245365411043
1783246423642931000,6.128930908203125,-0.00017373403534293175,-0.0005624138284474611,-0.0010127711575478315
1783246423652942800,6.13894287109375,0.0005597006529569626,-0.0007123497780412436,0.00020669028162956238
1783246423662953700,6.14895361328125,0.002174468245357275,0.00044182268902659416,0.0002381894737482071
1783246423672966000,6.1589658203125,0.0006356935482472181,-0.0005992068909108639,-0.0006094947457313538
1783246423682977000,6.16897705078125,0.00037993653677403927,0.0006694106850773096,0.00139924930408597
1783246423692989000,6.178989013671875,-0.000769750215113163,0.0010052353609353304,0.00136942183598876
1783246423702999800,6.188999755859375,0.00017276103608310223,0.0012567635858431458,0.00015591224655508995
1783246423713012000,6.199011962890625,0.001174109522253275,-0.000581350177526474,0.0009306259453296661
1783246423723024000,6.20902392578125,0.001028792466968298,-0.0012308289296925068,-0.00022665271535515785
1783246423733034800,6.21903466796875,0.0008351805154234171,0.0007761293090879917,0.0010700402781367302
1783246423743046700,6.229046630859375,0.00020710891112685204,-0.0000046510249376297,0.0007883291691541672
1783246423753058000,6.23905810546875,0.0005163019523024559,0.0011772599536925554,0.0006266753189265728
1783246423763070000,6.249070068359375,0.0001013064756989479,0.0027961800806224346,0.0006454577669501305
1783246423773081900,6.259081787109375,-0.00664048595353961,0.1224014088511467,0.03736831992864609
1783246423783093000,6.269093017578125,-0.000729044433683157,0.0070124343037605286,-0.005749611184000969
1783246423793105000,6.27910498046875,0.004799677990376949,-0.08614840358495712,-0.00984581932425499
1783246423803115800,6.28911572265625,-0.0016881090123206377,0.056839630007743835,0.011805148795247078
1783246423813127700,6.299127685546875,0.0006602667272090912,0.014752362854778767,-0.0017455464694648981
1783246423823139000,6.30913916015625,0.0012422138825058937,-0.04530128091573715,-0.006986244581639767
1783246423833151000,6.31915087890625,0.00020118430256843567,0.0015780789544805884,-0.004092453513294458
1783246423843163000,6.329162841796875,-0.0010885216761380434,-0.015689309686422348,-0.008778022602200508
1783246423853174000,6.339174072265625,0.002625789027661085,-0.03866253420710564,-0.011994587257504463
1783246423863186000,6.34918603515625,0.0010008483659476042,-0.016793154180049896,-0.0037180189974606037
1783246423873196800,6.35919677734375,0.000801377696916461,0.006114025600254536,0.0018703578971326351
1783246423883209000,6.369208984375,0.00036892550997436047,-0.0046780607663095,-0.002098681638017297
1783246423893219800,6.3792197265625,-0.0018068770878016949,-0.0029214397072792053,0.00027259672060608864
1783246423903231700,6.389231689453125,0.0007322097662836313,0.004208241123706102,0.000579590443521738
1783246423913243600,6.39924365234375,-0.0001716669648885727,-0.005592724308371544,0.0008672121912240982
1783246423923255000,6.409255126953125,0.00019738986156880856,0.0007296021794900298,0.000006744172424077988
1783246423933267000,6.419266845703125,0.0009089864324778318,0.00046248710714280605,0.0014296709559857845
1783246423943277800,6.42927783203125,0.001015559071674943,-0.0008319688495248556,0.000012470874935388565
1783246423953290000,6.4392900390625,0.0014368711272254586,-0.0004969430156052113,0.00020475126802921295
1783246423963302000,6.449302001953125,0.000859586289152503,-0.000678354874253273,0.001612238585948944
1783246423973312800,6.459312744140625,0.00025717937387526035,0.0010806629434227943,-0.0009515865240246058
1783246423983324700,6.46932470703125,-0.0015290954615920782,-0.0007163423579186201,0.00043052248656749725
1783246423993336000,6.479336181640625,-0.0006606385577470064,-0.002515573985874653,-0.000825956929475069
1783246424003348000,6.489347900390625,0.0014909307938069105,0.0006879424909129739,0.0003863140009343624
1783246424013358800,6.49935888671875,0.0019242271082475781,0.00006556161679327488,0.0017751525156199932
1783246424023371000,6.50937109375,-0.0010311845690011978,-0.0007188641466200352,0.00136116286739707
1783246424033383000,6.5193828125,-0.0010293200612068176,-0.00046533113345503807,0.0013329335488379002
1783246424043393800,6.529393798828125,0.00015203282237052917,0.0006876223487779498,0.001572351437062025
1783246424053405700,6.53940576171875,0.00013046106323599815,-0.00023676082491874695,-0.0012676434125751257
1783246424063416800,6.549416748046875,0.0001706418115645647,-0.0003084877971559763,-0.0003315401263535023
1783246424073429000,6.559428955078125,0.000873449956998229,0.0008409325964748859,-0.0005336741451174021
1783246424083441000,6.56944091796875,0.00017033307813107967,-0.00020100362598896027,0.000977533869445324
1783246424093452000,6.5794521484375,-0.0008022536057978868,0.0009830377530306578,0.0002899058163166046
1783246424103464000,6.5894638671875,-0.0004077800549566746,0.00038650690112262964,-0.001210786635056138
1783246424113474800,6.599474853515625,0.0004276537802070379,-0.0007554565090686083,-0.00042515387758612633
1783246424123486700,6.60948681640625,-0.0008033630438148975,0.00012885499745607376,0.0005443696863949299
1783246424133497900,6.619497802734375,0.001464584725908935,0.0007030325941741467,0.0020791497081518173
1783246424143509800,6.629509765625,0.0003730393946170807,-0.0012283436954021454,-0.00010144338011741638
1783246424153521700,6.639521728515625,0.0012761172838509083,-0.0017596441321074963,-0.000177077017724514
1783246424163533000,6.649532958984375,0.00008906680159270763,0.0009648466948419809,0.00007633538916707039
1783246424173545000,6.659544921875,0.0007370137609541416,-0.00038937083445489407,0.0009013824164867401
1783246424183555800,6.669555908203125,0.001140660373494029,-0.0007650947663933039,0.001417492050677538
1783246424193568000,6.679568115234375,0.0016045831143856049,0.0011137654073536396,0.0007445113733410835
1783246424203579000,6.689578857421875,-0.0009234221652150154,0.0009177012834697962,0.0006232000887393951
1783246424213590800,6.6995908203125,0.00007366552017629147,-0.0014173584058880806,-0.0012759002856910229
1783246424223602700,6.709602783203125,-0.0006600981578230858,0.00005961279384791851,0.00011666631326079369
1783246424233614000,6.719614013671875,0.0006224801763892174,0.0005789293209090829,0.0007462375797331333
1783246424243626000,6.7296259765625,0.00007396005094051361,0.0006259700749069452,-0.0006366742309182882
1783246424253636900,6.739636962890625,0.0010896897874772549,-0.0016907136887311935,0.0011385888792574406
1783246424263649000,6.74964892578125,0.00037713651545345783,-0.000042403582483530045,0.0010554306209087372
1783246424273661000,6.759660888671875,0.0003760713152587414,0.0015664119273424149,0.000314272940158844
1783246424283671800,6.769671875,-0.0006945319473743439,0.00009745743591338396,0.0005584200844168663
1783246424293683700,6.77968359375,0.00019336584955453873,-0.0005715286824852228,-0.0011726345401257277
1783246424303694800,6.78969482421875,-0.00018107891082763672,-0.00006899004802107811,-0.0009276235941797495
1783246424313706800,6.799706787109375,0.00020268256776034832,0.00024792610201984644,-0.0003537125885486603
1783246424323718000,6.8097177734375,-0.00037103588692843914,0.0007433030987158418,-0.001117567764595151
1783246424333730000,6.81972998046875,0.0014961063861846924,0.00011586234904825687,0.0017836801707744598
1783246424343742000,6.829741943359375,0.0004947094712406397,-0.0011178224813193083,0.0009614243172109127
1783246424353752800,6.8397529296875,-0.0011516567319631577,0.0001943170791491866,-0.0006876050028949976
1783246424363764700,6.8497646484375,-0.00018709944561123848,0.000437577604316175,0.0004905080422759056
1783246424373776000,6.85977587890625,-0.00013889605179429054,-0.0014950784388929605,0.0012337961234152317
1783246424383787800,6.869787841796875,0.000012208940461277962,0.00006907596252858639,-0.00010440405458211899
1783246424393799000,6.879798828125,-0.0007081762887537479,0.000112751848064363,-0.00007724016904830933
1783246424403811000,6.88981103515625,-0.001835227245464921,0.0003321734257042408,0.0011737551540136337
1783246424413823000,6.899822998046875,0.0009847937617450953,-0.0019027511589229107,-0.0008345346432179213
1783246424423833900,6.909833740234375,0.001218453049659729,-0.0005201923195272684,0.00031769322231411934
1783246424433845800,6.919845703125,-0.0006971585098654032,0.0005549258785322309,-0.0005792593583464622
1783246424443857000,6.92985693359375,-0.00022194953635334969,-0.0002803485840559006,0.00031291600316762924
1783246424453868800,6.939868896484375,-0.0007263524457812309,0.00043018278665840626,0.0012226519174873829
1783246424463880700,6.949880615234375,-0.004843583796173334,0.10943574458360672,0.041116539388895035
1783246424473892000,6.95989208984375,-0.00003418140113353729,-0.004683370236307383,-0.011722706258296967
1783246424483904000,6.969904052734375,0.004500932525843382,-0.09775082021951675,-0.012988640926778316
1783246424493915000,6.979914794921875,-0.0021867973264306784,0.06477177888154984,0.014247773215174675
1783246424503926800,6.9899267578125,0.00037301587872207165,0.007256646174937487,-0.0027350708842277527
1783246424513938000,6.99993798828125,0.002531507983803749,-0.0451626181602478,-0.006855247542262077
1783246424523949800,7.00994970703125,0.00007360498420894146,0.010874267667531967,-0.0034613129682838917
1783246424533961700,7.019961669921875,0.0007729511708021164,-0.013771158643066883,-0.006335662677884102
1783246424543972900,7.029972900390625,0.0016475210431963205,-0.02160830795764923,-0.006585733499377966
1783246424553984800,7.03998486328125,-0.000020416686311364174,-0.00111448485404253,-0.00162346544675529
1783246424563996000,7.049995849609375,0.00173362554050982,0.0031853592954576015,0.0011287168599665165
1783246424574008000,7.060008056640625,0.0012425386812537909,-0.0067106811329722404,0.00018063141033053398
