time,seconds_elapsed,z,y,x
1783246401062425900,0.06342578125,0.005232055434584618,0.008881006396189332,0.00265450113073457
1783246401072438000,0.07343798828125,-0.01721592321693897,-0.0013879472270607947,-0.023100663556728976
1783246401082450000,0.083449951171875,0.0029869068562984463,-0.007414112181402742,0.01268646537704626
1783246401092460800,0.093460693359375,-0.008536942198872566,-0.005127206820622086,-0.00005957785026403144
1783246401102473000,0.103472900390625,-0.023351064971089363,0.015372925698757171,0.0022371388017665595
1783246401112484000,0.113484130859375,-0.027238135537505148,0.00017356646861881018,0.010623445599747355
1783246401122496000,0.12349609375,-0.024843933877348897,-0.007757299595884978,-0.008210228711867239
1783246401132508200,0.133508056640625,-0.018258125746250152,0.012854914995841682,0.00486576342243934
1783246401142519000,0.14351904296875,-0.02514145551919937,-0.00973707523625344,-0.007503998404962476
1783246401152531000,0.153531005859375,-0.017059855872392653,-0.00048087885212153193,-0.004309323699632659
1783246401162541800,0.163541748046875,-0.034568040034174914,0.018239713306725025,0.0005575494010816328
1783246401172554000,0.173553955078125,-0.027534488135576247,-0.00001651274338364601,0.0044811434524483044
1783246401182564900,0.18356494140625,-0.015562310791015624,0.005630260971933603,-0.002097769146983046
1783246401192576800,0.19357666015625,-0.023794132563471793,-0.0007574307711794972,-0.009129206720308865
1783246401202589000,0.2035888671875,-0.006434416961669922,0.0017629180192947386,0.0034090869242791085
1783246401212600000,0.21360009765625,-0.018851415464282036,-0.006097293961793184,-0.00528276499180356
1783246401222612000,0.223612060546875,-0.02139700829386711,-0.015644691844843326,-0.011653973674285225
1783246401232622800,0.233622802734375,-0.024238953721523283,-0.0024900997826829553,-0.012602753165946341
1783246401242635000,0.243635009765625,-0.019146014496684072,0.00350519510935992,0.004185290894587524
1783246401252646000,0.25364599609375,-0.025278818163275717,0.0017952493863180278,-0.0025980787853593936
1783246401262657800,0.26365771484375,-0.020039163944125173,0.008779299587383866,-0.007279754345165565
1783246401272670000,0.273669921875,-0.017794015365839005,-0.0026120456619188187,-0.0033736525680054907
1783246401282681000,0.28368115234375,-0.018993454283475875,0.0037376886909827587,-0.009779290959762875
1783246401292693000,0.29369287109375,-0.02737316009402275,0.004776530219428241,-0.004212377547624055
1783246401302703900,0.303703857421875,-0.02258475677371025,0.011068360372632742,0.0029904002879047767
1783246401312716000,0.313716064453125,-0.002681201907992363,-0.0015342968951910733,-0.012240580206492449
1783246401322728000,0.32372802734375,-0.02273322533369064,0.005659414001181721,-0.012263867467246017
1783246401332738800,0.33373876953125,-0.030366496691107747,0.0010605419036000966,0.005875566086068283
1783246401342751000,0.3437509765625,-0.005526654466986656,-0.013911474844068288,0.0038854402983328324
1783246401352761900,0.353761962890625,-0.007469605228304863,0.005039747732877731,-0.006651525744493119
1783246401362774000,0.36377392578125,-0.022286066088080404,-0.005831994089111685,0.0065323563442332665
1783246401372785000,0.373784912109375,-0.010015782579779624,-0.0011841682832688092,-0.010778111005073879
1783246401382797000,0.383797119140625,-0.019596096351742743,0.000544007216207683,0.0022383352450095115
1783246401392809000,0.39380908203125,-0.01720247921347618,-0.0034730098728090525,0.00000578585339244455
1783246401402819800,0.40381982421875,-0.02109013430178165,0.0037804683867841958,0.0037459130966337397
1783246401412832000,0.41383203125,-0.006572948649525642,-0.0007632029248401522,0.014846716717432719
1783246401422843000,0.4238427734375,-0.021985621836781502,-0.009749825119972228,-0.003487323809240479
1783246401432854800,0.433854736328125,-0.013004443001747131,-0.011609919903427362,-0.002681733914243523
1783246401442867000,0.443866943359375,-0.020038579422235487,0.003822663560695946,-0.0014895238884142599
1783246401452878000,0.453878173828125,-0.02467909870445728,0.005667743438109755,-0.0026572981593082656
1783246401462890000,0.463889892578125,-0.012559037321805954,-0.004943922675587236,-0.0025047196797910146
1783246401472900900,0.47390087890625,-0.018993454283475875,-0.0047816447859629985,-0.002585938539705239
1783246401482913000,0.4839130859375,-0.020488076755404473,0.001611051925830543,0.0014815300949150695
1783246401492924000,0.493923828125,-0.03514905479252338,-0.0016340674752369521,0.0007322986132116057
1783246401502935800,0.503935791015625,-0.014496727386116981,-0.007385287945717573,0.005371678534406237
1783246401512948000,0.513947998046875,-0.026314006429910657,-0.0010359554516151546,0.002173878006939776
1783246401522959000,0.523958984375,-0.01000292309820652,0.010308080057241022,-0.018751740782358684
1783246401532971000,0.533970947265625,-0.015839374166727066,-0.018999884024262427,0.0002686197743518278
1783246401542982000,0.54398193359375,-0.00656125821173191,0.00043397097047418354,0.012296379214071203
1783246401552994000,0.553994140625,-0.02721533918380737,0.01580039386320859,-0.006015666393213905
1783246401563005000,0.5640048828125,-0.03140694565474987,-0.02529660954829305,-0.005196189536759629
1783246401573017000,0.57401708984375,-0.022429273951053617,0.004493183233402669,-0.014733812661177943
1783246401583029200,0.584029296875,-0.033200843334197996,0.005333104656264185,0.003013641882885713
1783246401593040100,0.5940400390625,-0.024973113214969634,0.002855900887772441,0.011906124087737406
1783246401603052000,0.604052001953125,0.00495440753698349,-0.024679792824201286,-0.004011082821863237
1783246401613063200,0.614063232421875,-0.04098959751427173,0.03441997333299368,-0.00874582429275615
1783246401623075300,0.624075439453125,-0.012108955466747283,-0.0010465133782476186,0.01096687504282454
1783246401633087200,0.634087158203125,-0.017047580912709234,-0.022432744549773634,-0.0020020536875468677
1783246401643098000,0.64409814453125,0.005396306085586547,0.004708652614988386,-0.0075067954335361715
1783246401653110300,0.6541103515625,-0.02737666722536087,0.05039305688198656,-0.011829414722870569
1783246401663121200,0.66412109375,-0.030519056904315948,-0.02577832865063101,-0.003968645619356539
1783246401673133000,0.674133056640625,-0.004184592208266258,-0.0047781011220067735,0.005047771209129132
1783246401683144200,0.684144287109375,-0.03127075205445289,0.029370507923699912,-0.01011664228850277
1783246401693156400,0.69415625,-0.021094225955009458,-0.008210267527773976,0.0005807795796194113
1783246401703168300,0.704168212890625,-0.025284663382172584,-0.02495762338489294,0.004592652419349179
1783246401713179100,0.71417919921875,-0.003437573233246803,0.023374190118350086,-0.00424080677437596
1783246401723191300,0.72419140625,-0.03096738519370556,0.0045823958868160845,-0.003804609597485978
1783246401733202200,0.7342021484375,-0.004330722680687904,-0.03150558372363448,0.010645684831019025
1783246401743214000,0.744214111328125,-0.04114098868370056,0.014281038808822632,-0.014172568899090401
1783246401753225200,0.75422509765625,-0.011064414849877358,0.01878671619761735,-0.011612516002601478
1783246401763237000,0.764237060546875,-0.020488076755404473,-0.01227864947784692,0.0012679467097390443
1783246401773249000,0.7742490234375,-0.016449615019559858,-0.01582731840275228,0.00025164808995323257
1783246401783260200,0.78426025390625,-0.023782442125678063,0.018590609103627503,-0.005357681975094601
1783246401793272300,0.794272216796875,-0.0017816227197647093,-0.027886004986986516,-0.010696803096903022
1783246401803283200,0.804283203125,-0.0210837045609951,-0.013704407964646816,-0.0012881606639944948
1783246401813295000,0.814295166015625,-0.018393150302767752,0.024524931056052444,-0.0020301746703335084
1783246401823307300,0.824307373046875,-0.018691840988397598,0.0020681845761835573,0.012404887939710169
1783246401833318100,0.834318115234375,-0.011508066964149475,-0.012772059017978609,0.00046131563512608406
1783246401843330000,0.844330078125,-0.037842531660199165,0.018020663728564975,0.0031641654026345347
1783246401853341200,0.854341064453125,-0.02123275764286518,0.006338043915107846,0.00138575526997447
1783246401863353300,0.864353271484375,-0.010607903254032134,-0.02343556491676718,0.0060953485998790705
1783246401873364200,0.8743642578125,-0.030062545308470724,-0.0021448300089687107,-0.004242105965607334
1783246401883376000,0.884376220703125,-0.008816343662142753,0.013765636632591486,0.011734347717405762
1783246401893388300,0.89438818359375,-0.019587328523397445,-0.014145174002088605,0.0021380052592488937
1783246401903399200,0.904399169921875,0.0015109890848398208,-0.00484707470498979,-0.00878639376516221
1783246401913411000,0.9144111328125,-0.031710312515497205,0.007005275652185082,-0.014700451530981809
1783246401923422200,0.924422119140625,-0.0046247371912002564,-0.003047916328534484,-0.005676611731154844
1783246401933434400,0.934434326171875,-0.014650456643104553,-0.003039477293752134,0.0007787315708235837
1783246401943446300,0.9444462890625,-0.01210778642296791,0.010902575351670383,0.002589826980244834
1783246401953457200,0.95445703125,-0.02676759541630745,-0.005518544225767254,0.0016822882478474638
1783246401963469300,0.96446923828125,-0.006712649381160736,-0.00979614847972989,0.00789008196296636
1783246401973480200,0.974480224609375,-0.02691606397628784,0.007760441401042044,-0.005963646228320431
1783246401983492000,0.9844921875,-0.024223171630501746,0.0002918590860441327,-0.00013948838579235596
1783246401993503000,0.9945029296875,-0.013448679637908936,-0.015875687589123843,-0.002960932164825499
1783246402003515100,1.00451513671875,-0.009407879814505577,0.005803608244843781,-0.014610375794465653
1783246402013527000,1.014527099609375,-0.020778584134578705,-0.00231920019518584,0.0021578173547051847
1783246402023538200,1.0245380859375,-0.02705985636115074,-0.0020966800183057784,0.0055908765263273374
1783246402033550300,1.03455029296875,-0.00656125821173191,-0.0020693536199629307,-0.002233576871501282
1783246402043561200,1.044561279296875,-0.03633972588181496,0.006923661783337593,-0.010946026334329508
1783246402053573000,1.054572998046875,-0.021975100442767143,0.002300824288278818,-0.004162186296924482
1783246402063584000,1.064583984375,-0.012247487154603004,-0.014183971642516552,-0.002098150456184521
1783246402073596200,1.07459619140625,-0.004019757035374641,0.01534801045320928,-0.012912095393042545
1783246402083608000,1.084608154296875,-0.026617373290657994,-0.007191263210959732,0.00015688019529916345
1783246402093619200,1.094619140625,-0.018985270977020262,0.0014754428474232553,-0.002074397404550109
1783246402103631400,1.10463134765625,-0.02871171522140503,0.017641126359067855,0.001573229249648284
1783246402113642200,1.114642333984375,-0.01809095248579979,0.014895480912737548,-0.0036967196430661713
1783246402123654100,1.124654052734375,-0.014051321706175804,-0.010227269905991852,0.0030711236741859465
1783246402133666300,1.134666259765625,-0.015846388429403304,0.009211334329098462,-0.0020166005194187163
1783246402143677200,1.14467724609375,-0.019291560447216034,0.01991403972711414,-0.0034959751898655665
1783246402153689000,1.154689208984375,-0.032760698351263995,-0.008308284542150796,0.00328125472695101
1783246402163700200,1.1647001953125,-0.014355857610702514,-0.004256926792114973,0.0037244935659808106
1783246402173712100,1.174712158203125,-0.023929741641879082,0.0014950973959639668,0.001606937439716421
1783246402183723300,1.18472314453125,-0.024081132811307904,0.0037852176271378993,0.00024551974326604976
1783246402193735200,1.194735107421875,-0.008069324687123298,-0.0023575959768146275,-0.01591225673984736
1783246402203747300,1.204747314453125,-0.021238602861762046,-0.00007836246583610773,-0.0038796338953427036
1783246402213758200,1.21475830078125,-0.03455634959638119,0.005739676163159311,-0.0006720745922648348
1783246402223770000,1.22477001953125,-0.00627718057334423,0.0013202522857114671,-0.009233416013454553
1783246402233781000,1.234781005859375,-0.015403320837020873,0.01428049081955105,-0.006581463032832835
1783246402243793200,1.244793212890625,-0.014352350479364393,0.00447597637027502,0.0004610530569334514
1783246402253804300,1.25480419921875,-0.01540390535891056,-0.0077041081039234995,-0.01599970441114856
1783246402263816200,1.264816162109375,-0.024383915150165556,-0.00645425417330116,-0.004422095325146802
1783246402273828400,1.274828369140625,-0.01720247921347618,0.0028623306285589932,0.001020406256034039
1783246402283839200,1.284839111328125,-0.011214636975526809,-0.01200651800557971,-0.006020310602290555
1783246402293851100,1.29485107421875,-0.021385902377963065,-0.004332330115884542,0.012936248020187485
1783246402303862000,1.304862060546875,-0.020336685585975647,0.008638356746733189,-0.0021676332125323823
1783246402313874200,1.314874267578125,-0.017190788775682447,-0.015238083805330097,-0.004183964303892571
1783246402323886000,1.324885986328125,-0.025720716711878776,0.001839636517316103,0.0023931833134265613
1783246402333897200,1.334897216796875,-0.034249475604295726,0.012005970016308128,-0.0006733281177235767
1783246402343909400,1.344909423828125,-0.02916471968591213,-0.0025901626236736774,-0.006034295745159034
1783246402353920300,1.354920166015625,-0.023478490743041036,-0.021596878247521815,-0.01046581648577703
1783246402363932200,1.36493212890625,-0.013750292932987213,-0.010266798198781906,-0.01733232527137734
1783246402373943000,1.374943115234375,-0.02736965296268463,-0.002886113362945616,0.0011930594092002139
1783246402383955200,1.384955078125,-0.021979776617884635,-0.0005581088067963719,0.004984035490266978
1783246402393967000,1.394967041015625,-0.017640286108851433,-0.00489803770724684,0.009155069530638866
1783246402403978000,1.40497802734375,-0.02347790622115135,0.005472586192190647,0.009635681237990502
1783246402413990100,1.414990234375,-0.020782091265916822,-0.0005599354377016425,-0.0013751014452194794
1783246402424001300,1.425001220703125,-0.02167933236658573,-0.0044560295607894655,-0.004744445447577164
1783246402434013200,1.43501318359375,-0.010904840373992919,0.004503339301235974,0.006105219256633427
1783246402444024000,1.445024169921875,-0.019730536386370658,0.006085238197818398,-0.00780050398337189
1783246402454036200,1.4550361328125,-0.021523849543929097,-0.0012973463341593742,0.0005590129890944808
1783246402464048000,1.465048095703125,-0.025116321077942847,-0.0011355068359524012,-0.0072447309808456335
1783246402474059000,1.47505908203125,-0.030799627411365507,-0.007048311076313257,-0.017932464855303986
1783246402484071200,1.4850712890625,-0.004759761747717857,-0.007266374273784459,-0.0030944885667529886
1783246402494082300,1.495082275390625,-0.010889642804861068,0.0011335706071928142,-0.017045512253209015
1783246402504094200,1.50509423828125,-0.03243219704926014,0.009233838421851395,-0.00418176321365172
1783246402514106400,1.5151064453125,-0.023305472263693807,-0.01438877349961549,0.01300129434672417
1783246402524117200,1.5251171875,-0.033628128835558886,0.00007109247483313084,-0.008960900948697234
1783246402534129200,1.535129150390625,-0.018367431339621543,0.0037213586106896396,-0.012214986824220977
1783246402544140000,1.54514013671875,-0.013281506377458572,-0.012389489441178738,-0.005110646128177177
1783246402554152200,1.555152099609375,-0.039166473740339276,-0.0001721416965126991,-0.008525754084577784
1783246402564163300,1.565163330078125,-0.01806640256643295,0.007132080369628965,0.012378180312586482
1783246402574175200,1.57517529296875,-0.0044482115805149075,-0.00651332741677761,0.007300472906208597
1783246402584187400,1.5851875,-0.005794365492463111,-0.012814144594036042,0.009868179386190603
1783246402594198300,1.5951982421875,-0.01267769526541233,0.0004982318457216024,0.0019472227943479082
1783246402604210200,1.605210205078125,-0.00878945565521717,-0.0025778145987540484,-0.011172613048262428
1783246402614221000,1.615220947265625,-0.03482522966563702,0.0030890885891392823,-0.006034485258115455
1783246402624233200,1.625233154296875,-0.006394084951281547,-0.0008033888047561049,-0.010980656973004805
1783246402634244000,1.635244140625,-0.012529226705431938,-0.003351648515462875,0.007048904731357469
1783246402644256000,1.645256103515625,-0.02509995446503162,0.010577544648386537,-0.008421624706534203
1783246402654268200,1.65526806640625,-0.023755554118752478,0.0055489758966490626,0.003079393745609559
1783246402664279300,1.665279296875,-0.017622165930271147,0.0015573124445974827,-0.010894081517960875
1783246402674291200,1.675291259765625,-0.024503742137551306,-0.005371463905274868,-0.007016365585068706
1783246402684302000,1.685302001953125,-0.030489246287941932,0.0030055384915322063,-0.0025343453497858716
1783246402694314200,1.695314208984375,-0.017619243320822715,0.010155519844032823,0.003045279130164999
1783246402704326100,1.705326171875,-0.01642214249074459,-0.013043605968356131,0.008413073790608905
1783246402714337000,1.7153369140625,-0.0044505496680736535,-0.0043740868983790275,0.008721957076690158
1783246402724349200,1.72534912109375,-0.010136194089055061,0.0008520502520725131,0.004707837480946909
1783246402734360300,1.7353603515625,-0.02435235096812248,0.004756291148997843,-0.007993357391061726
1783246402744372200,1.745372314453125,-0.027495325168967244,0.004336640964820981,-0.009139659615664276
1783246402754383000,1.755383056640625,-0.01747135928273201,0.0030209917889907952,0.0020566448354395104
1783246402764395300,1.765395263671875,-0.020016952112317084,-0.0021798647897318005,-0.002811545722815208
1783246402774407200,1.7754072265625,-0.021960487395524978,0.010937719730287789,0.002199601536663249
1783246402784418000,1.78541796875,-0.017919687572121618,-0.00044416357092559334,0.0029646813247585667
1783246402794430200,1.79543017578125,-0.015225041660666464,-0.007209566052630543,-0.0047887047144118695
1783246402804441000,1.805441162109375,-0.016866379126906392,0.007059161263890564,0.0001112600884400308
1783246402814453200,1.815453369140625,-0.02883446481823921,0.0023435674514621493,0.002811630204494577
1783246402824464100,1.825464111328125,-0.004590834921598434,-0.0021986060228198767,-0.0024606407927582038
1783246402834476300,1.835476318359375,-0.019701310291886327,0.004767835456319153,-0.002389027728117071
1783246402844488200,1.84548828125,-0.01939677438735962,-0.0010430427795276045,0.008300254216033498
1783246402854499000,1.8554990234375,-0.013259294545650481,-0.011266476760618389,-0.00031517374626128
1783246402864511200,1.86551123046875,-0.019544658425450324,0.006849610166437923,-0.0013133202214259654
1783246402874522000,1.875522216796875,-0.02029109287858009,0.010401676624827086,0.004037975395366084
1783246402884534000,1.885533935546875,-0.017448562929034232,-0.011731756184808909,0.004610288540739566
1783246402894545400,1.89554541015625,-0.015799626678228377,0.005547112733125686,-0.00001967966471565887
1783246402904557300,1.905557373046875,-0.020285247659683227,-0.021035883363895117,-0.005628345292771701
1783246402914569200,1.9155693359375,-0.034650457620620724,-0.0015913608446717262,0.010632491989305708
1783246402924580000,1.925580078125,-0.02447860769629478,-0.0009035977762192487,0.0025892401750665156
1783246402934592300,1.93559228515625,-0.02433013913631439,0.003911730083636939,-0.006057110365165863
1783246402944603100,1.94560302734375,-0.013556231665611266,0.00452343224119395,-0.003551543585292529
1783246402954615000,1.955614990234375,-0.008770750954747199,-0.003930069457925856,0.00647049977191491
1783246402964627200,1.965627197265625,-0.024187515795230864,-0.00488035592008382,0.0028254897664883173
1783246402974638300,1.975638427734375,-0.01371112996637821,-0.003728665134310722,-0.006880014437856153
1783246402984650200,1.985650146484375,-0.018950199663639068,0.004550137585029005,0.012305156175571028
1783246402994661000,1.9956611328125,-0.027033552876114843,0.008059460880234837,-0.004344922452687751
1783246403004673300,2.00567333984375,-0.02553834588229656,0.008380947919562459,0.0036623584324494
1783246403014684200,2.01568408203125,-0.0159597856760025,-0.00003638648763298988,0.005001566580380313
1783246403024696000,2.025696044921875,-0.020597382348775863,0.005609254716522991,-0.004911785388097632
1783246403034708200,2.035708251953125,-0.026136311775445936,0.004763305411674082,0.011369304664141964
1783246403044719000,2.045718994140625,-0.015363573348522185,-0.013304960318282245,-0.002530678388243541
1783246403054731000,2.05573095703125,-0.014613631764054297,0.007610036612302065,0.015466355586273128
1783246403064742100,2.0657421875,-0.011471242085099219,0.0059663245258852835,0.007745084001705981
1783246403074754300,2.07575439453125,-0.014913491493463516,-0.01273223846424371,-0.0055634702128823845
1783246403084766200,2.08576611328125,-0.02463993573784828,0.004028963255137205,-0.017096998128562697
1783246403094777000,2.095777099609375,-0.009226678028702735,0.0001276815002784133,-0.0023160926393582483
1783246403104789200,2.105789306640625,-0.009676759883761406,-0.007616831679269671,0.0074922851342824285
1783246403114800000,2.115800048828125,-0.012370821273326874,0.0069053954742848865,-0.004458885954867583
1783246403124812000,2.12581201171875,-0.0237415255934,0.008367540448717773,-0.005004790583928115
1783246403134823200,2.1358232421875,-0.00847965905368328,0.00031710312515497206,0.006076979542837944
1783246403144835300,2.14583544921875,-0.016563596788048744,-0.0012401362542062996,-0.00010899049954023212
1783246403154847200,2.15584716796875,-0.01671498795747757,-0.0038904680998995897,-0.0052366905105067415
1783246403164858000,2.165858154296875,-0.02434241409599781,-0.0023419965488836168,-0.012052597053453792
1783246403174870300,2.175870361328125,-0.021348492977023122,-0.0016170432751998305,-0.004503704627417028
1783246403184881200,2.185881103515625,-0.015963877329230308,0.004419752671010792,-0.004566433415992651
1783246403194893000,2.19589306640625,-0.024791326907277107,0.006039608957804739,0.010430366146482992
1783246403204904200,2.205904296875,-0.011174889487028121,0.006352510831877589,-0.0026472516893292775
1783246403214916400,2.215916259765625,-0.038112580773234365,-0.005978562952950597,0.007931957476469688
1783246403224928300,2.22592822265625,-0.029879589956998822,-0.0015699161978438496,-0.002996834595268592
1783246403234939100,2.235939208984375,-0.007882277682423592,0.005455744655244052,-0.0039012315225088966
1783246403244951300,2.245951416015625,-0.025838790133595465,0.0008167597429826855,-0.0033717368888435883
1783246403254962200,2.255962158203125,-0.01925590461194515,0.0012970906058326363,-0.007368081082589924
1783246403264974000,2.26597412109375,-0.019856208592653274,-0.007335530519858002,-0.0006726819470408372
1783246403274985200,2.275985107421875,-0.010278232908248901,-0.006761383893713354,0.0037903116440749724
1783246403284997000,2.2859970703125,-0.007138765838742255,0.010357252961210905,-0.0004074619894614443
1783246403295009000,2.296009033203125,-0.008183306455612183,-0.001086333931982517,0.008853716530464588
1783246403305020200,2.306020263671875,-0.01925239748060703,0.004945347447693348,-0.00013149230900453402
1783246403315032300,2.3160322265625,-0.02299041496515274,-0.01084320984724909,0.005079239493049681
1783246403325043200,2.326043212890625,-0.010417933639883994,-0.005217990376614034,0.006971040022443048
1783246403335055000,2.33605517578125,-0.015054361268877983,-0.003487111463397741,0.010252189718117005
1783246403345067300,2.3460673828125,-0.013707038313150404,0.003087444621324539,-0.0011503093961509876
1783246403355078100,2.356078125,-0.017300094369053838,0.0019237711368128656,-0.005502707335818559
1783246403365090000,2.366090087890625,-0.022535656934976576,0.014005071411654352,0.006621708278253208
1783246403375101200,2.37610107421875,-0.02104103446304798,-0.007651501133851706,0.011149919442553072
1783246403385113300,2.38611328125,-0.030317396852374074,-0.011554572986997663,-0.011250496023485901
1783246403395124200,2.396124267578125,-0.04453296920955181,-0.0006277765095233917,0.0009416921637486666
1783246403405136100,2.40613623046875,-0.028673136776685714,0.005405110446549952,-0.007143853005813434
1783246403415148300,2.416148193359375,-0.011166706180572509,-0.0029394875179976224,-0.004653951869241427
1783246403425159200,2.4261591796875,-0.00817863028049469,-0.004922770289704203,0.015401727101556024
1783246403435171000,2.436171142578125,-0.013119009292125701,0.00022036475241184232,-0.003931334399827756
1783246403445182200,2.44618212890625,-0.009827566531300545,-0.0059054977167397734,-0.002632926336454693
1783246403455194000,2.456194091796875,-0.020451836398243904,-0.007688143349811434,-0.0027363981273723767
1783246403465205200,2.466205322265625,-0.027486557340621946,-0.0056866673342883586,-0.0010053753669722937
1783246403475217200,2.476217041015625,-0.018513561812043187,0.005063786195591092,-0.001446212186361663
1783246403485229300,2.486229248046875,-0.0235977332085371,-0.0035545141438022253,0.004861706018541008
1783246403495240200,2.496240234375,-0.01042377885878086,0.010067366636544466,-0.006184702817187644
1783246403505252000,2.506252197265625,-0.019402035084366796,0.0076676485510542985,0.0008333478348911739
1783246403515263200,2.51626318359375,-0.013563830450177191,-0.00585815144367516,0.00901090953630628
1783246403525275100,2.526275146484375,-0.012665420305728911,-0.004522153599560261,0.008298340820160227
1783246403535287000,2.536287109375,-0.01610416258275509,-0.008335903201438486,-0.009599653226672672
1783246403545298200,2.546298095703125,-0.02103928089737892,0.0005732333106920123,-0.010784113770886323
1783246403555310300,2.556310302734375,-0.013856091395020484,-0.00497789801042527,0.011710861810541245
1783246403565321200,2.5663212890625,-0.020443068569898606,0.0013979571644216775,0.017471909555292223
1783246403575333000,2.5763330078125,-0.012210077753663062,-0.007655629319697618,0.0036282255506957877
1783246403585344300,2.58634423828125,-0.024331308180093762,-0.001958257928304374,0.005113290176412556
1783246403595356200,2.596356201171875,-0.02193944460749626,0.000807297794893384,0.0027403116840869187
1783246403605368000,2.6063681640625,-0.020746435430645943,-0.00581643119379878,0.007593274990457575
1783246403615379200,2.616379150390625,-0.014614216285943985,-0.0026013416048139334,0.009286833550990558
1783246403625391400,2.626391357421875,-0.01745382362604141,-0.010619922485388815,0.013040450463467277
1783246403635402200,2.63640234375,-0.0072761284828186034,-0.005002155668847263,-0.003152532047056593
1783246403645414100,2.6464140625,-0.017751345267891884,-0.0036488778963685033,-0.009071268271282315
1783246403655425300,2.65642529296875,-0.021940613651275632,-0.00590345189012587,0.000532074749819003
1783246403665437200,2.666437255859375,-0.02358545824885368,-0.011011954010277986,-0.0071984921027673406
1783246403675449000,2.676448974609375,-0.014760931280255317,-0.005973448386415839,-0.001939089720242191
1783246403685460000,2.6864599609375,-0.028229484662413595,-0.009536072771437466,0.0032252936058794145
1783246403695472000,2.69647216796875,-0.03271744373142719,-0.0088159783359617,0.015187029471527785
1783246403705483300,2.706483154296875,-0.031220483171939848,-0.0037536534450948234,0.006800514894281514
1783246403715495200,2.7164951171875,-0.02299333757460117,-0.0006877630684524774,0.008738494936248753
1783246403725506300,2.72650634765625,-0.013862521135807037,-0.0013554331969469785,-0.0041375222131260665
1783246403735518200,2.736518310546875,-0.014460487028956413,-0.0001615472372621298,-0.0033450292617199008
1783246403745530000,2.746530029296875,-0.018650924456119537,-0.006128090958856046,-0.002624937109532766
1783246403755541000,2.756541015625,-0.03032324207127094,0.004516673706844449,0.013270051118393893
1783246403765553200,2.76655322265625,-0.012067454412579537,0.0007739800471812487,0.011473233112785964
1783246403775564300,2.776564208984375,-0.013716975185275078,-0.008867598925344645,0.0007381118660676292
1783246403785576200,2.786576171875,-0.026439094114303587,-0.0036922786466777324,-0.0007525673663942143
1783246403795588400,2.79658837890625,-0.014164134430885314,0.013995938257127999,0.006749236798193305
1783246403805599200,2.80659912109375,-0.028975919115543362,0.00883778830897063,-0.000504472073551733
1783246403815611100,2.816611083984375,-0.02463642860651016,0.0007664543278515339,-0.0066045493641868225
1783246403825622300,2.826622314453125,-0.009078209468722342,-0.004217873423360288,0.004020142911153379
1783246403835634200,2.83663427734375,-0.01925298200249672,0.0056415130183100695,0.0018541445332812144
1783246403845645300,2.846645263671875,-0.030626608932018278,0.002077098535001278,-0.017046025993151123
1783246403855657200,2.8566572265625,-0.028683658170700073,0.016956249367445705,-0.007803022450732533
1783246403865669400,2.86666943359375,-0.020002923586964608,-0.0025373364578932522,0.0025931651482242156
1783246403875680300,2.87668017578125,0.004691372686624526,-0.01670596440080553,0.014730351195612456
1783246403885692200,2.886692138671875,-0.02463525956273079,-0.008836984591372311,-0.007838497906201518
1783246403895703300,2.896703369140625,-0.03555705107152462,-0.00019095599483698604,0.0030107169901486485
1783246403905715200,2.906715087890625,-0.017747253614664078,0.002580846806056797,-0.0012552653246792032
1783246403915726000,2.91672607421875,-0.02612345229387283,0.006236556302011012,-0.006977524562156759
1783246403925738000,2.926738037109375,-0.022082652470469474,0.0012786781663075089,0.0023655258382321333
1783246403935750100,2.936750244140625,-0.014748071798682212,-0.01388940914273262,0.008751489131851121
1783246403945761300,2.94676123046875,-0.024774375772476195,-0.007142820959351957,0.012760005537292453
1783246403955773200,2.956773193359375,-0.023726328024268148,0.004362798319384456,0.002308630852110218
1783246403965784300,2.966784423828125,-0.015346622213721274,-0.004306830348446965,0.0007748339971294626
1783246403975796200,2.976796142578125,-0.025371172621846197,-0.009716251643933355,-0.0036675414976431054
1783246403985808100,2.98680810546875,-0.019535890597105025,0.0028696006195619702,0.0033468170767184343
1783246403995819000,2.996819091796875,-0.01489712488055229,-0.0023751681661233304,-0.002345510530087631
1783246404005831200,3.0068310546875,-0.011752981635928153,0.002068696032837033,0.0068975683608558025
1783246404015842300,3.01684228515625,-0.011603928554058075,-0.0031647476412355897,0.006505073328374419
1783246404025854200,3.026854248046875,-0.022828502401709555,0.006019406419992447,-0.004514639296673704
1783246404035865300,3.036865234375,-0.011158522874116897,0.006360730670951307,-0.004489102996618021
1783246404045877200,3.046877197265625,-0.01923895347714424,0.0071120604949072,0.004127441493817605
1783246404055889200,3.05688916015625,-0.0286649534702301,0.0060220002358779305,0.0020943784633651375
1783246404065900000,3.066900146484375,-0.01953647511899471,-0.0008679784735664724,-0.012683051860542036
1783246404075912200,3.076912109375,-0.025220950496196746,0.01674658867213875,0.007712081347825005
1783246404085923000,3.086923095703125,-0.01893091044127941,0.008982165215723216,0.012173638750391546
1783246404095935200,3.096935302734375,-0.021472996139526367,-0.004231061698496342,-0.0027859409241005775
1783246404105946400,3.1069462890625,-0.02566694069802761,0.0056077568791806694,0.005965751420438755
1783246404115958300,3.116958251953125,-0.025368250012397765,0.005468311875872314,-0.0035854207387194035
1783246404125970200,3.12697021484375,-0.023573183289170265,0.011615618991851807,-0.009601584888854995
1783246404135981000,3.13698095703125,-0.03150514533221722,-0.006163527598418295,-0.008134190633858089
1783246404145993200,3.1469931640625,-0.026420389413833616,0.0018455913340672848,0.005461772537231445
1783246404156004000,3.157004150390625,-0.008163432711362838,-0.005510981973819435,0.006092576687480322
1783246404166016000,3.16701611328125,-0.022378420546650884,0.004350267631374299,0.002766003247769549
1783246404176028200,3.177028076171875,-0.01609305666685104,-0.0006111541682854295,0.01776442166188499
1783246404186039300,3.187039306640625,-0.03285363733172417,0.00002703413739800453,-0.0059062877346063025
1783246404196051200,3.19705126953125,-0.013400164321064948,0.0000016074351966381072,0.01221668787425151
1783246404206062300,3.207062255859375,-0.02836217113137245,-0.010959895029477775,0.007196989698847756
1783246404216074200,3.21707421875,-0.016092472144961355,-0.010484824863635002,-0.0011836020276881753
1783246404226085000,3.227085205078125,-0.01833528263568878,-0.007089044945500791,0.0011034859961830078
1783246404236097000,3.237096923828125,-0.0032207156121730803,0.0011033215994015336,0.016773942469945177
1783246404246109200,3.247109130859375,-0.019680267503857613,-0.006849135242402553,0.0000922083280980587
1783246404256120300,3.257120361328125,-0.02117839710712433,0.009355017116107046,0.0015559401881298982
1783246404266132200,3.26713232421875,-0.01100070196390152,-0.0016301219524815678,-0.007570786880725063
1783246404276143400,3.277143310546875,-0.014739303970336914,-0.010656382038258016,-0.005642138639395125
1783246404286155300,3.2871552734375,-0.008454524612426757,0.009688377256318926,0.005136716717772652
1783246404296166100,3.297166259765625,-0.02162438730895519,-0.002242335566692054,0.0003333761232323013
1783246404306178000,3.307177978515625,-0.015191139391064644,-0.005946012390218675,-0.0016137279401067643
1783246404316190200,3.317190185546875,-0.0147398884922266,0.003871142344921827,0.0021231958491844125
1783246404326201000,3.327201171875,-0.018780688315629956,-0.011976634323969483,-0.000776811325084418
1783246404336213000,3.337212890625,-0.016234510964155197,-0.006941672364063561,0.001683550906460732
1783246404346224400,3.347224365234375,-0.025363573837280273,0.00386252064704895,-0.001264930485456716
1783246404356236300,3.357236328125,-0.0147398884922266,0.005538527567870915,-0.003600296364154201
1783246404366248200,3.367248291015625,-0.010548282021284102,-0.004380480106547475,0.011155193839292041
1783246404376259000,3.377259033203125,-0.019525953724980352,-0.006927570773474872,0.0031298384413472376
1783246404386271200,3.387271240234375,-0.012042319971323013,0.001256502867117524,-0.0009138588753296061
1783246404396282000,3.3972822265625,-0.015487491989135741,-0.004788074526749551,0.005510781044419854
1783246404406294000,3.4072939453125,-0.015191139391064644,-0.003672477967664599,0.010450628049799706
1783246404416305400,3.417305419921875,-0.012046996146440505,0.0033184768982231615,0.00973236024522921
1783246404426317300,3.4273173828125,-0.017432780838012696,0.006887531024031341,0.005278490675485227
1783246404436329200,3.4373291015625,-0.022967034089565276,-0.01083389402963221,-0.0009480990716489032
1783246404446340000,3.447340087890625,-0.022364976543188093,-0.006274331029132009,0.007010511233017313
1783246404456352300,3.457352294921875,-0.016828385204076767,0.012730119572393596,-0.003165019352582749
1783246404466363100,3.467363037109375,-0.018472645279765127,0.005808138289488851,-0.008475138142192735
1783246404476375000,3.477375,-0.01787467938661575,-0.002998158902674913,0.005928008659358602
1783246404486386200,3.48738623046875,-0.028947862064838407,-0.009747487032413482,0.003054727378522511
1783246404496398300,3.4973984375,-0.019070026651024818,-0.009931063438393175,-0.005632359314186032
1783246404506410200,3.50741015625,-0.02295943530499935,-0.002187719302624464,-0.0009965573062771
1783246404516421400,3.51742138671875,-0.013980594557523726,-0.011178177422657608,-0.0037212216133717447
1783246404526433300,3.527433349609375,-0.011285364124178885,-0.0020934286152943966,0.00015940551252570002
1783246404536444200,3.537444091796875,-0.018319500544667244,-0.003569930908642709,0.004207989066874142
1783246404546456000,3.5474560546875,-0.026101824983954428,0.004839841246604919,-0.004201422328769694
1783246404556468200,3.55746826171875,-0.029394436788558957,-0.004861358958669007,-0.005991787760704755
1783246404566479000,3.56747900390625,-0.014728782576322555,0.007970102096349,0.005934573114174418
1783246404576490800,3.57749072265625,-0.03253273481428623,-0.006178250243514776,-0.003697913803020492
1783246404586502000,3.587501953125,-0.017867665123939513,-0.002460983286052942,-0.0010382844060193746
1783246404596514000,3.59751416015625,-0.02385316927433014,0.0014348551087081433,-0.009111248655221425
1783246404606525000,3.60752490234375,-0.013681319350004195,0.003462415413558483,-0.0033249523047823456
1783246404616536800,3.617536865234375,-0.011584639331698418,-0.006455715478025376,0.00714922330067493
1783246404626549000,3.627549072265625,-0.02879004115462303,-0.01147562599927187,-0.010427959560265298
1783246404636560000,3.637559814453125,-0.02011164465844631,-0.004865852470695972,-0.009963693916227203
1783246404646571800,3.64757177734375,-0.028492519512772558,0.0009925181686878204,-0.008534293584059924
1783246404656583000,3.6575830078125,-0.021164953103661534,0.008442030457034707,0.0023773646897869184
1783246404666595000,3.667594970703125,-0.024307927304506302,0.008447510349750519,0.004178413629229181
1783246404676606000,3.67760595703125,-0.009494973576068877,-0.006184387723356485,-0.0026014694689773022
1783246404686617900,3.687617919921875,-0.018476736932992933,-0.008799830918759107,-0.004434897724504117
1783246404696630000,3.697630126953125,-0.006957564052939414,-0.0003388400329276919,0.004406861223396845
1783246404706641000,3.707640869140625,-0.02341828498840332,-0.009597703298181295,0.006770138022326864
1783246404716652800,3.71765283203125,-0.008154080361127853,-0.0017065481895580886,-0.0037651726362411863
1783246404726664200,3.727664306640625,-0.024317279654741286,-0.0027073592625558376,0.01441725295871729
1783246404736676000,3.737676025390625,-0.021774609434604644,-0.012098507137969136,-0.00140054869701853
1783246404746688000,3.74768798828125,-0.02506780576109886,0.004549479997903109,-0.0031973301700083537
1783246404756699000,3.757698974609375,-0.023571429723501205,-0.00847465408500284,0.005516201571631245
1783246404766711000,3.7677109375,-0.006664134064316749,0.00714534171000123,-0.01253726616470376
1783246404776722000,3.777721923828125,-0.026866964137554166,0.0007419409411028027,0.019310466077085583
1783246404786733800,3.78773388671875,-0.01609305666685104,-0.004795855974406004,0.01213925699017709
1783246404796745000,3.797744873046875,-0.033899931514263154,-0.0043399289004504675,-0.004041845569596626
1783246404806756900,3.8077568359375,-0.019838088414072988,-0.015625914079137146,-0.0026423814346781
1783246404816768800,3.817768798828125,-0.017595277923345566,-0.00629668899141252,0.00772693870695075
1783246404826780000,3.82777978515625,-0.019388591080904006,0.0011323284981772303,-0.0028918010349269023
1783246404836792000,3.8377919921875,-0.013252280282974243,-0.006833133955672383,0.0026686232709209434
1783246404846803000,3.847802978515625,-0.014748071798682212,-0.0029542466957122085,0.0128451219709008
1783246404856814800,3.85781494140625,-0.014448212069272994,-0.0022130729395896196,0.011068472253775689
1783246404866826000,3.867825927734375,-0.01893967826962471,0.006227277017012238,-0.0014859117257990874
1783246404876838000,3.877837890625,-0.0154980133831501,-0.003208111858926713,0.006611438045988325
1783246404886849800,3.887849853515625,-0.019385083949565885,-0.0025484423737972975,-0.008226819087064359
1783246404896861000,3.89786083984375,-0.031955227187275885,-0.00493449726011604,0.007591436943109147
1783246404906873000,3.907873046875,-0.015793196937441824,-0.001520597163401544,0.0012267082337639294
1783246404916884000,3.917884033203125,-0.007412322083115578,-0.003196786747314036,0.00874645448041847
1783246404926895900,3.927895751953125,-0.02596621590554714,0.0024632117757573723,0.006788676042726729
1783246404936907000,3.937906982421875,-0.022224106767773626,-0.0017683248467743396,-0.003428755172551609
1783246404946919000,3.9479189453125,-0.017733809611201284,-0.0019474077407270669,0.004820937900024001
1783246404956930800,3.957930908203125,-0.014441197806596756,-0.0010592267293483017,0.011846642135595902
1783246404966942000,3.96794189453125,-0.022073884642124175,-0.0070172218183055515,0.009501095072890165
1783246404976953900,3.977953857421875,-0.030601474490761754,0.0026690000135451554,-0.0027535159422433933
1783246404986965000,3.987965087890625,-0.03463876718282699,-0.00653506432455033,0.0062044304309645665
1783246404996977000,3.997976806640625,-0.025958617120981214,-0.008362279751710593,0.009474839536915533
1783246405006989000,4.007989013671875,-0.015933482190966606,-0.0008487257838249206,-0.002827094918396324
1783246405017000000,4.018,-0.016233341920375823,-0.008474471421912311,0.004925864145800005
1783246405027011800,4.02801171875,-0.013092121285200119,0.007716346530988812,-0.011239298776036593
1783246405037023000,4.03802294921875,-0.024913491982221602,0.009356843747012317,0.0021866050577722487
1783246405047035000,4.048034912109375,-0.019527122768759727,-0.0046925417304039,0.01366144332246622
1783246405057046000,4.0580458984375,-0.01428980663716793,0.01654737630560994,-0.006607903515186626
1783246405067058000,4.068057861328125,-0.025664018088579175,0.009998137325234711,-0.008922808844456448
1783246405077070000,4.078070068359375,-0.015191139391064644,0.0013713979510590433,-0.0029853976025129665
1783246405087081000,4.0880810546875,-0.027012510088086125,-0.004021181807480752,-0.007877743071201256
1783246405097092900,4.0980927734375,-0.020877952855825423,0.000641037849895656,-0.008030629794683773
1783246405107104000,4.10810400390625,-0.02371931376159191,0.0008883636744692921,-0.005639987781504169
1783246405117116000,4.118115966796875,-0.01863105071187019,0.0013171835457906126,-0.0010464174801250918
1783246405127127000,4.128126953125,-0.025065467673540114,-0.01723871957063675,-0.002845075816370081
1783246405137139000,4.138138916015625,-0.015635960549116135,-0.0063609863992780446,0.000802046231040731
1783246405147151000,4.148151123046875,-0.03134498633444309,0.0002971563156694174,0.003879636178631335
1783246405157162000,4.158161865234375,-0.02086860050559044,-0.0022801102938130495,0.0061334407041198575
1783246405167174000,4.168173828125,-0.01772971795797348,0.003785473355464637,0.013163770882459357
1783246405177185000,4.17818505859375,-0.0068073419272899624,-0.0015714505678042767,-0.004095260823844001
1783246405187197000,4.188197021484375,-0.021025836893916128,0.0029922040859237313,0.0003482654483988881
1783246405197207800,4.198207763671875,-0.024769115075469014,-0.004291377050988376,-0.004821100013516843
1783246405207219700,4.2082197265625,-0.00845920078754425,-0.0062354237908497446,-0.005468624686414841
1783246405217232000,4.21823193359375,-0.013695347875356673,0.004962663908675313,0.005692704349430278
1783246405227243000,4.228242919921875,-0.03075461922585964,-0.00595306318551302,0.013101277272612786
1783246405237255000,4.2382548828125,-0.019082301610708237,-0.0035747532142326234,0.002338973474735394
1783246405247266000,4.24826611328125,-0.022674188622832298,0.007809066315740346,0.0019420123296906239
1783246405257278000,4.25827783203125,-0.023868951365351675,0.006113514444231987,0.009145383820263668
1783246405267289900,4.268289794921875,-0.025811317604780195,0.002145999052748084,-0.0016397437307750806
1783246405277300700,4.27830078125,-0.015036241090297699,-0.007166311432793736,0.004095511985593475
1783246405287313000,4.28831298828125,-0.01847732145488262,-0.002242408631928265,0.016361959568993188
1783246405297324000,4.298323974609375,-0.02416296587586403,-0.007951506993733346,0.009280960932630113
1783246405307336000,4.3083359375,-0.02595978616476059,0.0013556158600375055,-0.007536322922119871
1783246405317347000,4.31834716796875,-0.021620880177617072,0.003002944675646722,-0.004435708291968331
1783246405327359000,4.32835888671875,-0.018330021938681603,0.0055881753958761686,-0.005981907970795873
1783246405337371000,4.338370849609375,-0.02237257532775402,-0.00841309662349522,-0.005187871516274754
1783246405347382000,4.348382080078125,-0.015640636724233627,0.007791238398104906,0.0014203744922066106
1783246405357394000,4.358393798828125,-0.01354863288104534,0.0038216406473889943,0.008908673004538285
1783246405367405000,4.368405029296875,-0.014448212069272994,-0.008858611901290715,-0.0013168250694754534
1783246405377417000,4.3784169921875,-0.011903203761577606,-0.004410071527212858,0.007686083823465742
1783246405387428000,4.388427978515625,-0.01863455784320831,-0.009689582832716405,-0.00423019633210497
1783246405397440000,4.39843994140625,-0.01219663375020027,-0.0048432387800887225,0.0009080227895872666
1783246405407452000,4.408451904296875,-0.02042787100076675,-0.004511668738164007,-0.00316963616219582
1783246405417463000,4.418463134765625,-0.020130933880805967,0.00451945018582046,0.0007282457758905366
1783246405427475000,4.428474853515625,-0.022523381975293157,-0.007946976949088275,0.006832996958354488
1783246405437485800,4.43848583984375,-0.0042693478822708126,0.0019821867931634186,0.0033928116429131475
1783246405447497700,4.448497802734375,-0.0145960961073637,0.002608867324143648,-0.006583136683399789
1783246405457509000,4.458509033203125,-0.01863338879942894,-0.0003051934916526079,-0.00282618388623232
1783246405467521000,4.46852099609375,-0.010553542718291281,0.0004577537048608064,-0.001451895291765686
1783246405477533000,4.478532958984375,-0.019237784433364866,0.003885353533364832,0.006971188436204101
1783246405487544000,4.4885439453125,-0.02387888823747635,0.0003602846797555685,0.003450827723753173
1783246405497556000,4.498555908203125,-0.03988952731788158,-0.006984525125101208,-0.006703758255229331
1783246405507566800,4.50856689453125,-0.02432721652686596,0.004686038924381137,0.012972979284403845
1783246405517578800,4.518578857421875,-0.013549801924824714,0.0023596418034285307,0.001659786438383162
1783246405527591000,4.5285908203125,-0.026569442495703696,-0.0013594517849385738,0.003601492807397153
1783246405537602000,4.53860205078125,-0.0202864167034626,-0.0062585489381104704,0.0034229031037888488
1783246405547614000,4.548614013671875,-0.019838088414072988,-0.004887589378468692,-0.0007567275182809681
1783246405557625000,4.558625,-0.01968728176653385,0.0021199512960389257,0.005870175241609103
1783246405567637000,4.568636962890625,-0.027616321200132368,-0.008546075353398918,0.006195747084298636
1783246405577648600,4.578648681640625,-0.027165070301294326,-0.007099529806897043,-0.0043618941370863465
1783246405587660500,4.58866064453125,-0.028059388792514798,0.008076302417181432,-0.007160705959203187
1783246405597672400,4.59867236328125,-0.01968202106952667,-0.008036956787481904,-0.0188773262236733
1783246405607683600,4.60868359375,-0.009806523743271827,-0.0027724238554015755,0.006912275022931862
1783246405617695500,4.618695556640625,-0.005320902761816978,0.000007379588857293129,-0.0021906761614023705
1783246405627706600,4.62870654296875,-0.028516484910249707,0.003041998044401407,-0.01130869020083919
1783246405637718800,4.63871875,-0.015344868648052215,-0.002728255920112133,0.01071077454003971
1783246405647729700,4.648729736328125,-0.00935585736632347,-0.007602035968936979,-0.006331287664046976
1783246405657741600,4.658741455078125,-0.02596621590554714,0.0037774361794814465,-0.0071769287249306216
1783246405667753500,4.66875341796875,-0.02776128262877464,-0.013003383555822074,0.010016574880934785
1783246405677764600,4.6787646484375,-0.007859481328725814,-0.0013216770578175783,-0.0029666997519088908
1783246405687776500,4.688776611328125,-0.016838906598091126,-0.007889584206044674,0.005365200844558421
1783246405697787600,4.69878759765625,-0.009507833057641982,0.005914630871266127,-0.010586700635799206
1783246405707799600,4.708799560546875,-0.023723405414819716,0.010710925237089395,0.000442136010620743
1783246405717811700,4.718811767578125,-0.021777532044053076,-0.004710406180657446,-0.00425341509419959
1783246405727822600,4.728822509765625,-0.013698270484805106,-0.011874817917309701,-0.0017303811562946066
1783246405737834800,4.738834716796875,-0.012798106774687767,0.005876965741999447,0.008439861332834697
1783246405747845600,4.748845703125,-0.019980711755156515,0.0067759604083374135,0.005612684216047637
1783246405757857500,4.758857421875,-0.014143091642856598,0.003893938698619604,0.0040014245109516195
1783246405767868400,4.768868408203125,-0.014141338077187537,-0.009916559989005327,-0.01108134086850332
1783246405777880600,4.778880615234375,-0.029703064346313476,-0.006038184185698628,0.015480621573643293
1783246405787892500,4.788892578125,-0.017878771039843557,-0.006708923054113984,0.009557453486183658
1783246405797903600,4.798903564453125,-0.016830138769745824,0.005389985942654311,-0.005169333495874889
1783246405807915800,4.808915771484375,-0.009946224474906921,0.0014886676551774144,0.004267436769686174
1783246405817926700,4.8189267578125,-0.013088614153861998,0.0007492109321057797,0.003381144038005732
1783246405827938600,4.8289384765625,-0.01698211446106434,0.0027603680914267898,-0.003641121564886998
1783246405837949400,4.838949462890625,-0.015487491989135741,-0.006008994623832404,0.003140720594965387
1783246405847961600,4.848961669921875,-0.02162614087462425,-0.011454729341715573,0.014104896790627389
1783246405857973500,4.858973388671875,-0.01788695434629917,0.0010014686601236462,0.005437629043241031
1783246405867984600,4.868984619140625,-0.008911620730161666,-0.006109386258386075,-0.0004811939459526911
1783246405877996800,4.878996826171875,-0.005020458510518073,0.00464819113202393,-0.006425037211971357
1783246405888007700,4.889007568359375,-0.025520810225605962,0.0039004780372604727,-0.0004853244150872342
1783246405898019600,4.89901953125,-0.01444704302549362,-0.012717296623438595,0.002268664167902898
1783246405908031500,4.909031494140625,-0.011456629037857055,-0.009366561423428356,0.0013951738355797714
1783246405918042600,4.919042724609375,-0.018040683603286742,0.007098251165263354,-0.0020826880255714057
1783246405928054500,4.929054443359375,-0.03390402316749096,-0.005128266266547143,0.002923776208923664
1783246405938065400,4.9390654296875,-0.02178571535050869,-0.0073193100374191996,0.01192007498127641
1783246405948077600,4.94907763671875,-0.013257540979981422,-0.0011420827072113752,0.0049008598519954824
1783246405958088700,4.959088623046875,-0.02059270617365837,-0.009455920207314193,0.005096140395500697
1783246405968100600,4.9691005859375,-0.02852349917292595,0.008060045402124523,-0.0064802128817536865
1783246405978112500,4.979112548828125,-0.01999707836806774,0.0038037031318992375,-0.00201135808872059
1783246405988123600,4.98912353515625,-0.0107183778911829,0.01664418774358928,0.013258410912950058
1783246405998135600,4.999135498046875,-0.01655073730647564,-0.0005017389770597219,0.008479448991129174
1783246406008146400,5.009146484375,-0.014905308187007903,-0.008869133295305073,0.006258777266973629
1783246406018158600,5.01915869140625,-0.025527239966392515,-0.00009089315384626388,-0.010591440742998384
1783246406028169700,5.029169677734375,-0.014155951124429703,-0.005150222370028495,0.007430355496727861
1783246406038181600,5.039181640625,-0.015951017847657203,0.010706943181715904,0.009577703973057213
1783246406048193800,5.04919384765625,-0.01714753415584564,-0.00456913454644382,-0.004840236255538184
1783246406058204700,5.05920458984375,-0.007124152791500091,-0.008094605258852243,0.0013348653329536319
1783246406068216600,5.069216552734375,-0.01205985562801361,0.00951159591730684,0.005681625832989812
1783246406078227500,5.0792275390625,-0.008317746490240096,0.00633482904471457,-0.009750729302270337
1783246406088239600,5.089239501953125,-0.027021277916431427,-0.004179185380786657,0.002230270669562742
1783246406098250800,5.099250732421875,-0.01894318540096283,-0.003971862773038446,-0.011843641894333996
1783246406108262700,5.1092626953125,-0.013410685715079307,0.0016681158753111957,-0.006779967579885852
1783246406118274800,5.11927490234375,-0.021786299872398374,-0.00889382934514433,0.0013481198234600014
1783246406128285700,5.12928564453125,-0.021485855621099472,-0.006533347291499376,0.014542998230236116
1783246406138297600,5.139297607421875,-0.020140286231040954,0.009212759101204573,0.008281512982945423
1783246406148308500,5.14930859375,-0.021189503023028373,0.0017735855437815188,0.004858107555657625
1783246406158320600,5.159320556640625,-0.013857260438799857,-0.0034559856727719306,0.0018924330003443172
1783246406168332500,5.16933251953125,-0.022982231658697127,0.010233480451069771,0.005067017049004789
1783246406178343400,5.179343505859375,-0.02462766077816486,0.0021427111171185968,-0.005714365908678155
1783246406188355600,5.18935546875,-0.024628245300054547,-0.002931559939868748,0.0032476744010462425
1783246406198366700,5.19936669921875,-0.005026888251304626,0.007271488840319216,-0.0011189210273325444
1783246406208378600,5.209378662109375,-0.014604863935708999,-0.008711714243888854,0.005837325568066444
1783246406218389500,5.219389404296875,-0.02702420052587986,-0.0007900543991476297,-0.01432908376820851
1783246406228401700,5.229401611328125,-0.01071136362850666,0.009923355055972933,0.010861135946295689
1783246406238413600,5.23941357421875,-0.03300327493548393,0.003992394104413688,0.012397083659167401
1783246406248424400,5.249424560546875,-0.012052256843447684,-0.00890793093573302,0.0005079175560967997
1783246406258436600,5.2594365234375,-0.030009353816509245,0.01249784518647939,-0.003033248482365161
1783246406268447700,5.26944775390625,-0.00561667083799839,-0.0002618292739614844,0.0013031778533244506
1783246406278459600,5.279459716796875,-0.028209610918164253,-0.020357070786878467,0.013516781004634685
1783246406288470500,5.289470458984375,-0.0029237784922122954,0.0021486294012516734,0.01812581830320414
1783246406298482700,5.299482666015625,-0.01773848578631878,0.0033677594000473617,-0.002217911228199955
1783246406308494600,5.30949462890625,-0.011900281152129173,-0.013452150236628949,0.0018659057530225254
1783246406318505500,5.31950537109375,-0.013691256222128868,-0.001138794771581888,0.012063944997952785
1783246406328517600,5.329517578125,-0.03553893089294433,0.007400412449613213,-0.007312747865892015
1783246406338528500,5.339528564453125,-0.016835399466753005,-0.002291508470661938,0.003280585723381955
1783246406348540700,5.349540771484375,-0.010102291819453239,-0.018421390016563236,0.014512173833709676
1783246406358551600,5.359551513671875,-0.03149930011332035,-0.013965396988391875,-0.0070788432118948546
1783246406368563700,5.369563720703125,-0.024466332736611366,0.0030811975436285137,-0.00877921967228176
1783246406378575600,5.37957568359375,-0.012946575334668158,-0.007180778349563479,0.022704750441166106
1783246406388586500,5.38958642578125,-0.03075812635719776,0.010748334638029336,-0.00810673408806324
1783246406398598700,5.3995986328125,-0.0160948102325201,0.007779913286492228,-0.019268677328550254
1783246406408609500,5.409609619140625,-0.025218612408638,-0.0060945905480533835,0.0007983450201689265
1783246406418621400,5.419621337890625,-0.0048655602097511285,0.0007353285372257233,0.016867198827525135
1783246406428632600,5.429632568359375,-0.028808745855093,0.010043291641212999,0.005971907166589517
1783246406438644700,5.439644775390625,-0.007709259203076363,0.0004542100409045815,-0.014888418701000045
1783246406448656600,5.44965673828125,-0.021772271347045898,-0.01728193765785545,0.012544689136045053
1783246406458667500,5.45966748046875,-0.020431378132104872,0.0023048794088885187,0.027945215227780863
1783246406468679700,5.4696796875,-0.021929507735371587,-0.009318155704438686,0.0017358747487422079
1783246406478690600,5.479690673828125,-0.020730653339624403,-0.0054685310715809465,-0.004591284729458857
1783246406488702500,5.489702392578125,-0.023425299251079557,0.007277589787542819,0.0034744049621629526
1783246406498714600,5.499714599609375,-0.011602759510278702,0.006495645629614591,0.02076191384427948
1783246406508725800,5.509725830078125,-0.030158406898379325,-0.0006706658031791448,0.004027084108593408
1783246406518737700,5.519737548828125,-0.02671908009946346,0.0032795331273227928,-0.0010593934094184079
1783246406528748500,5.52974853515625,-0.010710194584727287,-0.001143653609789908,0.014182017147447913
1783246406538760700,5.5397607421875,-0.0169967275083065,-0.003785729083791375,0.012409452233684714
1783246406548771600,5.549771484375,-0.009968436306715012,-0.0006960925053805112,-0.004022088273067493
1783246406558783500,5.559783447265625,-0.015057868400216102,0.0005322437131777406,-0.010438677317101974
1783246406568795600,5.569795654296875,-0.018649755412340163,-0.0018359467228874563,0.008487253271671942
1783246406578806300,5.57980615234375,-0.013113748595118522,0.002376008416339755,-0.0018153628758736885
1783246406588818400,5.589818359375,-0.012065116325020789,-0.003041888446547091,0.002702020933735184
1783246406598829300,5.599829345703125,-0.018802315625548363,0.012302066886052489,-0.011272753521066624
1783246406608841200,5.60984130859375,-0.027632687813043594,-0.00007496493235230446,-0.0035349052610341458
1783246406618852000,5.61985205078125,-0.010576923593878745,0.010484094211272894,0.007346732333884574
1783246406628864300,5.6298642578125,-0.023894670328497885,-0.0008871580980718136,0.012435778551606927
1783246406638876200,5.639876220703125,-0.01910392892062664,-0.003205262314714491,-0.00888873761149589
1783246406648887000,5.649886962890625,-0.010878536888957024,-0.0011382102496922016,-0.0008361220305785536
1783246406658899200,5.659899169921875,-0.017617489755153655,0.004389430597983301,-0.0004904983471264131
1783246406668910300,5.669910400390625,-0.03153261786103249,-0.012258300809562205,0.00041708833433222025
1783246406678922200,5.679922119140625,-0.01402618726491928,0.002588445590622723,0.00014327636163216084
1783246406688934400,5.689934326171875,-0.016568857485055922,0.012888744200207292,0.009496581011265515
1783246406698945300,5.6999453125,-0.01491933671236038,0.004406856656819582,0.013919432104949373
1783246406708957200,5.709957275390625,-0.008186229065060615,0.012337393927760421,-0.003389087599155027
1783246406718968000,5.719968017578125,-0.032124738535285,0.003274783886969089,-0.006999848275107797
1783246406728980200,5.729980224609375,-0.01925415104627609,-0.000648928895406425,0.00516546788822161
1783246406738991400,5.739991455078125,-0.021799743875861168,0.007472564370371401,0.0017334156468859874
1783246406749003300,5.750003173828125,-0.03212766114473343,0.0045473976386711,0.0006584342259797267
1783246406759015400,5.760015380859375,-0.023451602736115455,0.0007451192788779735,-0.000020917207153979686
1783246406769026300,5.7700263671875,-0.008639233529567717,-0.006702529845945536,0.0008471183486282825
1783246406779038200,5.7800380859375,-0.008193243327736854,-0.011563304282724857,0.012958621965488418
1783246406789049000,5.790049072265625,-0.017921441137790678,0.005991714695468544,0.0016516031319275498
1783246406799061200,5.800061279296875,-0.01762333497405052,0.003775244222395122,0.0007289376123459078
1783246406809072400,5.810072265625,-0.02450608022511005,0.0030072555245831607,-0.01170839585881913
1783246406819084300,5.820084228515625,-0.008343465453386305,-0.006171016785129904,0.0024708014271687716
1783246406829096200,5.83009619140625,-0.027343349477648732,-0.010167721738480032,0.0016890216660220175
1783246406839107300,5.840107421875,-0.015074235013127326,0.0012384922863915562,0.007631599990138784
1783246406849119200,5.850119140625,-0.013729250144958495,-0.007548917542211711,0.01095485581146786
1783246406859130000,5.860130126953125,-0.031390579041838645,-0.0023675328489392994,0.011745076890685595
1783246406869142300,5.870142333984375,-0.026903789016604424,-0.004104914568178355,0.0029130196361802515
1783246406879153200,5.880153076171875,-0.011038695886731146,0.005541961633972824,0.0018715934250038116
1783246406889165000,5.8901650390625,-0.0092412910759449,0.012830766935274004,0.003121552386903204
1783246406899177200,5.90017724609375,-0.01193476794362068,-0.002132591581903398,-0.0029982730671064928
1783246406909188400,5.910188232421875,-0.024351766446232794,0.004090593781881034,0.007541611018590628
1783246406919200300,5.9202001953125,-0.016119944673776625,-0.01093008441310376,0.01263344513173215
1783246406929211100,5.930211181640625,-0.016421557968854902,0.013378683141618965,0.009079255214915611
1783246406939223300,5.940223388671875,-0.016421557968854902,0.013079334868863224,-0.0044219309283653275
1783246406949234200,5.950234130859375,-0.023904607200622558,-0.0024529461100697516,-0.0038588970679906197
1783246406959246000,5.96024609375,-0.013730419188737868,0.006243387901596725,-0.005097097093437333
1783246406969258200,5.97025830078125,-0.019566870257258413,0.0008821896620094775,0.013475764007656835
1783246406979269400,5.980269287109375,-0.02929331450164318,0.0077610259229317306,0.007967293651332146
1783246406989281300,5.99028125,-0.0026589900761842724,0.00674326371513307,-0.003507544613361824
1783246406999292200,6.000292236328125,-0.02345744795501232,-0.003913995105959475,0.0013943541349610313
1783246407009304300,6.01030419921875,-0.01911737292408943,-0.006770590113475919,-0.005471981120703276
1783246407019316200,6.020316162109375,-0.02001812115609646,-0.001756926669925451,-0.01192690429757349
1783246407029327000,6.0303271484375,-0.02466273209154606,-0.004001381128467619,0.017687735129904465
1783246407039339300,6.04033935546875,-0.01598433559536934,0.005440035629458725,0.006878571399440988
1783246407049350100,6.05035009765625,-0.023914544072747228,-0.009995214715786278,-0.009075741233711595
1783246407059362000,6.060362060546875,-0.029302666851878163,0.0036419001663103696,-0.0016562496242928317
1783246407069373200,6.070373291015625,-0.01613631128668785,0.0030898557741194962,0.0011423818180221132
1783246407079385300,6.08038525390625,-0.008807575833797454,0.016636260165460406,-0.00929336147318827
1783246407089397200,6.090397216796875,-0.019282208096981047,0.0027203283419832587,0.00775206858163001
1783246407099408100,6.100408203125,-0.025862755531072614,0.0035344942690804597,0.0005922827877453527
1783246407109420300,6.110420166015625,-0.011496961048245428,0.008756137907505035,0.005448570562363602
1783246407119431200,6.12043115234375,-0.012993337085843085,0.003666267422586679,-0.0011443774122861213
1783246407129443000,6.130443115234375,-0.030202830561995506,-0.012162914143688976,-0.0011371279708808288
1783246407139454200,6.1404541015625,-0.03873509658575058,-0.002084478123858571,0.007223777241073548
1783246407149466400,6.15046630859375,-0.020029227072000503,-0.006442819463834166,-0.004699179250455927
1783246407159478300,6.160478271484375,-0.015686813953518865,0.007420943780988455,-0.008650195598287972
1783246407169489200,6.1704892578125,-0.025264789637923238,0.0008511369366198777,0.0056745019724592565
1783246407179501300,6.180501220703125,-0.02975157966315746,-0.011172478334233163,0.005845349044317845
1783246407189512200,6.19051220703125,-0.01478431215584278,0.005195559349097312,0.0005598075735382736
1783246407199524000,6.200524169921875,-0.024209143105149267,0.002885309645347297,0.0036855338120600207
1783246407209535500,6.210535400390625,0.0010772738426923752,-0.0034905455294996497,-0.007500258378183935
1783246407219547400,6.22054736328125,-0.010892565414309502,-0.009210055687464773,0.000159133801178541
1783246407229559300,6.230559326171875,-0.022716274198889733,0.0043230873635038735,0.005599075815803371
1783246407239570200,6.240570068359375,-0.018677227941155432,0.002421126199699938,0.006116313756094314
1783246407249582300,6.250582275390625,-0.01703296786546707,0.011891111464984715,-0.0006327198294107802
1783246407259593200,6.26059326171875,-0.024067688807845114,0.002945405802130699,0.010630185867787804
1783246407269605000,6.270605224609375,-0.01957797617316246,0.005172872593253851,0.006549485575547441
1783246407279616300,6.2806162109375,-0.01688625287115574,-0.0025851941876113413,-0.0007957192382426001
1783246407289628200,6.290628173828125,-0.02675824306607246,0.0004642930435016751,0.00698840899906354
1783246407299640000,6.30064013671875,-0.02646247498989105,-0.0033339301956817505,0.0019350597158074379
1783246407309651200,6.310651123046875,-0.03334697380661964,0.009108677672222256,0.0029664554400253107
1783246407319663400,6.320663330078125,-0.025713702449202538,-0.0037977117825299497,0.005152706588059663
1783246407329674200,6.33067431640625,-0.010749357551336288,0.004419204681739211,0.008491991095582489
1783246407339686100,6.34068603515625,-0.0071557169735431666,0.001371288353204727,-0.0011875544003094546
1783246407349697300,6.350697265625,-0.018975918626785278,-0.00523410126119852,-0.003702455264108721
1783246407359709200,6.360709228515625,-0.0128401923507452,-0.00346482656635344,0.006714706624217796
1783246407369721000,6.37072119140625,-0.007456161224842071,0.010217588762193917,0.002173741009621881
1783246407379732200,6.380732177734375,-0.0037158056527376174,-0.005773140041343867,-0.0003830970164737664
1783246407389744400,6.390744384765625,-0.014489713123440742,0.005884527993947267,0.006289928173774387
1783246407399755300,6.40075537109375,-0.010149638092517852,0.004982391522452235,-0.0005686165010789409
1783246407409767200,6.41076708984375,-0.02361643790900707,0.012900361572764814,0.0019945028520422054
1783246407419779300,6.420779296875,-0.008657938230037689,0.0037454701386392115,0.010407743322721217
1783246407429790200,6.430790283203125,-0.009411386945843696,0.006870872150175273,-0.004382094391610008
1783246407439802000,6.440802001953125,-0.027667174604535102,-0.0003115136345848441,0.004805119276384357
1783246407449813200,6.450813232421875,-0.006117021575570106,-0.0003733998896554112,0.0075808904329198405
1783246407459825200,6.4608251953125,-0.018386136040091514,0.002441365270130336,-0.0007831063518417067
1783246407469836300,6.470836181640625,-0.019584405913949013,-0.0027803879661485553,-0.007302721945510711
1783246407479848200,6.48084814453125,-0.019281039053201676,-0.003628346564993262,-0.009713132671662605
1783246407489860400,6.4908603515625,-0.02766542103886604,-0.0024680340813472866,0.0017412655932013876
1783246407499871200,6.500871337890625,-0.03147416567206383,0.004078793746232986,-0.008500861671916209
1783246407509883100,6.510883056640625,-0.1429758077830076,0.013254508772678673,-0.04665351872721221
1783246407519894300,6.520894287109375,0.1099456448405981,-0.020655432678945363,0.03152456241874024
1783246407529906200,6.53090625,0.08508651339411735,-0.004736746198311448,0.0615085534651298
1783246407539917300,6.540917236328125,-0.22512919033467768,0.01171798338778317,-0.06621406427496113
1783246407549929200,6.55092919921875,0.10423954215347767,0.007399133807979524,0.03188415069546317
1783246407559941400,6.56094140625,0.02103285115659237,-0.012210041221044956,0.02883346017124131
1783246407569952300,6.5709521484375,-0.10795300971865654,0.0030147812439128754,-0.026107163312775083
1783246407579964200,6.580964111328125,0.05410860680639743,-0.004382891259342432,0.029689729940704998
1783246407589975000,6.59097509765625,-0.022207740154862404,0.004748655831813812,-0.011924200883833691
1783246407599987000,6.600987060546875,-0.035060791987180706,-0.010109781006164848,-0.003814053279266227
1783246407609998000,6.610998046875,0.015250176101922988,-0.0003457446977496147,0.026558032902411648
1783246407620010200,6.62101025390625,-0.008075754427909851,-0.002332425002939999,0.008220704440108965
1783246407630022100,6.631022216796875,-0.04922200380861759,0.011808913074247538,-0.016486259518808218
1783246407640033000,6.641032958984375,-0.01675531996786594,-0.004104695372469723,-0.002831478832568973
