time,seconds_elapsed,z,y,x
1783246442108398000,0.068398193359375,0.001007687533274293,-0.0005982962902635336,0.0003989837132394314
1783246442118409000,0.078408935546875,0.0014614901738241315,-0.00020068627782166004,0.0008423998951911926
1783246442128421000,0.088421142578125,0.000023406464606523514,0.0011262266198173165,0.00018531689420342445
1783246442138432000,0.098431884765625,-0.0006666185799986124,-0.0014450554735958576,0.0008918531239032745
1783246442148444000,0.10844384765625,0.0004882798530161381,0.0007525058463215828,0.0005086939781904221
1783246442158456000,0.1184560546875,-0.0006337100639939308,0.0012862032745033503,-0.0007099686190485954
1783246442168467000,0.128467041015625,-0.0004158667288720608,-0.0008514304645359516,-0.0009559325408190489
1783246442178478800,0.138478759765625,0.0007569894660264254,-0.0004953658208250999,0.0009407708421349525
1783246442188490000,0.148489990234375,0.000520248431712389,0.0015072326641529799,-0.00006632274016737938
1783246442198502100,0.158502197265625,-0.0000019974540919065475,-0.0006232962477952242,-0.0003853696398437023
1783246442208513000,0.168512939453125,-0.00027219182811677456,0.0006401365390047431,-0.00012306123971939087
1783246442218525000,0.17852490234375,-0.00032066134735941887,0.000333340372890234,-0.0009715443011373281
1783246442228537000,0.188537109375,-0.00016134814359247684,0.0012079376028850675,0.0011893394403159618
1783246442238548000,0.1985478515625,0.000521486159414053,0.0003163112560287118,-0.001630948157981038
1783246442248559900,0.208559814453125,0.0006389357149600983,-0.0007988011930137873,-0.0006007757037878036
1783246442258571000,0.218571044921875,0.00001682131551206112,-0.00012102676555514336,0.00009537441655993462
1783246442268583200,0.228583251953125,-0.002095654373988509,0.001299174502491951,0.00027813250198960304
1783246442278594000,0.238593994140625,-0.0006492915563285351,0.0012009039055556059,0.0005931844934821129
1783246442288606000,0.24860595703125,-0.000021406682208180428,-0.00042836880311369896,-0.0009370758198201656
1783246442298616800,0.258616943359375,-0.0003995755687355995,-0.001740241888910532,0.0004472355358302593
1783246442308629000,0.26862890625,0.0002508696634322405,-0.0003041406162083149,0.0011104964651167393
1783246442318641000,0.278640869140625,0.00003328942693769932,0.00025698740500956774,0.0008519035764038563
1783246442328652000,0.288652099609375,0.00004793563857674599,-0.0014365166425704956,0.0015475214459002018
1783246442338664000,0.298663818359375,-0.001151552191004157,-0.0015771316830068827,-0.00016995146870613098
1783246442348675000,0.308675048828125,0.000682060606777668,0.0012582712806761265,0.0020889551378786564
1783246442358687000,0.31868701171875,-0.000909178052097559,-0.00015932926908135414,-0.00007113488391041756
1783246442368697900,0.32869775390625,-0.0011315089650452137,-0.001356043154373765,-0.00012345751747488976
1783246442378710000,0.3387099609375,0.00021977885626256466,-0.0016010541003197432,-0.0001106741838157177
1783246442388722000,0.348721923828125,-0.0011971746571362019,0.00136365438811481,0.00025730347260832787
1783246442398732800,0.35873291015625,0.0006859465502202511,0.001039814087562263,0.0002290736883878708
1783246442408745000,0.368744873046875,-0.0006449013017117977,-0.00014765560626983643,-0.0011574199888855219
1783246442418756000,0.378756103515625,0.00034179980866611004,-0.0006904078181833029,0.0002572513185441494
1783246442428768000,0.38876806640625,-0.0005477725062519312,0.0010627482552081347,0.0006985804066061974
1783246442438779100,0.398779052734375,0.0004250803031027317,0.0006046845810487866,0.0006493120454251766
1783246442448791000,0.408791015625,0.00044520734809339046,-0.0005850279703736305,-0.0011101688724011183
1783246442458803000,0.418802978515625,0.0003911452367901802,0.0010576097993180156,0.00026322342455387115
1783246442468813800,0.428813720703125,-0.0010262608993798494,0.0012142362538725138,0.001028561033308506
1783246442478826000,0.438825927734375,0.0004999965894967318,0.0006525755161419511,0.0007467982359230518
1783246442488837000,0.448837158203125,-0.0003924504853785038,-0.00006398349069058895,-0.0006141928024590015
1783246442498849000,0.45884912109375,0.000009154202416539192,-0.0006458843126893044,-0.0005654571577906609
1783246442508860200,0.468860107421875,0.0002959549892693758,0.0015440441202372313,-0.0002908497117459774
1783246442518872000,0.4788720703125,-0.00029766373336315155,-0.0013915582094341516,0.00043060071766376495
1783246442528884000,0.488884033203125,-0.0011766243260353804,0.00039321393705904484,0.00005782768130302429
1783246442538894800,0.498894775390625,0.0011829363647848368,0.0009096008725464344,-0.0005922499112784863
1783246442548907000,0.508906982421875,0.00027705240063369274,-0.0004365597851574421,-0.0003846283070743084
1783246442558918000,0.51891796875,0.0009079552255570889,0.0005141887813806534,0.000303798820823431
1783246442568929800,0.5289296875,-0.00032053631730377674,0.0007635343354195356,-0.0006778724491596222
1783246442578941200,0.538941162109375,-0.0005141482688486576,0.0014034919440746307,0.00008725374937057495
1783246442588953000,0.548953125,-0.0014852846506983042,0.0012823987053707242,0.0005997982807457447
1783246442598965000,0.558965087890625,0.001779218204319477,0.0003684017574414611,-0.0011799922212958336
1783246442608976000,0.568975830078125,0.0006882348097860813,-0.0007026912644505501,0.00020501622930169106
1783246442618987800,0.57898779296875,0.000532972626388073,0.00017828249838203192,0.0006838524714112282
1783246442628998700,0.58899853515625,-0.0008454015478491783,0.0003477995051071048,-0.0005450448952615261
1783246442639010800,0.5990107421875,0.001161290449090302,-0.00018190313130617142,-0.00007845927029848099
1783246442649022000,0.60902197265625,-0.0014619193971157074,-0.00003084377385675907,0.0006547030061483383
1783246442659033900,0.619033935546875,0.0005010967142879963,-0.0000015490222722291946,0.0004546996206045151
1783246442669046000,0.6290458984375,0.0007032076828181744,-0.00008737738244235516,0.0016807150095701218
1783246442679057000,0.639056884765625,-0.00046751811169087887,0.0007208919851109385,-0.00005966098979115486
1783246442689068800,0.64906884765625,0.0006975510623306036,-0.0011822751257568598,-0.0002917475067079067
1783246442699080000,0.659079833984375,0.00012923241592943668,0.00042334466706961393,-0.0009953549597412348
1783246442709091800,0.669091796875,0.0008930969052016735,0.0011903061531484127,-0.00044587207958102226
1783246442719103000,0.67910302734375,-0.0014222555328160524,-0.0008952151983976364,-0.0005393489263951778
1783246442729115000,0.689114990234375,-0.0006474473048001528,-0.0008931462652981281,-0.0008970503695309162
1783246442739127000,0.699126953125,0.0006375277880579233,0.00004694960080087185,0.0016241641715168953
1783246442749138000,0.709137939453125,-0.0001749012153595686,-0.00015875836834311485,0.00009553413838148117
1783246442759149800,0.71914990234375,-0.00008541904389858246,-0.0002612899988889694,0.00006544031202793121
1783246442769161000,0.729160888671875,-0.001927694771438837,0.0001303825993090868,-0.0008737621828913689
1783246442779172900,0.7391728515625,0.00045556831173598766,-0.00032475171610713005,-0.00037255510687828064
1783246442789183700,0.749183837890625,0.0016967116389423609,-0.00018275808542966843,-0.0004239319823682308
1783246442799195600,0.759195556640625,-0.0011488760355859995,-0.0011971560306847095,-0.0004156762734055519
1783246442809207000,0.76920703125,-0.000909122172743082,0.000925534637644887,0.001747054047882557
1783246442819219000,0.779218994140625,0.00021047075279057026,0.0009492367971688509,0.0014213495887815952
1783246442829230800,0.78923095703125,-0.00007568392902612686,-0.00022909441031515598,0.0011447211727499962
1783246442839242000,0.799241943359375,0.0015800032997503877,-0.0009590669069439173,-0.0008220232557505369
1783246442849254000,0.80925390625,-0.00000604032538831234,-0.0009937409777194262,0.0002507292665541172
1783246442859264800,0.8192646484375,-0.00027395435608923435,0.0002843099646270275,0.001615066546946764
1783246442869276700,0.829276611328125,-0.00036432361230254173,0.00009026867337524891,0.000981658697128296
1783246442879288000,0.8392880859375,-0.0010058791376650333,-0.000056205084547400475,0.0002823127433657646
1783246442889300000,0.849300048828125,-0.001518595265224576,0.00043913652189075947,-0.0008441316895186901
1783246442899311900,0.859311767578125,-0.00032336870208382607,-0.001163021195679903,0.0007694773375988007
1783246442909323000,0.869322998046875,0.001613646512851119,-0.00009533530101180077,-0.0009054453112185001
1783246442919335000,0.8793349609375,0.00026954920031130314,-0.0003856199327856302,0.0013792803511023521
1783246442929345800,0.889345703125,-0.0011562677100300789,-0.0010217155795544386,-0.0011932081542909145
1783246442939357700,0.899357666015625,0.00006479141302406788,-0.0001388776581734419,-0.000306109432131052
1783246442949368800,0.909368896484375,-0.0008307271637022495,0.0005569396307691932,0.00011236174032092094
1783246442959381000,0.919381103515625,-0.0002770561259239912,0.00019688019528985023,-0.0014402612578123808
1783246442969393000,0.929392822265625,0.000053558265790343285,0.00007122266106307507,-0.00020594708621501923
1783246442979404000,0.939404052734375,0.0007300011347979307,-0.0009500996675342321,-0.0005300538614392281
1783246442989416000,0.949416015625,-0.0000124429352581501,0.0003654775209724903,-0.00017017964273691177
1783246442999426800,0.9594267578125,0.001293837558478117,-0.00018739467486739159,-0.00033289892598986626
1783246443009439000,0.96943896484375,0.001358733861707151,-0.0009301018435508013,-0.000028566457331180573
1783246443019449900,0.979449951171875,0.000870842719450593,0.0003223828971385956,-0.00047251535579562187
1783246443029461800,0.989461669921875,0.0006640499923378229,0.000011689960956573486,0.0007245070300996304
1783246443039473700,0.9994736328125,0.0004611171316355467,0.0005312728462740779,-0.0019232078921049833
1783246443049485000,1.009485107421875,-0.0008966592140495777,0.0019320999272167683,0.0007041408680379391
1783246443059497000,1.0194970703125,0.0007393208798021078,0.0004295444814488292,-0.00020053517073392868
1783246443069507800,1.0295078125,-0.0013423915952444077,-0.00048394082114100456,0.0005744961090385914
1783246443079520000,1.03952001953125,0.00038493447937071323,0.0005791931180283427,-0.002124084858223796
1783246443089531000,1.04953076171875,0.0012474380200728774,0.00019285967573523521,-0.000018023885786533356
1783246443099542800,1.059542724609375,-0.0011174490209668875,0.00037501996848732233,0.0004967651329934597
1783246443109554700,1.0695546875,-0.00013276259414851665,0.0008701456245034933,0.0013607670553028584
1783246443119566000,1.079566162109375,-0.00138684525154531,0.0004839872708544135,-0.0007412661798298359
1783246443129578000,1.089577880859375,-0.0005655691493302584,-0.0005682890769094229,-0.00012866361066699028
1783246443139588900,1.0995888671875,-0.0003866048064082861,0.0006208124104887247,-0.001544133760035038
1783246443149601000,1.10960107421875,-0.00021376064978539944,0.00007377751171588898,0.00019075535237789154
1783246443159612000,1.11961181640625,-0.000053171999752521515,-0.0013384968042373657,0.0011199326254427433
1783246443169623800,1.129623779296875,-0.0015106857754290104,-0.00014161854051053524,0.0010341615416109562
1783246443179635700,1.1396357421875,-0.0005498174577951431,0.0011702546617016196,-0.001025260891765356
1783246443189646800,1.149646728515625,0.0006812626961618662,-0.0007191800978034735,-0.0004641413688659668
1783246443199658800,1.15965869140625,-0.0009344769641757011,-0.000967120286077261,-0.0002902369014918804
1783246443209670000,1.169669921875,0.000027073314413428307,-0.001226496184244752,0.0010908888652920723
1783246443219682000,1.17968212890625,0.0014774308074265718,0.00003264634869992733,0.00047463318333029747
1783246443229693000,1.18969287109375,-0.0010253489017486572,0.0009587223175913095,-0.0004472997970879078
1783246443239704800,1.199704833984375,-0.001664507668465376,0.0003134383587166667,0.000125812366604805
1783246443249715700,1.2097158203125,-0.0017188789788633585,0.000007999129593372345,-0.0004790802486240864
1783246443259728000,1.219727783203125,-0.0002560047432780266,0.0012847185134887695,-0.0008330142591148615
1783246443269739800,1.22973974609375,0.0003180543426424265,0.000504089635796845,0.00007865158841013908
1783246443279751000,1.2397509765625,-0.001536304596811533,0.0004873117431998253,-0.0007637063972651958
1783246443289763000,1.24976318359375,-0.00006949994713068008,0.00016898219473659992,0.000871654599905014
1783246443299774000,1.25977392578125,0.0015451745130121708,0.0008930956246331334,0.0009558107703924179
1783246443309785900,1.269785888671875,0.00006290036253631115,-0.00030054012313485146,0.0005820211954414845
1783246443319796700,1.279796630859375,0.00002135499380528927,0.00029148044995963573,-0.00023157428950071335
1783246443329809000,1.289808837890625,0.0003642067313194275,0.0002029599854722619,0.0002914643846452236
1783246443339820800,1.29982080078125,-0.00039479415863752365,0.0010234798537567258,0.000029675662517547607
1783246443349832000,1.30983203125,-0.001445189118385315,0.0006717557553201914,0.0006408742628991604
1783246443359844000,1.319843994140625,0.0003857342526316643,0.0011868111323565245,-0.0009487667120993137
1783246443369855000,1.32985498046875,0.0010332204401493073,-0.0006521085742861032,0.0012525194324553013
1783246443379867000,1.339866943359375,-0.00029756128787994385,0.0013545833062380552,0.0011446611024439335
1783246443389877800,1.349877685546875,-0.00020035100169479847,0.0002367580309510231,-0.00045177945867180824
1783246443399890000,1.359889892578125,0.00035891286097466946,0.0006040079751983285,0.0000025560148060321808
1783246443409901800,1.36990185546875,0.00034798705019056797,-0.0007987278513610363,-0.00016066106036305428
1783246443419912700,1.37991259765625,-0.000454955967143178,-0.00021735974587500095,-0.000505540519952774
1783246443429924900,1.3899248046875,-0.0003848311025649309,0.0012617921456694603,-0.0008679681923240423
1783246443439936000,1.39993603515625,-0.0012306510470807552,0.001430370146408677,-0.001069569494575262
1783246443449948000,1.409947998046875,-0.0007455036975443363,-0.0011980098206549883,-0.002454509027302265
1783246443459958800,1.419958740234375,-0.00005787564441561699,-0.00028188247233629227,-0.0006366351153701544
1783246443469971000,1.429970947265625,0.0003421804867684841,-0.0001239266712218523,0.00043313251808285713
1783246443479982800,1.43998291015625,-0.00004477682523429394,-0.00017878785729408264,0.0008733528666198254
1783246443489993700,1.44999365234375,-0.0008340743370354176,-0.0002268054522573948,0.00016607390716671944
1783246443500006000,1.460005859375,-0.0014298236928880215,0.0006624239031225443,0.0011826027184724808
1783246443510017000,1.47001708984375,-0.0005129424389451742,0.0006438421551138163,0.0008887620642781258
1783246443520029000,1.48002880859375,0.00010943831875920296,-0.0005407319404184818,0.00016864342615008354
1783246443530039800,1.490039794921875,0.00037976261228322983,-0.00006205146200954914,-0.0005425624549388885
1783246443540052000,1.500052001953125,0.000329428818076849,-0.0000798946712166071,0.0006209728308022022
1783246443550063900,1.51006396484375,0.0009404926095157862,-0.0009220344945788383,0.00151089858263731
1783246443560074800,1.52007470703125,-0.0003340963739901781,-0.00007887766696512699,0.0007183416746556759
1783246443570087000,1.5300869140625,0.00044709560461342335,-0.0006272743921726942,0.0015086876228451729
1783246443580097800,1.540097900390625,0.0003749239258468151,0.0002510360209271312,-0.000025559216737747192
1783246443590110000,1.55010986328125,-0.0015321897808462381,-0.0011637336574494839,0.0007092650048434734
1783246443600120800,1.560120849609375,0.0008201804012060165,0.0006075346609577537,-0.00024654390290379524
1783246443610133000,1.570133056640625,-0.00015013269148766994,-0.00018877931870520115,0.0007283603772521019
1783246443620143600,1.5801435546875,-0.0008729146793484688,0.0005864668637514114,-0.0011720715556293726
1783246443630155800,1.59015576171875,0.0006192470900714397,0.00024341873358935118,-0.00013832096010446548
1783246443640167700,1.600167724609375,-0.000762933399528265,-0.0006772361230105162,-0.00021368823945522308
1783246443650178600,1.610178466796875,0.0010968700516968966,-0.0008349074050784111,0.00005342997610569
1783246443660190700,1.620190673828125,0.00017195427790284157,0.0003547265660017729,-0.00026055658236145973
1783246443670201900,1.630201904296875,-0.0008614561520516872,-0.0003583903890103102,0.0002305055968463421
1783246443680213800,1.6402138671875,0.00029142643325030804,0.0006581380730494857,-0.0004717698320746422
1783246443690224600,1.650224609375,-0.00048499880358576775,0.0009652010630816221,-0.000398766715079546
1783246443700236800,1.66023681640625,-0.000292452285066247,-0.0008806359255686402,-0.00048425421118736267
1783246443710248700,1.670248779296875,-0.0002432472538203001,-0.0006120434263721108,-0.0001325700432062149
1783246443720259600,1.680259521484375,0.0001977721694856882,-0.0007425382500514388,-0.0003605368547141552
1783246443730271700,1.690271728515625,-0.00047951657325029373,-0.0009146226802840829,0.000675225630402565
1783246443740283000,1.700282958984375,0.000923702958971262,0.0003783418796956539,0.0006469958461821079
1783246443750294800,1.710294677734375,-0.0004266216419637203,0.0009759692475199699,-0.0007854257710278034
1783246443760305700,1.7203056640625,-0.0009139799512922764,-0.00029515742789953947,-0.00045599276199936867
1783246443770317800,1.73031787109375,-0.0009290303569287062,0.0003294880734756589,0.000050059985369443893
1783246443780329700,1.740329833984375,-0.00029146973975002766,-0.0007482931250706315,0.000833029393106699
1783246443790340600,1.750340576171875,0.0008914971258491278,-0.0012998946476727724,0.0004536407068371773
1783246443800352800,1.760352783203125,-0.0005266361404210329,-0.0011989609338343143,0.0016984022222459316
1783246443810363600,1.77036376953125,0.001395968021824956,-0.000884676119312644,0.0005758535116910934
1783246443820375800,1.780375732421875,0.0017642831662669778,0.0008141543949022889,0.0019215489737689495
1783246443830386700,1.79038671875,0.0006988435052335262,-0.0015630793059244752,-0.0001665116287767887
1783246443840398800,1.80039892578125,0.00004450487904250622,-0.0007681258721277118,-0.000014977529644966125
1783246443850409700,1.81040966796875,0.00029493775218725204,-0.0005242389161139727,0.0012809420004487038
1783246443860421600,1.820421630859375,0.0009439501445740461,-0.0013317093253135681,-0.00034624943509697914
1783246443870433800,1.830433837890625,0.0006402372382581234,0.0007263099541887641,-0.0013207809533923864
1783246443880444700,1.840444580078125,-0.0007248991169035435,-0.0007448203396052122,0.0012318589724600315
1783246443890456600,1.85045654296875,0.0012334813363850117,0.00004441430792212486,-0.0012262312229722738
1783246443900467700,1.8604677734375,0.0004928561393171549,-0.00007303105667233467,0.0005599511787295341
1783246443910480000,1.87047998046875,0.0015132827684283257,-0.00023447326384484768,-0.0001193988136947155
1783246443920490800,1.88049072265625,0.0004213866777718067,-0.0008989318739622831,-0.0008925143629312515
1783246443930502700,1.890502685546875,-0.00043557467870414257,0.0012020672438666224,0.0013613724149763584
1783246443940514800,1.900514892578125,-0.0003213249146938324,-0.0009393806103616953,-0.0008562416769564152
1783246443950525700,1.910525634765625,-0.0004030431155115366,-0.0010585342533886433,0.00013223150745034218
1783246443960537600,1.92053759765625,0.00036740931682288647,-0.0008832982275635004,-0.0002749655395746231
1783246443970549000,1.930549072265625,0.0008714145515114069,-0.0008784238016232848,0.00014276010915637016
1783246443980561000,1.940560791015625,0.002457060618326068,-0.001911730389110744,0.0007787225767970085
1783246443990571800,1.95057177734375,-0.00040131364949047565,-0.0001944483956322074,0.000519762746989727
1783246444000583700,1.960583740234375,0.000645042397081852,-0.0006503817858174443,-0.001203036168590188
1783246444010595800,1.970595947265625,-0.0010725203901529312,-0.0008496389491483569,0.0009196498431265354
1783246444020606700,1.980606689453125,-0.0007595992647111416,0.0011583846062421799,0.0005010007880628109
1783246444030618600,1.99061865234375,-0.000083492835983634,0.0012558007147163153,0.00042763352394104004
1783246444040629800,2.000629638671875,0.00014047883450984955,0.0010789668885990977,0.0008052699267864227
1783246444050641700,2.0106416015625,0.00008845468983054161,-0.0006317032966762781,-0.0008185217157006264
1783246444060652800,2.02065283203125,-0.00007852539420127869,-0.00009241304360330105,-0.00045153824612498283
1783246444070664700,2.030664794921875,0.0006766405422240496,-0.0004138890653848648,-0.00018976395949721336
1783246444080676900,2.0406767578125,-0.00041046179831027985,0.0005325984675437212,0.0007362170144915581
1783246444090687700,2.050687744140625,-0.0001632112544029951,-0.0016015695873647928,0.00005514407530426979
1783246444100699600,2.06069970703125,0.00022214814089238644,0.000022958731278777122,0.0006729974411427975
1783246444110710800,2.070710693359375,-0.0007401464972645044,0.000010669929906725883,-0.0009058818686753511
1783246444120722700,2.08072265625,-0.00021443841978907585,0.000090830959379673,0.0010030721314251423
1783246444130733800,2.09073388671875,0.0004241380374878645,0.0007234112126752734,-0.0000804332084953785
1783246444140745700,2.100745849609375,-0.0004251438658684492,-0.000855310820043087,-0.0008905667345970869
1783246444150756900,2.1107568359375,-0.0007178904488682747,-0.0004413060378283262,0.00033604539930820465
1783246444160768800,2.120768798828125,-0.0013360101729631424,0.00020637479610741138,-0.0005356073379516602
1783246444170780700,2.13078076171875,0.0005764379166066647,0.0003070386592298746,0.0007359925657510757
1783246444180791800,2.140791748046875,-0.0007250488270074129,-0.0006951089017093182,0.0013850047253072262
1783246444190803700,2.1508037109375,0.0016740813152864575,-0.00024557672441005707,-0.0012499596923589706
1783246444200814800,2.16081494140625,-0.0007264921441674232,-0.0023047327995300293,0.00007522944360971451
1783246444210826800,2.17082666015625,0.0005456872750073671,-0.0005057412199676037,0.001171838492155075
1783246444220838000,2.180837890625,0.0010407690424472094,0.0004982706159353256,-0.001217016950249672
1783246444230849800,2.190849853515625,0.0023227320052683353,0.0005451205652207136,0.0004289261996746063
1783246444240861700,2.20086181640625,0.00021084537729620934,0.00005429983139038086,-0.00010397238656878471
1783246444250872800,2.210872802734375,0.0012166447704657912,-0.0006808249745517969,0.0011028535664081573
1783246444260884700,2.220884765625,0.0003833416849374771,-0.000615044729784131,-0.00030862167477607727
1783246444270895600,2.2308955078125,0.00019980967044830322,-0.0008579706773161888,0.00019498774781823158
1783246444280907500,2.240907470703125,-0.00016131484881043434,0.0013593771727755666,0.00027514901012182236
1783246444290919000,2.2509189453125,-0.0020873229950666428,-0.00025702244602143764,0.0015208665281534195
1783246444300930800,2.260930908203125,0.000902075320482254,-0.0006780682597309351,-0.0011444250121712685
1783246444310942700,2.270942626953125,-0.000805580522865057,-0.0009468547068536282,-0.0004103151150047779
1783246444320953900,2.280953857421875,0.00019603432156145573,0.0006795377703383565,0.000459207221865654
1783246444330965800,2.2909658203125,-0.000739578390493989,0.0000092389527708292,0.0019126702100038528
1783246444340976600,2.3009765625,0.0005054494831711054,-0.0004972941242158413,0.0001517883501946926
1783246444350988800,2.31098876953125,-0.0018341797403991222,0.00034249480813741684,-0.0007053394801914692
1783246444361000000,2.321,-0.00025385990738868713,0.0006636719917878509,0.0001458069309592247
1783246444371011800,2.33101171875,0.0016903090290725231,-0.00029396568424999714,0.0006318651139736176
1783246444381023700,2.341023681640625,-0.00007802993059158325,-0.000852696830406785,0.00008485186845064163
1783246444391035000,2.351034912109375,-0.0003574397414922714,-0.00005985237658023834,0.0002140919677913189
1783246444401046800,2.361046875,0.00000874488614499569,0.000057326629757881165,0.0004907944239675999
1783246444411057700,2.3710576171875,-0.000052792951464653015,0.000035460339859128,0.0019682752899825573
1783246444421069800,2.38106982421875,-0.0004006018862128258,-0.0002633463591337204,0.0000968719832599163
1783246444431080700,2.391080810546875,-0.00044613773934543133,0.00005222228355705738,0.00013841595500707626
1783246444441092600,2.401092529296875,0.0002550724893808365,0.0006959084421396255,-0.0010038139298558235
1783246444451103700,2.411103759765625,0.00003733113408088684,-0.0004566274583339691,-0.0007351422682404518
1783246444461116000,2.421115966796875,0.00038593891076743603,0.000323678832501173,-0.0010339489672333002
1783246444471127800,2.4311279296875,-0.00048453547060489655,0.0007379479939118028,0.001734936609864235
1783246444481138700,2.441138671875,-0.0006642986554652452,0.00020797899924218655,-0.0002496512606739998
1783246444491150800,2.45115087890625,0.00029375357553362846,0.00018972717225551605,0.0002873651683330536
1783246444501161700,2.46116162109375,-0.0008071970660239458,0.00005071028135716915,0.0002617989666759968
1783246444511173600,2.471173583984375,0.0008763326331973076,0.0004371904069557786,-0.00010929116979241371
1783246444521184800,2.481184814453125,-0.0004366056527942419,0.00020416383631527424,-0.0008443235419690609
1783246444531197000,2.491197021484375,0.0004219557158648968,0.0011919359676539898,-0.00010334840044379234
1783246444541208800,2.501208740234375,0.0018845638260245323,0.0011855444172397256,-0.000027447938919067383
1783246444551219700,2.5112197265625,-0.00031030247919261456,-0.00005894806236028671,-0.0017549856565892696
1783246444561232000,2.52123193359375,0.0001605444122105837,0.00003745849244296551,-0.0020761629566550255
1783246444571242800,2.53124267578125,-0.00074355723336339,-0.000023555010557174683,-0.0012781932018697262
1783246444581254700,2.541254638671875,-0.0004870947450399399,-0.00043261656537652016,-0.0012459687422960997
1783246444591265800,2.551265869140625,-0.0011581929866224527,0.0004140817327424884,-0.0002919137477874756
1783246444601278000,2.56127783203125,-0.0013850938994437456,-0.0009017861448228359,-0.0018123122863471508
1783246444611289900,2.571289794921875,-0.0007158452644944191,0.00045040459372103214,0.00019204989075660706
1783246444621301200,2.58130126953125,-0.001092416001483798,-0.00015200255438685417,0.0000815284438431263
1783246444631313400,2.5913134765625,0.00020895968191325665,-0.0009662308730185032,0.0005780812352895737
1783246444641324300,2.60132421875,0.0001157491933554411,0.0010969198774546385,0.0009168353863060474
1783246444651336200,2.611336181640625,-0.000039878999814391136,-0.00017770123668015003,0.0004289294593036175
1783246444661347000,2.62134716796875,0.0007260460406541824,-0.000001400010660290718,0.0007541016675531864
1783246444671359200,2.631359130859375,0.0008435621857643127,0.00011311564594507217,0.0018225242383778095
1783246444681370400,2.641370361328125,0.0009221252985298634,-0.0000820942223072052,0.00020971428602933884
1783246444691382300,2.65138232421875,-0.0013937640469521284,-0.00017661158926784992,0.0004926831461489201
1783246444701394400,2.66139453125,-0.000729305436834693,-0.00004158914089202881,-0.00019760848954319954
1783246444711405300,2.6714052734375,0.00042837089858949184,-0.00023215054534375668,-0.00006834184750914574
1783246444721417200,2.681417236328125,-0.0012749868910759687,0.0002117982367053628,0.000033124350011348724
1783246444731428000,2.691427978515625,0.0011281534098088741,0.0005283199716359377,0.0009452789090573788
1783246444741440300,2.701440185546875,0.0003491786774247885,0.00016186898574233055,-0.0011596838012337685
1783246444751451100,2.711451171875,-0.001972513971850276,0.0006502179894596338,0.0007580448873341084
1783246444761463000,2.721463134765625,0.0015242163790389895,0.0005479526007547975,0.0005026478320360184
1783246444771475200,2.73147509765625,0.0014221102464944124,-0.001297081122174859,0.0011837920174002647
1783246444781486300,2.741486328125,0.0009171748533844948,0.0005769853014498949,-0.0001504514366388321
1783246444791498200,2.751498291015625,-0.0006206328980624676,0.0004208981990814209,-0.00016678078100085258
1783246444801509000,2.761509033203125,-0.0006326171569526196,-0.00024009845219552517,0.0004121903330087662
1783246444811521300,2.771521240234375,0.0018990904791280627,-0.00041089230217039585,0.00043367501348257065
1783246444821532200,2.7815322265625,-0.0010924383532255888,-0.0004460460040718317,0.0026725945062935352
1783246444831544000,2.7915439453125,0.000005925772711634636,0.0006784384604543447,0.0008316943421959877
1783246444841556200,2.80155615234375,0.0000615858007222414,-0.0003455469850450754,-0.000029039569199085236
1783246444851567400,2.8115673828125,-0.000324431573972106,-0.000014481600373983383,-0.000008055008947849274
1783246444861579300,2.821579345703125,-0.00022136722691357136,-0.00020969146862626076,0.0008489503525197506
1783246444871590100,2.831590087890625,0.00044409395195543766,0.00021706812549382448,0.0002832431346178055
1783246444881602300,2.841602294921875,-0.0007308926433324814,-0.0001597690861672163,0.0003985580988228321
1783246444891613200,2.85161328125,-0.0017506564036011696,-0.0003831549547612667,0.001147150993347168
1783246444901625000,2.861625,0.0001995766069740057,-0.0007733078673481941,-0.0001639234833419323
1783246444911637200,2.87163720703125,-0.0015502474270761013,0.0012262020027264953,0.0001684357412159443
1783246444921648400,2.8816484375,0.0005222244653850794,0.0008035582723096013,-0.00008562998846173286
1783246444931660300,2.891660400390625,0.001072013983502984,-0.0006245155818760395,0.00004162639379501343
1783246444941671200,2.901671142578125,0.0008863916154950857,-0.0003105287905782461,0.0002661310136318207
1783246444951683300,2.911683349609375,0.0011688335798680782,0.0008483155397698283,0.000131349079310894
1783246444961694200,2.921694091796875,-0.00005755200982093811,-0.0005703503265976906,0.0011832979507744312
1783246444971706000,2.9317060546875,-0.0006328744348138571,-0.0014887009747326374,-0.0007659816183149815
1783246444981717200,2.94171728515625,-0.0008403344545513391,0.0005123981973156333,-0.0006610529962927103
1783246444991729200,2.951729248046875,-0.0028489921241998672,0.0002374880714341998,0.000466721598058939
1783246445001741000,2.961740966796875,0.001242688624188304,0.00019940489437431097,0.0005301046185195446
1783246445011752400,2.97175244140625,-0.00043611880391836166,-0.0009357572998851538,-0.0005522596184164286
1783246445021764400,2.981764404296875,-0.001008432125672698,0.0003968884702771902,0.0016150209121406078
1783246445031775200,2.991775146484375,0.0006253919564187527,0.0003411832731217146,0.0006961952894926071
1783246445041787100,3.001787109375,-0.0009778309613466263,0.00007966090925037861,-0.00006120791658759117
1783246445051798300,3.01179833984375,0.0007750096265226603,0.00006322283297777176,0.0010087196715176105
1783246445061810200,3.02181005859375,0.0003654155880212784,-0.0007796676363795996,-0.0005641430616378784
1783246445071822000,3.031822021484375,-0.002048112917691469,0.0010519102215766907,0.00041754869744181633
1783246445081833500,3.04183349609375,-0.00024808221496641636,-0.00003279512748122215,0.0004204781726002693
1783246445091845400,3.051845458984375,0.00030693202279508114,0.0004766928032040596,0.00042987754568457603
1783246445101856300,3.061856201171875,-0.0014086763840168715,-0.0012133491691201925,-0.0007312607485800982
1783246445111868200,3.0718681640625,-0.00037079164758324623,-0.0005270650144666433,0.000277551356703043
1783246445121879300,3.08187939453125,-0.0005036834627389908,0.0005307425744831562,-0.001827410887926817
1783246445131891200,3.09189111328125,-0.0008950538467615843,-0.0009056378621608019,-0.0010966320987790823
1783246445141903000,3.101903076171875,-0.00029823952354490757,0.00044511747546494007,-0.0012694711331278086
1783246445151914200,3.111914306640625,0.00033955276012420654,0.000754230422899127,-0.0003337385132908821
1783246445161926100,3.121926025390625,0.00014088093303143978,0.0007230713963508606,0.0011906549334526062
1783246445171937300,3.131937255859375,-0.0009435636457055807,0.0003355469089001417,0.0010865526273846626
1783246445181949200,3.14194921875,0.0002199714072048664,0.00006443704478442669,0.000019690021872520447
1783246445191960300,3.151960205078125,0.00023224321193993092,-0.00037578167393803596,-0.0010655559599399567
1783246445201972200,3.16197216796875,-0.0001975910272449255,-0.0004729870706796646,0.00012887176126241684
1783246445211983000,3.171983154296875,-0.0005223930347710848,0.0014586788602173328,-0.0007897845935076475
1783246445221995300,3.181995361328125,0.0008850875310599804,0.00036917964462190866,0.00029492098838090897
1783246445232007200,3.192007080078125,0.0002820054069161415,-0.00027509406208992004,0.000345657579600811
1783246445242018300,3.202018310546875,0.0011539242696017027,-0.0005680418107658625,0.0008330158889293671
1783246445252030200,3.2120302734375,-0.0013247739989310503,0.000040538376197218895,-0.000009127892553806305
1783246445262041300,3.222041259765625,0.00018204236403107643,-0.0010007575619965792,0.00009873043745756149
1783246445272053200,3.23205322265625,0.0007669874466955662,-0.000315473647788167,-0.0016944333910942078
1783246445282064100,3.242064208984375,0.0011105353478342295,-0.00014156941324472427,-0.00025845691561698914
1783246445292076300,3.252076171875,0.0006987242959439754,0.000909283640794456,0.0006616995669901371
1783246445302088200,3.262088134765625,0.0008459971286356449,0.000802490976639092,0.00010962644591927528
1783246445312099300,3.272099365234375,0.0001628382597118616,-0.00024058017879724503,0.000812796875834465
1783246445322111500,3.282111572265625,-0.0004462266806513071,-0.0007359280716627836,0.00014487607404589653
1783246445332122400,3.292122314453125,0.00082791643217206,-0.0006664658430963755,0.00040087196975946426
1783246445342134300,3.30213427734375,0.0002337649930268526,0.0008435464696958661,0.0005263066850602627
1783246445352145200,3.312145263671875,0.0005987426266074181,0.00006073550321161747,0.00004847254604101181
1783246445362157300,3.3221572265625,-0.0005338997580111027,-0.00023381016217172146,-0.0006079967133700848
1783246445372169200,3.332169189453125,-0.0009302392136305571,0.00037990324199199677,-0.0012215988244861364
1783246445382180000,3.34218017578125,-0.0001334215048700571,0.0004238453693687916,-0.0009912354871630669
1783246445392192300,3.352192138671875,-0.0012378343380987644,-0.000749482773244381,-0.00022053346037864685
1783246445402203400,3.362203369140625,-0.0004998724907636642,0.0002553280210122466,0.0009701657108962536
1783246445412215300,3.37221533203125,0.00037685991264879704,0.00004990259185433388,0.0006089918315410614
1783246445422226200,3.38222607421875,-0.0003195567987859249,-0.0014617075212299824,0.0008140555582940578
1783246445432238300,3.39223828125,-0.000654557952657342,0.00043392612133175135,0.00012956047430634499
1783246445442249200,3.402249267578125,-0.000907558249309659,-0.000018811319023370743,-0.000058725010603666306
1783246445452261000,3.41226123046875,-0.0013209439348429441,-0.0008630028460174799,0.0009746388532221317
1783246445462273300,3.422273193359375,0.00040265382267534733,-0.0003471486270427704,-0.0004339069128036499
1783246445472284400,3.432284423828125,-0.0003330288454890251,0.0002715864684432745,0.00005397899076342583
1783246445482296300,3.44229638671875,-0.0016419724561274052,0.0008415030315518379,0.0006848820485174656
1783246445492307200,3.45230712890625,0.0017104450380429626,-0.0005271534901112318,-0.0016993351746350527
1783246445502319400,3.4623193359375,-0.0012126406654715538,-0.0005468607414513826,-0.0014748305547982454
1783246445512330200,3.472330322265625,0.00028006546199321747,-0.0002972711808979511,0.00013350648805499077
1783246445522342100,3.482342041015625,0.0011173631064593792,-0.0005814305040985346,-0.00010005291551351547
1783246445532354300,3.492354248046875,0.00013824948109686375,-0.0002427173312753439,-0.00038130441680550575
1783246445542365400,3.502365478515625,-0.001003980403766036,0.0011863347608596087,-0.000043082982301712036
1783246445552377300,3.51237744140625,-0.00041921972297132015,0.001000515534542501,-0.00040661729872226715
1783246445562388200,3.52238818359375,-0.0010541172232478857,-0.0002841933164745569,0.00038860272616147995
1783246445572400400,3.532400390625,0.0001987095456570387,-0.0005765154492110014,0.001522026490420103
1783246445582411300,3.542411376953125,-0.0000034244731068611145,-0.0007173966150730848,-0.00018559210002422333
1783246445592423200,3.552423095703125,-0.00124775106087327,0.0001771901734173298,0.0009690774604678154
1783246445602435300,3.562435302734375,-0.0004035290330648422,-0.00044865277595818043,-0.000494861975312233
1783246445612446200,3.5724462890625,-0.0004989767912775278,0.00020397012121975422,0.0008116052486002445
1783246445622457900,3.582457763671875,0.0005351288709789515,0.00040370726492255926,0.0015956396237015724
1783246445632469000,3.592468994140625,-0.0004477736074477434,0.0007554903859272599,0.0021155579015612602
1783246445642481200,3.602481201171875,0.000356234610080719,0.00019995507318526506,-0.0013385617639869452
1783246445652492000,3.612491943359375,0.00010345876216888428,-0.00022944877855479717,0.0004079393111169338
1783246445662504000,3.62250390625,-0.0008843077812343836,-0.00036606891080737114,-0.0010602613911032677
1783246445672514800,3.632514892578125,0.000801977701485157,-0.00034834654070436954,0.00130090257152915
1783246445682527000,3.64252685546875,-0.0008345348760485649,-0.0010969610884785652,-0.0006541241891682148
1783246445692539000,3.652538818359375,-0.00011152215301990509,0.000015504425391554832,0.0008885478600859642
1783246445702550000,3.662550048828125,-0.0003030034713447094,-4.745088517665863e-7,-0.0003575454466044903
1783246445712562200,3.672562255859375,0.00033172452822327614,0.0014895300846546888,-0.00047496333718299866
1783246445722573000,3.682572998046875,0.0011085686273872852,0.000035177916288375854,-0.001210528425872326
1783246445732585000,3.6925849609375,-0.0004279487766325474,0.0006996330339461565,-0.0010946025140583515
1783246445742595800,3.702595947265625,0.0004058871418237686,-0.00007667858153581619,0.0000745248980820179
1783246445752608000,3.71260791015625,-0.0003275941126048565,-0.0006219546776264906,0.0007662125863134861
1783246445762620000,3.722619873046875,-0.0014479858800768852,-0.00025869952514767647,0.0011960468254983425
1783246445772631000,3.732631103515625,0.0004204711876809597,-0.00073288194835186,0.0002445247955620289
1783246445782643200,3.742643310546875,-0.00026795617304742336,0.0004080162616446614,0.001018439419567585
1783246445792654000,3.752654052734375,-0.00002844049595296383,-0.00019326596520841122,0.00175807299092412
1783246445802666000,3.762666015625,0.0007667795289307833,0.00016439659520983696,-0.00007977429777383804
1783246445812676900,3.7726767578125,0.0011670724488794804,0.00021269498392939568,0.0007569128647446632
1783246445822689000,3.78268896484375,0.0009154037106782198,-0.0008496399968862534,0.0016975412145256996
1783246445832701000,3.792700927734375,-0.00037484150379896164,0.00009871087968349457,-0.0002876715734601021
1783246445842711800,3.8027119140625,0.0006366269662976265,-0.000057616736739873886,0.0006867791526019573
1783246445852724000,3.812723876953125,-0.001167703652754426,0.001018096343614161,0.00014685653150081635
1783246445862735000,3.822735107421875,-0.0014835542533546686,-0.00032919691875576973,0.00028134649619460106
1783246445872747000,3.8327470703125,-0.0003532108385115862,0.0002011982724070549,0.0015741018578410149
1783246445882758000,3.8427578125,-0.00031299726106226444,0.00027363619301468134,-0.0004965057596564293
1783246445892770000,3.85277001953125,0.00013360916636884212,0.0006371275521814823,-0.00033851200714707375
1783246445902782000,3.862781982421875,-0.000938313314691186,-0.00006195227615535259,0.0006849407218396664
1783246445912792800,3.872792724609375,-0.0005013933405280113,-0.0009902957826852798,-0.0001652832143008709
1783246445922805000,3.882804931640625,0.0006869093049317598,0.0011024163104593754,-0.0012683644890785217
1783246445932816100,3.892816162109375,0.0009337435476481915,-0.0006271868478506804,-0.00008220318704843521
1783246445942828000,3.902828125,-0.0012447221670299768,0.00010251905769109726,0.00034283706918358803
1783246445952839000,3.9128388671875,0.00044077332131564617,0.001085767988115549,-0.0009673566091805696
1783246445962851000,3.92285107421875,0.000004014931619167328,0.00027856393717229366,0.0007029781118035316
1783246445972862000,3.932862060546875,-0.0004418881144374609,-0.0004480713978409767,-0.0024080213624984026
1783246445982873900,3.942873779296875,0.000926177715882659,0.0005708540556952357,-0.00034300610423088074
1783246445992886000,3.952885986328125,-0.00017055892385542393,0.0010116552002727985,0.0009095626883208752
1783246446002897200,3.962897216796875,0.0011160140857100487,-0.0012227369006723166,0.0005276650190353394
1783246446012909000,3.972908935546875,-0.00042522791773080826,-0.0008479566313326359,-0.0004130988381803036
1783246446022920000,3.982919921875,-0.00007022847421467304,-0.00013609370216727257,-0.00024398835375905037
1783246446032932000,3.99293212890625,0.00015395157970488071,-0.00021283654496073723,-0.0006581139750778675
1783246446042943000,4.00294287109375,-0.00024206051602959633,-0.0009819574188441038,-0.000025080516934394836
1783246446052955000,4.012954833984375,0.0006842664442956448,-0.00012218719348311424,0.00037743663415312767
1783246446062967000,4.022967041015625,-0.00015862402506172657,-0.00023883371613919735,0.0003968775272369385
1783246446072978000,4.03297802734375,-0.0002804731484502554,-0.00002983817830681801,-0.0002619931474328041
1783246446082989800,4.04298974609375,0.0005325900856405497,-0.00045967218466103077,-0.00001911260187625885
1783246446093001000,4.0530009765625,-0.0007495307363569736,-0.000274786027148366,0.0007903766818344593
1783246446103013000,4.06301318359375,0.00035887700505554676,0.0004021894419565797,0.00015121838077902794
1783246446113024000,4.07302392578125,0.0005786148831248283,0.0001190404873341322,0.0005131163634359837
1783246446123036000,4.083035888671875,0.0006960602477192879,0.00033795239869505167,0.0013416255824267864
1783246446133048000,4.093048095703125,0.0007866316009312868,-0.001860808813944459,-0.00025892816483974457
1783246446143059000,4.103058837890625,0.0003301657270640135,0.00034375605173408985,0.00010619126260280609
1783246446153070800,4.11307080078125,-0.0010882397182285786,0.0002594161778688431,0.0003808606415987015
1783246446163082000,4.12308203125,0.00016690813936293125,-0.0010383420158177614,0.0012937923893332481
1783246446173094100,4.13309423828125,-0.0007600430399179459,0.0009677459020167589,-0.0006950248498469591
1783246446183105000,4.14310498046875,-0.0006801481358706951,-0.000025080516934394836,-0.0005285772494971752
1783246446193117000,4.153116943359375,0.0003470839001238346,0.0005068132886663079,0.0000319676473736763
1783246446203128000,4.163128173828125,0.0010941005311906338,-0.0012231762520968914,-0.0007781658787280321
1783246446213140000,4.173139892578125,-0.00038063875399529934,0.0009273308096453547,-0.00003500515595078468
1783246446223151900,4.18315185546875,-0.0008754539303481579,0.0005315850721672177,-0.0001798812299966812
1783246446233163000,4.1931630859375,-0.0014306639786809683,0.0003727242583408952,0.0003948346711695194
1783246446243175000,4.2031748046875,-0.0002743194345384836,0.00033304316457360983,-0.001002259785309434
1783246446253186000,4.21318603515625,-0.00028164335526525974,0.0005524399457499385,0.00040088361129164696
1783246446263198000,4.223197998046875,-0.0008965672459453344,-0.0001482376828789711,-0.0005368157289922237
1783246446273209000,4.233208984375,-0.00013764412142336369,0.0006861856672912836,-0.0005492465570569038
1783246446283221000,4.243220947265625,0.00023812777362763882,-0.0009481962770223618,-0.000800116453319788
1783246446293233000,4.25323291015625,0.00027613132260739803,-0.000516828615218401,-0.0005096816457808018
1783246446303244000,4.263244140625,0.0008681518957018852,0.0012163566425442696,0.0007065841928124428
1783246446313256000,4.273255859375,0.0005567942280322313,0.0013434491120278835,0.0010363548062741756
1783246446323267000,4.28326708984375,-0.0006826408207416534,0.0007690052734687924,-0.00130562880076468
1783246446333279000,4.293279052734375,0.002337136771529913,-0.0007401423063129187,-0.00004883250221610069
1783246446343290000,4.3032900390625,-0.0004607804585248232,0.0008452374022454023,0.0005615637637674809
1783246446353302000,4.313302001953125,0.0011482175905257463,-0.0009136619046330452,-0.0008136103861033916
1783246446363314000,4.32331396484375,0.000837692990899086,0.00036066060420125723,0.0010966751724481583
1783246446373325000,4.333324951171875,0.00034576747566461563,0.00022350018844008446,0.00012835580855607986
1783246446383337000,4.3433369140625,0.00018384750001132488,0.0007561325328424573,-0.0001605967991054058
1783246446393348000,4.35334814453125,-0.00015297532081604004,0.000747684040106833,-0.0007639217656105757
1783246446403360000,4.363360107421875,0.0004433065187186003,0.0013133394531905651,-0.00021637557074427605
1783246446413371100,4.37337109375,0.0007054132875055075,0.00010318565182387829,0.00005681812763214111
1783246446423383000,4.383383056640625,-0.0001454667653888464,0.00035325647331774235,-0.0002965829335153103
1783246446433394000,4.393393798828125,0.000922616571187973,0.0007310397922992706,-0.0000247955322265625
1783246446443406000,4.403406005859375,0.0006941172759979963,0.0007728515192866325,0.0008074422366917133
1783246446453418000,4.41341796875,-0.0008419686928391457,0.00031041353940963745,0.000765572302043438
1783246446463428900,4.423428955078125,0.0010089280549436808,-0.0005026496946811676,-0.0010538992937654257
1783246446473440800,4.433440673828125,-0.00048350333236157894,0.00059604796115309,-0.0009342054836452007
1783246446483452200,4.4434521484375,0.0004238355904817581,-0.0008276780135929585,-0.000717424089089036
1783246446493464000,4.453464111328125,0.0007659220136702061,0.001080480171367526,0.0019243238493800163
1783246446503475000,4.463474853515625,-0.0007089367136359215,0.0019143158569931984,-0.00012098392471671104
1783246446513487000,4.473487060546875,0.0012125854846090078,0.00010789837688207626,0.0004364084452390671
1783246446523499000,4.4834990234375,0.0006932690739631653,0.001501796767115593,-0.0010472387075424194
1783246446533510000,4.493510009765625,-0.00038656475953757763,-0.00048232427798211575,0.0010626516304910183
1783246446543521800,4.503521728515625,0.0001926729455590248,-0.00022586178965866566,0.00020804349333047867
1783246446553533200,4.513533203125,-0.0016996501944959164,-0.0010975240729749203,-0.00046260328963398933
1783246446563545000,4.523545166015625,0.0007403378840535879,-0.00016595027409493923,-0.00019468925893306732
1783246446573556000,4.533555908203125,0.0003467658534646034,0.00001068413257598877,-0.0011520001571625471
1783246446583568100,4.543568115234375,-0.00034512346610426903,-0.0002108910121023655,0.00012684985995292664
1783246446593580000,4.553580078125,-0.0012086506467312574,0.0019734464585781097,-0.00034097861498594284
1783246446603591000,4.5635908203125,-0.0012962690088897943,0.000730815576389432,0.001126689836382866
1783246446613603000,4.57360302734375,-0.0005322278011590242,-0.0009421536233276129,0.0008412515744566917
1783246446623613400,4.583613525390625,0.0012409049086272717,0.0005721197230741382,-0.0004085698164999485
1783246446633625300,4.593625244140625,0.000493241474032402,-0.00020775245502591133,0.0009655742906033993
1783246446643636200,4.60363623046875,0.0006548955570906401,0.00006362376734614372,-0.0010336609557271004
1783246446653648400,4.6136484375,-0.0006443539168685675,-0.000013639917597174644,-0.0008250214159488678
1783246446663659300,4.6236591796875,-0.0010813786648213863,0.0004215205553919077,0.00024130847305059433
1783246446673671200,4.633671142578125,-0.0007631578482687473,0.00023451866582036018,0.0005407943390309811
1783246446683683300,4.643683349609375,0.000978016760200262,-0.0009287500288337469,0.0011860779486596584
1783246446693694500,4.653694580078125,0.0010379042942076921,-0.00010939966887235641,0.0002488703466951847
1783246446703706400,4.663706298828125,0.0006432237569242716,0.0007689108606427908,0.0000685742124915123
1783246446713717200,4.67371728515625,0.00037330295890569687,-0.0012763801496475935,-0.0012128199450671673
1783246446723729400,4.6837294921875,-0.0011114091612398624,-0.0001834188587963581,0.0007850835099816322
1783246446733740300,4.693740234375,0.00019844714552164078,0.00040892837569117546,0.0012389197945594788
1783246446743752200,4.703752197265625,-0.0007328600622713566,0.0003908189246430993,-0.00021729664877057076
1783246446753764400,4.713764404296875,0.0005060073453933001,-0.0003785397857427597,-0.0005628070794045925
1783246446763775200,4.723775146484375,0.0009046825580298901,0.0004270663484930992,-0.0010919771157205105
1783246446773787100,4.733787109375,0.0007016167510300875,-0.0006346297450363636,-0.0007687017787247896
1783246446783798300,4.74379833984375,0.00040067965164780617,-0.001579253003001213,-0.00032475264742970467
1783246446793810400,4.753810546875,-0.00008133449591696262,0.0001893802545964718,-0.0007956097833812237
1783246446803821300,4.7638212890625,0.00041987234726548195,-0.0002630909439176321,0.0009437007829546928
1783246446813833200,4.773833251953125,0.0012901703594252467,0.0005732194986194372,0.0008339365012943745
1783246446823844000,4.783843994140625,0.0007013455033302307,0.0009870748035609722,0.0002903854474425316
1783246446833856300,4.793856201171875,0.00009667454287409782,0.000983376638032496,0.00014601554721593857
1783246446843868200,4.8038681640625,0.0001214419025927782,-0.00019347411580383778,0.0007540150545537472
1783246446853879300,4.81387939453125,-0.000845673494040966,-0.00014243857003748417,0.0005466267466545105
1783246446863891500,4.823891357421875,0.000216661486774683,0.0001683523878455162,-0.0015215841121971607
1783246446873902300,4.83390234375,-0.0004530148580670357,0.000026392750442028046,0.0008326489478349686
1783246446883914200,4.843914306640625,0.0016146634006872773,-0.001042067538946867,0.000988710206001997
1783246446893925000,4.853925048828125,0.0003389199264347553,0.00034488074015825987,0.0012771226465702057
1783246446903937300,4.863937255859375,0.001111236633732915,0.0003139880718663335,0.0007775137200951576
1783246446913949200,4.87394921875,0.0007080072537064552,0.0003968094242736697,-0.0006553502753376961
1783246446923960300,4.883960205078125,-0.0011237149592489004,0.0010958892526105046,-0.0005544163286685944
1783246446933972500,4.893972412109375,0.0007093758322298527,-0.00013856496661901474,0.0007703951559960842
1783246446943983400,4.9039833984375,-0.00015402096323668957,-0.0005268538370728493,0.000497953500598669
1783246446953995300,4.913995361328125,0.0010358309373259544,0.001776263234205544,-0.0015339169185608625
1783246446964006100,4.924006103515625,-0.00046193087473511696,0.000050002243369817734,0.0010275114327669144
1783246446974018300,4.934018310546875,-0.0002180933952331543,-0.0005275814328342676,-0.0005162935703992844
1783246446984030200,4.9440302734375,-0.0002633670810610056,-0.00043490342795848846,0.0014989208430051804
1783246446994041000,4.954041015625,0.001277343020774424,-0.00014927401207387447,0.0009382548741996288
1783246447004053200,4.96405322265625,0.0004368494264781475,0.0012898982968181372,0.000015469733625650406
1783246447014064400,4.974064453125,-0.00017416966147720814,0.001858863397501409,0.0002595512196421623
1783246447024076300,4.984076171875,0.00010998966172337532,0.0004473880399018526,0.0009098951704800129
1783246447034087200,4.994087158203125,0.001167421811260283,-0.0005706904921680689,-0.0008907769806683064
1783246447044099300,5.004099365234375,0.00005395431071519852,0.0013848687522113323,-0.0003986246883869171
1783246447054110200,5.014110107421875,0.00019057746976613998,0.00023191026411950588,0.0005932128988206387
1783246447064122000,5.0241220703125,0.0005876547656953335,-0.0004855452571064234,0.0003657788038253784
1783246447074134300,5.03413427734375,0.00039944867603480816,-0.0000737309455871582,0.00010479241609573364
1783246447084145400,5.0441455078125,-0.00021174689754843712,0.0014051224570721388,0.0005274363793432713
1783246447094157300,5.0541572265625,0.000570603646337986,-0.0004272451624274254,0.0010689054615795612
1783246447104168200,5.064168212890625,-0.0008512579370290041,0.0005181771703064442,0.00003187078982591629
1783246447114180400,5.074180419921875,-0.00016574678011238575,-0.00028725177980959415,0.0005324534140527248
1783246447124191200,5.084191162109375,0.000550377182662487,0.0010792161338031292,-0.00045584607869386673
1783246447134203100,5.094203125,0.00008707493543624878,-0.00020317966118454933,-0.001578690716996789
1783246447144215300,5.10421533203125,-0.0006205269601196051,0.0007012299029156566,-0.00018292805179953575
1783246447154226200,5.11422607421875,0.00022285478189587593,0.00028422218747437,-0.0005564643070101738
1783246447164238300,5.12423828125,0.00025907368399202824,0.0007814343553036451,0.0002297009341418743
1783246447174249500,5.13424951171875,-0.0005753380246460438,-0.0009417117107659578,0.000009593088179826736
1783246447184261400,5.144261474609375,0.0012025884352624416,0.00014832010492682457,0.001003751065582037
1783246447194272300,5.154272216796875,-0.0009579160250723362,-0.000426609767600894,0.0001676059328019619
1783246447204284200,5.1642841796875,-0.0004354040138423443,-0.0000010365620255470276,-0.00009977584704756737
1783246447214296300,5.17429638671875,-0.0001655148807913065,0.0003001431468874216,0.000676340889185667
1783246447224307200,5.18430712890625,-0.0004265045281499624,0.0009755208157002926,0.0005043004639446735
1783246447234319000,5.194319091796875,0.0005102674476802349,0.0009439444402232766,-0.000351903960108757
1783246447244330500,5.20433056640625,0.0005486169829964638,-0.00021639489568769932,-0.00025230133906006813
1783246447254342400,5.21434228515625,-0.00016442127525806427,-0.0004808991216123104,0.0003544972278177738
1783246447264353300,5.224353271484375,0.0002614182885736227,0.000048537272959947586,-0.0009174286387860775
1783246447274365200,5.234365234375,0.0012070359662175179,-0.00030027166940271854,0.00007009599357843399
1783246447284376300,5.244376220703125,0.00019343686290085316,-0.0002656504511833191,-0.0005895690992474556
1783246447294388200,5.25438818359375,-0.000008225208148360252,-0.00016063032671809196,-0.000559845007956028
1783246447304400100,5.264400146484375,-0.00024071917869150639,-0.001448801252990961,-0.000575557816773653
1783246447314411500,5.27441162109375,-0.0005267192609608173,0.00022482324857264757,-0.0006979848258197308
1783246447324423400,5.28442333984375,0.0005728998221457005,0.00030844658613204956,-0.0007792110554873943
1783246447334434300,5.294434326171875,0.000481913797557354,-0.0006547675002366304,-0.001110560493543744
1783246447344446200,5.3044462890625,-0.00022835121490061283,0.0005822707898914814,0.0006793499924242496
1783246447354457300,5.314457275390625,0.0003990584518760443,0.00009031244553625584,-0.0009251795709133148
1783246447364469200,5.32446923828125,0.0002890699543058872,0.000557697145268321,-0.0010367659851908684
1783246447374481200,5.334481201171875,-0.00047910562716424465,0.0003198643680661917,-0.0010437569580972195
1783246447384492300,5.3444921875,-0.00045274035073816776,0.00028843909967690706,0.0002675834111869335
1783246447394504200,5.354504150390625,-0.0010007184464484453,0.0003042755415663123,-0.0004061157815158367
1783246447404515300,5.364515380859375,-0.0023211135994642973,0.0010070838034152985,0.0001835082657635212
1783246447414527200,5.37452734375,0.001238238881342113,0.0003796315286308527,0.0011075269430875778
1783246447424538400,5.384538330078125,-0.0004028009716421366,0.00023209245409816504,0.0008926098234951496
1783246447434550300,5.39455029296875,-0.0010977564379572868,-0.00006295251660048962,0.0006292397156357765
1783246447444561200,5.40456103515625,0.00030999048613011837,-0.00059878034517169,-0.0006152554415166378
1783246447454573300,5.4145732421875,-0.001965021248906851,-0.0003621019423007965,0.0004718261770904064
1783246447464585200,5.424585205078125,-0.0002707182429730892,-0.0006981927435845137,0.0006920695304870605
1783246447474596400,5.434596435546875,-0.0005547653418034315,0.0003257584758102894,0.0003702668473124504
1783246447484608300,5.444608154296875,-0.001090859528630972,0.00013108132407069206,-0.0008867450524121523
1783246447494619400,5.454619384765625,-0.00027590268291532993,0.0006826641038060188,-0.0009727203287184238
1783246447504631300,5.46463134765625,0.0009209217969328165,-0.00022041378542780876,-0.0002054637297987938
1783246447514642200,5.47464208984375,0.0003311522305011749,-0.000801115995272994,0.001351560465991497
1783246447524654300,5.484654296875,-0.00023503578267991543,-0.00022667227312922478,0.000022110529243946075
1783246447534666200,5.494666259765625,-0.00025027315132319927,0.00003637257032096386,0.0006093415431678295
1783246447544677400,5.504677490234375,0.0002796959597617388,-0.0009567202068865299,-0.00007136259227991104
1783246447554689300,5.514689208984375,-0.0010858571622520685,-0.00036739674396812916,0.0003258674405515194
1783246447564700400,5.524700439453125,-0.00019875820726156235,0.0005053211934864521,-0.000100770965218544
1783246447574712300,5.53471240234375,-0.00045766192488372326,0.00010294478852301836,0.0008204500190913677
1783246447584723200,5.54472314453125,0.0005857646465301514,0.0006563495844602585,0.0003245691768825054
1783246447594735400,5.5547353515625,0.00009284308180212975,-0.0003939657472074032,-0.00012625660747289658
1783246447604747300,5.564747314453125,-0.0005204828921705484,-0.0009329896420240402,-0.0009507711511105299
1783246447614758100,5.574758056640625,-0.00151475565508008,-0.0007177998777478933,0.00032117078080773354
1783246447624771000,5.58477099609375,0.00028287828899919987,-0.002280276734381914,-0.0003890939988195896
1783246447634782000,5.594781982421875,-0.00042674760334193707,0.0008555268868803978,0.0007108584977686405
1783246447644794000,5.604794189453125,0.0006446419283747673,-0.0007120096124708652,0.00014387164264917374
1783246447654805000,5.614804931640625,0.0003297603689134121,2.4633482098579407e-7,0.000055762939155101776
1783246447664817200,5.624817138671875,0.00015772017650306225,-0.00011027464643120766,0.0019537974148988724
1783246447674828000,5.634828125,0.0009773902129381895,0.0007243865402415395,-0.00042164651677012444
1783246447684840000,5.64483984375,0.000567795941606164,0.00021625531371682882,0.0006321663968265057
1783246447694852000,5.65485205078125,0.00030405749566853046,0.0005403880495578051,0.00124366395175457
1783246447704863000,5.664863037109375,-0.00016519147902727127,-0.00019278028048574924,0.0011555133387446404
1783246447714875000,5.674875,-0.0008798388298600912,0.0010839670430868864,0.0008900938555598259
1783246447724886000,5.684885986328125,-0.0009128621313720942,-0.0008726574014872313,0.0004291008226573467
1783246447734898200,5.694898193359375,-0.00004427880048751831,-0.0009497508872300386,0.00008386466652154922
1783246447744909000,5.704908935546875,-0.0002432169858366251,-0.000432564876973629,-0.000013607088476419449
1783246447754921000,5.7149208984375,-0.00062750861980021,-0.0013580701779574156,-0.0008431060705333948
1783246447764933000,5.72493310546875,-0.00019288063049316406,0.00003556208685040474,-0.0005661374889314175
1783246447774944000,5.734944091796875,0.0003171800635755062,0.0001744400942698121,-0.000053977128118276596
1783246447784956000,5.744955810546875,-0.0003448817878961563,0.0022857943549752235,0.0002994243986904621
1783246447794967000,5.754967041015625,-0.0002125485334545374,0.00005255057476460934,-0.0009350967593491077
1783246447804979200,5.764979248046875,0.001743010594509542,-0.00016316561959683895,-0.00036624539643526077
1783246447814990000,5.774989990234375,0.0003695017658174038,0.00015637697651982307,0.0019147261045873165
1783246447825002000,5.785001953125,0.0002547195181250572,-0.0010108866263180971,0.001712591852992773
1783246447835012900,5.795012939453125,-0.0005568522028625011,0.00018683320377022028,-0.0005493205972015858
1783246447845025000,5.80502490234375,0.0004357078578323126,0.000005471985787153244,0.00034896330907940865
1783246447855037000,5.815036865234375,0.0006097410805523396,-0.0006905000191181898,0.00015216227620840073
1783246447865047800,5.8250478515625,-0.00021504005417227745,0.00018301676027476788,0.0008957167156040668
1783246447875060000,5.83506005859375,0.0016794268740341067,0.0003053153632208705,-0.001401496585458517
1783246447885071000,5.845071044921875,0.00011002598330378532,-0.0004257222171872854,-0.0007293145172297955
1783246447895083000,5.8550830078125,0.0003383108414709568,-0.00040945783257484436,0.0005986574105918407
1783246447905094000,5.865093994140625,0.00007678847759962082,0.0005721831694245338,0.0009089158847928047
1783246447915106000,5.87510595703125,-0.00013621733523905277,0.00022116233594715595,-0.0001904754899442196
1783246447925118000,5.885117919921875,-0.0018920393195003271,-0.0002933603245764971,0.0005187243223190308
1783246447935128800,5.89512890625,-0.00032865116372704506,-0.0005958755500614643,-0.00025521591305732727
1783246447945141000,5.90514111328125,-0.001131860539317131,0.0005993511294946074,-0.0001119379885494709
1783246447955152100,5.915152099609375,-0.00036999047733843327,0.0001964456168934703,-0.0002418598160147667
1783246447965164000,5.9251640625,-0.0007018204778432846,0.000039585400372743607,-0.001077825902029872
1783246447975175000,5.9351748046875,-0.000642833299934864,-0.000838977750390768,0.0005908114835619926
1783246447985187000,5.94518701171875,-0.00020953710190951824,-0.0006538880988955498,-0.0004033464938402176
1783246447995198000,5.955197998046875,0.0005683195777237415,-0.0004296328406780958,-0.0005970736965537071
1783246448005209900,5.9652099609375,-0.0010815085843205452,0.000299008097499609,-0.00047323666512966156
1783246448015222000,5.975221923828125,-0.0007295438554137945,-0.0008871664758771658,-0.0000707767903804779
1783246448025233200,5.985233154296875,0.0003868532367050648,0.001334708766080439,-0.0011115402448922396
1783246448035245000,5.9952451171875,0.000628714682534337,0.00294537958689034,-0.0005616359412670135
1783246448045256000,6.005255859375,0.00020207627676427364,0.0008643855107948184,-0.001271901186555624
1783246448055268000,6.01526806640625,-0.0002582964953035116,0.00028096605092287064,-0.00047480640932917595
1783246448065279000,6.025279052734375,-0.00048812711611390114,-0.0008085330482572317,-0.00003538466989994049
1783246448075291000,6.035290771484375,0.0000742755364626646,0.0010285230819135904,-0.0010103473905473948
1783246448085303000,6.045302978515625,0.0008796155452728271,0.00009029149077832699,-0.0009714653715491295
1783246448095314000,6.05531396484375,-0.00023374170996248722,-0.0009097906295210123,-0.0020069105084985495
1783246448105325800,6.065325927734375,0.0005114106461405754,-0.00007089483551681042,0.00035797664895653725
1783246448115337000,6.0753369140625,-0.0007548793219029903,-0.0002237190492451191,0.00019291788339614868
1783246448125349000,6.08534912109375,0.0007716447580605745,0.0008229033555835485,-0.0007692822255194187
1783246448135360000,6.095360107421875,-0.00039559719152748585,0.0003432550001889467,-0.00034972699359059334
1783246448145372000,6.105371826171875,0.0002515509258955717,0.00065617635846138,0.0004028822295367718
1783246448155383000,6.115383056640625,0.0023083363194018602,0.0008843678515404463,0.0015094485133886337
1783246448165395000,6.12539501953125,0.00016023055650293827,-0.0009984869975596666,0.0009565763175487518
1783246448175406800,6.13540673828125,0.0015194666339084506,-0.0012138579040765762,0.00025107618421316147
1783246448185418000,6.14541796875,-0.00008322368375957012,-0.00020265555940568447,0.0011461647227406502
1783246448195430100,6.15543017578125,-0.00031523057259619236,-0.0007907594554126263,0.0009972848929464817
1783246448205441000,6.16544091796875,0.0004922398366034031,0.00039621139876544476,0.00017010699957609177
1783246448215453000,6.175452880859375,-0.0003075606655329466,-0.00041439873166382313,-0.0005830754525959492
1783246448225464000,6.185464111328125,-0.0013392693363130093,-0.00022531417198479176,0.00047739502042531967
1783246448235476000,6.19547607421875,0.0005973256193101406,-0.0003266138955950737,0.00028376979753375053
1783246448245487900,6.20548779296875,-0.0011648880317807198,-0.0004326077178120613,-0.0005721701309084892
1783246448255499000,6.2154990234375,0.0002699017059057951,0.00033366610296070576,-0.0012457137927412987
1783246448265511000,6.225510986328125,0.00007096352055668831,-0.0010679555125534534,0.0006078463047742844
1783246448275522000,6.23552197265625,0.001110215438529849,-0.0006505779456347227,-0.00022541778162121773
1783246448285534000,6.245533935546875,-0.00027622608467936516,0.0011526483576744795,0.0009764670394361019
1783246448295545000,6.255545166015625,0.000551335047930479,0.00030169461388140917,-0.0009038425050675869
1783246448305557000,6.265556884765625,-0.0005845031701028347,-0.000891401432454586,-0.0010154289193451405
1783246448315567900,6.27556787109375,-0.0021601824555546045,-0.0003011648077517748,-0.0008033434860408306
1783246448325579800,6.285579833984375,-0.00021687382832169533,-0.0010907920077443123,0.00013115955516695976
1783246448335592000,6.295592041015625,-0.0005229858215898275,0.0013808945659548044,0.000963245052844286
1783246448345603000,6.30560302734375,0.000020032748579978943,-0.0004537571221590042,0.0007400722242891788
1783246448355615000,6.315614990234375,-0.00045302161015570164,0.00040540576446801424,-0.0008208665531128645
1783246448365626000,6.325626220703125,0.0003706943243741989,0.0002378929639235139,-0.0008325844537466764
1783246448375638000,6.335637939453125,-0.0005239115562289953,0.00008138199336826801,-0.00008564861491322517
1783246448385649000,6.34564892578125,0.0017107469029724598,-0.00029465649276971817,0.0007750852964818478
1783246448395661000,6.3556611328125,0.0007867699023336172,-0.000006934395059943199,-0.00031282519921660423
1783246448405673000,6.3656728515625,-0.0011839692015200853,-0.0008271879050880671,-0.0013764917384833097
1783246448415684000,6.37568408203125,0.0014425194822251797,0.0005516482051461935,0.0007588653825223446
1783246448425696000,6.385696044921875,-0.0012363544665277004,0.0004722860176116228,-0.00019561173394322395
1783246448435707100,6.39570703125,-0.0005175403784960508,-0.00021326006390154362,-0.0008034701459109783
1783246448445719000,6.405718994140625,-0.0007020973134785891,0.00030792050529271364,0.00008096545934677124
1783246448455730000,6.41572998046875,0.00007453071884810925,-0.00016849162057042122,0.0012435447424650192
1783246448465742000,6.4257421875,0.0006013039965182543,0.000005146488547325134,0.0004358082078397274
1783246448475753000,6.4357529296875,-0.0006995799485594034,0.0010569774312898517,0.00043721403926610947
1783246448485764900,6.445764892578125,0.0005896564107388258,0.00039358402136713266,-0.0002682572230696678
1783246448495776800,6.45577685546875,0.0009145461954176426,-0.00023375987075269222,0.0009917747229337692
1783246448505788200,6.4657880859375,0.0006516920402646065,-0.0004673190414905548,0.0005901698023080826
1783246448515800000,6.475800048828125,-0.00006104307249188423,0.00027323688846081495,0.0000835205428302288
1783246448525811000,6.48581103515625,0.0005717240273952484,0.00013741571456193924,0.0010039089247584343
1783246448535823000,6.495822998046875,-0.00005104765295982361,-0.0005798055790364742,-0.0006162524223327637
1783246448545834000,6.505833984375,0.0007529605645686388,-0.0008607690688222647,-0.0014056134968996048
1783246448555846000,6.515845947265625,0.0007922481745481491,0.00032207206822931767,-0.0008546169847249985
1783246448565857000,6.52585693359375,-0.000380075303837657,0.0005545660387724638,-0.00031079957261681557
1783246448575869200,6.535869140625,0.0005524107255041599,0.0013948227278888226,-0.001067916164174676
1783246448585881000,6.545881103515625,0.00039262091740965843,0.0008336945902556181,-0.0007635168731212616
1783246448595892000,6.55589208984375,0.0008427286520600319,-0.0008661439642310143,-0.0003858930431306362
1783246448605904100,6.565904052734375,0.000003300374373793602,0.00044466392137110233,-0.0011414317414164543
1783246448615915000,6.5759150390625,-0.00006540119647979736,-0.0006566320080310106,0.000012104865163564682
1783246448625927000,6.585927001953125,0.00016176654025912285,0.0001857259776443243,-0.0002811090089380741
1783246448635938000,6.59593798828125,0.0009653384331613779,-0.0007004565559327602,-0.002162074437364936
1783246448645950000,6.605949951171875,0.00045161484740674496,0.000013803131878376007,0.0018007094040513039
1783246448655962000,6.615962158203125,0.0013324309838935733,-0.000517294043675065,-0.0008371337316930294
1783246448665973000,6.625972900390625,-0.00012192130088806152,0.0006433116504922509,-0.0004176856018602848
1783246448675985200,6.635985107421875,0.000049145426601171494,0.0008945992449298501,-0.00015928922221064568
1783246448685996000,6.64599609375,0.0003780457191169262,-0.0003296558279544115,0.000455634668469429
1783246448696008000,6.656008056640625,0.00010588089935481548,-0.0004662340506911278,-0.0003120098263025284
1783246448706018800,6.666018798828125,-0.0002485858276486397,-0.00022788112983107567,-0.0002845791168510914
1783246448716031000,6.676031005859375,0.0006830852944403887,0.0009709032019600272,-0.000031569041311740875
1783246448726042000,6.6860419921875,0.00013074581511318684,0.0002984550083056092,0.001333034597337246
1783246448736054000,6.696053955078125,0.000050018541514873505,-0.0006762053817510605,0.00006773322820663452
1783246448746066200,6.706066162109375,0.0009994355496019125,-0.001320424024015665,-0.0012284272816032171
1783246448756077000,6.7160771484375,-0.0007468960247933865,-0.0000012489035725593567,0.0005844468250870705
1783246448766089000,6.7260888671875,-0.0004949611611664295,0.0005044854478910565,0.0000329064205288887
1783246448776099800,6.736099853515625,0.0003574604634195566,0.0007479757769033313,-0.0005802041850984097
1783246448786112000,6.746112060546875,0.00020113307982683182,0.00005448865704238415,-0.00011734664440155029
1783246448796123100,6.756123046875,-0.000298935454338789,-0.0015637530013918877,0.00043438514694571495
1783246448806135000,6.766135009765625,0.000529041513800621,-0.001348037039861083,0.00023677852004766464
1783246448816147200,6.776147216796875,0.00031292298808693886,-0.00021591037511825562,0.0004774625413119793
1783246448826158000,6.786157958984375,0.0005054695066064596,0.001199559774249792,0.0003490983508527279
1783246448836170000,6.796169921875,0.0011474199127405882,-0.00023174122907221317,-0.0013957652263343334
1783246448846180900,6.806180908203125,-0.0005194526165723801,-0.0005297490861266851,-0.00019760895520448685
1783246448856193000,6.816193115234375,-0.0005106900352984667,0.0005011159228160977,0.0007584039121866226
1783246448866204000,6.826203857421875,-0.0002558254636824131,0.00023080501705408096,0.000938433688133955
1783246448876215800,6.8362158203125,0.0012915561674162745,-0.0004262584261596203,0.00021827779710292816
1783246448886227000,6.84622705078125,0.0001386736985296011,0.0008573851082473993,0.000031589996069669724
1783246448896239000,6.856239013671875,-0.000009157927706837654,0.000019641360267996788,-0.001256958581507206
1783246448906251000,6.8662509765625,-0.0009218230843544006,0.00034321541897952557,0.0004645087756216526
1783246448916262000,6.876261962890625,-0.0005245537031441927,-0.0004336712881922722,-0.0009447410702705383
1783246448926274000,6.886274169921875,-0.000159167917445302,0.0010640905238687992,0.00014289375394582748
1783246448936285000,6.896284912109375,0.0006393908988684416,-0.0008805794641375542,-0.00018758699297904968
1783246448946296800,6.906296875,-0.00019258074462413788,0.00011277943849563599,-0.00129599473439157
1783246448956308000,6.916307861328125,-0.0009227837435901165,-0.00028073322027921677,-0.00043957168236374855
1783246448966320000,6.926320068359375,-0.0011622020974755287,0.05224718898534775,0.023051640018820763
1783246448976332000,6.93633203125,-0.0014950688928365707,0.054220106452703476,0.006062787491828203
1783246448986343000,6.946343017578125,0.0022730380296707153,-0.06199411675333977,-0.007153148762881756
1783246448996355000,6.95635498046875,-0.0016075547318905592,0.019445637241005898,0.005282131023705006
1783246449006366000,6.966365966796875,-0.002951652044430375,0.04172750562429428,0.006587079726159573
1783246449016377900,6.9763779296875,0.0022071811836212873,-0.0247667133808136,-0.004550355486571789
1783246449026389000,6.986388916015625,-0.0005369400605559349,0.003042015014216304,0.0006092526018619537
1783246449036401200,6.996401123046875,-0.0019425149075686932,0.010180996730923653,0.0013212589547038078
1783246449046412000,7.006412109375,0.0010093327146023512,-0.01577044278383255,-0.0029136999510228634
1783246449056424000,7.016423828125,0.0004097709897905588,-0.008764910511672497,-0.005847540684044361
1783246449066436000,7.02643603515625,0.00019352231174707413,-0.010419799014925957,-0.0030898372642695904
1783246449076447000,7.036447021484375,0.0005723549984395504,-0.019374486058950424,-0.00661177234724164
1783246449086459000,7.046458984375,-0.00009876163676381111,-0.016784828156232834,-0.004704948980361223
1783246449096470000,7.056469970703125,0.0014994998928159475,-0.011324155144393444,-0.003092002123594284
1783246449106482000,7.06648193359375,-0.00012715882621705532,0.007908395491540432,0.00022363336756825447
