time,seconds_elapsed,z,y,x
1783246372600501800,0.069501708984375,0.00009313621558248997,0.0004879665793851018,0.00011108396574854851
1783246372610513000,0.079512939453125,-0.000735849142074585,-0.0022047304082661867,0.00006752274930477142
1783246372620524800,0.08952490234375,-0.0005188016220927238,0.00047121394891291857,-0.00003474252298474312
1783246372630536000,0.099535888671875,-0.0007122550159692764,-0.00009301002137362957,0.0003763861022889614
1783246372640547800,0.1095478515625,-0.0008262386545538902,-0.0011148650664836168,0.0009878482669591904
1783246372650560000,0.11956005859375,-0.0016448453534394503,0.0009443104499951005,-0.0004590447060763836
1783246372660571000,0.12957080078125,-0.0005811785813421011,0.0005307216197252274,0.0001811794936656952
1783246372670582800,0.139582763671875,-0.00020875083282589912,0.0005046218866482377,0.0005453145131468773
1783246372680594000,0.149593994140625,0.001493541756644845,0.000059607671573758125,0.001724296249449253
1783246372690605800,0.159605712890625,0.00036823865957558155,-0.0014289554674178362,0.000958507414907217
1783246372700617700,0.16961767578125,-0.00020993361249566078,0.0012504507321864367,-0.0009019768331199884
1783246372710628900,0.17962890625,-0.0005263932980597019,-0.0010159204248338938,0.0002106861211359501
1783246372720641000,0.18964111328125,-0.0015088333748281002,0.000158000853843987,-0.0006431234069168568
1783246372730652000,0.19965185546875,-0.00006870413199067116,-0.0003633424639701843,-0.00006873579695820808
1783246372740663800,0.209663818359375,-0.0011574046220630407,0.00013493490405380726,-0.0003947066143155098
1783246372750676000,0.219676025390625,-0.0006668833084404469,0.0014069831231608987,-0.0008162381127476692
1783246372760686800,0.229686767578125,-0.00011587538756430149,-0.0011967895552515984,-0.0004705600440502167
1783246372770698800,0.23969873046875,0.001101818634197116,-0.0003899950534105301,0.0005828519351780415
1783246372780710000,0.2497099609375,-0.0008036729414016008,-0.00038120662793517113,-0.00005018152296543121
1783246372790721800,0.2597216796875,0.0008640291634947062,0.00009427103213965893,-0.0004120785742998123
1783246372800733000,0.26973291015625,-0.0012870063073933125,-0.000608270987868309,-0.0005710693076252937
1783246372810744800,0.279744873046875,-0.0005517315585166216,0.0001465905224904418,-0.00009591644629836082
1783246372820757000,0.289757080078125,-0.0004241662099957466,0.0005356783512979746,-0.0006386684253811836
1783246372830767900,0.299767822265625,-0.0007052086293697357,0.0003892667591571808,0.0006876019760966301
1783246372840779800,0.30977978515625,0.0013124020770192146,-0.001770290546119213,0.00023912591859698296
1783246372850791000,0.319791015625,0.0019979572389274836,-0.0002104160375893116,-0.0005068941973149776
1783246372860802800,0.329802734375,0.0005396101623773575,-0.0005443764384835958,-0.00016041705384850502
1783246372870814700,0.339814697265625,0.00031753373332321644,0.00003264867700636387,0.0006126794032752514
1783246372880825900,0.349825927734375,0.0011266020592302084,-0.00044618756510317326,0.0003804517909884453
1783246372890838000,0.359838134765625,0.001067181583493948,-0.0014301033224910498,-0.0011826117988675833
1783246372900849000,0.369848876953125,-0.0009778595995157957,0.0002586070913821459,0.0011258162558078766
1783246372910860800,0.37986083984375,-0.00032331235706806183,0.0003267634892836213,0.0009942506439983845
1783246372920873000,0.389873046875,0.0003374179359525442,-0.00280724442563951,-0.00012640748172998428
1783246372930883800,0.3998837890625,-0.00048370123840868473,-0.00017708470113575459,0.002435743808746338
1783246372940895700,0.409895751953125,-0.0012115433346480131,0.0014698142185807228,-0.000888946233317256
1783246372950907000,0.419906982421875,0.0019977083429694176,0.00024525076150894165,0.0004366636276245117
1783246372960918800,0.429918701171875,-0.00013601616956293583,-0.0001824528444558382,-0.0013891994021832943
1783246372970930700,0.4399306640625,0.0003597610630095005,-0.0011708340607583523,0.0008007800206542015
1783246372980941800,0.44994189453125,-0.0006535716820508242,-0.0002648266963660717,-0.0004937825724482536
1783246372990954000,0.4599541015625,-0.0005223874468356371,-0.0001412972342222929,0.000234315637499094
1783246373000964900,0.46996484375,-0.0004848369862884283,-0.001039315015077591,-0.0007015191949903965
1783246373010976800,0.479976806640625,-0.0007301520090550184,-0.0010476324241608381,0.00043119117617607117
1783246373020989000,0.489989013671875,0.0007694743108004332,0.0011675849091261625,-0.00008306512609124184
1783246373030999800,0.499999755859375,-0.001382477581501007,-0.0001405572984367609,0.0006349589675664902
1783246373041011700,0.51001171875,0.0013784216716885567,-0.0009967635851353407,-0.0006281784735620022
1783246373051022800,0.52002294921875,0.0009711545426398516,-0.0015272474847733974,0.00019992468878626823
1783246373061035000,0.530034912109375,-0.001281879609450698,0.003606261918321252,-0.0010198033414781094
1783246373071047000,0.540046875,0.0004987150896340609,-0.00101075554266572,0.000148870050907135
1783246373081057800,0.550057861328125,-0.0003148806281387806,-0.0016967859119176865,-0.0003198464401066303
1783246373091070000,0.560070068359375,-0.0004951346199959517,0.000057701836340129375,-0.00032856594771146774
1783246373101080800,0.570080810546875,-0.0011822301894426346,0.0023986203595995903,0.0009438921697437763
1783246373111092700,0.5800927734375,-0.0014041904360055923,-0.0017017782665789127,0.0010231253691017628
1783246373121105000,0.59010498046875,0.0012381977867335081,-0.0041518863290548325,0.00037650996819138527
1783246373131116000,0.600115966796875,-0.0000690319575369358,0.0007159297820180655,0.000022738706320524216
1783246373141128000,0.6101279296875,-0.0007737046107649803,0.0021585640497505665,-0.0010822068434208632
1783246373151138800,0.620138916015625,0.00035132234916090965,-0.00032866490073502064,-0.0018577477894723415
1783246373161151000,0.63015087890625,-0.000756552442908287,-0.0006610273849219084,-0.0013083377853035927
1783246373171163000,0.640162841796875,-0.0009593307040631771,0.001436416758224368,-0.00042195525020360947
1783246373181173800,0.650173828125,-0.0006240387447178364,0.0014878157526254654,0.0009362571872770786
1783246373191186000,0.66018603515625,0.0007338128052651882,-0.001546921906992793,0.0005989009514451027
1783246373201196800,0.67019677734375,-0.00022519147023558617,-0.001297117443755269,-0.0004272148944437504
1783246373211208700,0.680208740234375,0.0006118204910308123,-0.00008408934809267521,-0.0010361261665821075
1783246373221220900,0.690220947265625,-0.0001988457515835762,-0.00009607337415218353,0.0009431354701519012
1783246373231232000,0.70023193359375,0.00008181063458323479,-0.0019634582567960024,0.0013963999226689339
1783246373241244000,0.710243896484375,0.000007774913683533669,-0.0016305630560964346,-0.0003240020014345646
1783246373251254800,0.7202548828125,0.00018069962970912457,0.00010348530486226082,-0.0008583981543779373
1783246373261267000,0.730266845703125,-0.00022995984181761742,0.0003277234500274062,0.0007980880327522755
1783246373271278800,0.74027880859375,-0.0006369010079652071,-0.000692522618919611,0.0005098041146993637
1783246373281289700,0.750289794921875,0.0013849708484485745,-0.0005748108960688114,0.0019130236469209194
1783246373291302000,0.760302001953125,0.001422535046003759,0.0023070925381034613,-0.0010345245245844126
1783246373301313000,0.77031298828125,-0.0011828355491161346,0.0002588552888482809,-0.00006566662341356277
1783246373311325000,0.780324951171875,0.00033782306127250195,-0.001337510533630848,0.00038447603583335876
1783246373321337000,0.790337158203125,-0.000988431042060256,0.0008244436467066407,0.00041084131225943565
1783246373331348000,0.800347900390625,0.0003047976642847061,0.0010686090681701899,0.0017080176621675491
1783246373341359900,0.81035986328125,0.0014784528175368905,-0.0007308889180421829,-0.0009964224882423878
1783246373351370800,0.820370849609375,0.000349982175976038,-0.0009823061991482973,-0.0008887299336493015
1783246373361383000,0.8303828125,0.001492478302679956,0.0017951044719666243,0.0006002434529364109
1783246373371394800,0.840394775390625,-0.000592418946325779,0.00026423088274896145,0.00025760242715477943
1783246373381406000,0.850406005859375,-0.0009058730211108923,-0.000582654494792223,-0.0002212338149547577
1783246373391417900,0.86041796875,-0.00016410020180046558,0.00003336276859045029,0.00008101761341094971
1783246373401429000,0.870428955078125,0.00028171297162771225,0.0003875631373375654,-0.00048650195822119713
1783246373411441000,0.88044091796875,-0.0003512369003146887,0.0013315528631210327,0.00003944616764783859
1783246373421452800,0.890452880859375,-0.00013711885549128056,-0.0006429147906601429,0.0007094978354871273
1783246373431464000,0.9004638671875,0.00034898193553090096,-0.00043437303975224495,-0.00010983366519212723
1783246373441475800,0.910475830078125,-0.0005162791348993778,-0.0017651545349508524,-0.00047575216740369797
1783246373451486700,0.92048681640625,0.000766232842579484,0.00008616119157522917,0.0002235984429717064
1783246373461499000,0.930498779296875,-0.0009642890654504299,0.00012078229337930679,0.00002705724909901619
1783246373471510800,0.9405107421875,0.0012035486288368702,0.000373204005882144,-0.0007953033782541752
1783246373481522000,0.95052197265625,0.0010674612130969763,0.00017373322043567896,0.00018953345715999603
1783246373491533800,0.960533935546875,0.0009845432359725237,0.0009517736034467816,-0.0004621967673301697
1783246373501545000,0.970544921875,-0.0007214776705950499,-0.0007465241942554712,-0.0007535465992987156
1783246373511556900,0.980556884765625,0.0010704342275857925,0.0004626601003110409,-0.0003179660998284817
1783246373521568800,0.99056884765625,-0.0003745970316231251,-0.00004413933493196964,-0.0005467315204441547
1783246373531580000,1.000579833984375,-0.000360946636646986,0.0010586419375613332,0.0009804503060877323
1783246373541591800,1.010591796875,0.0007064484525471926,-0.0015134389977902174,-0.0012571378611028194
1783246373551603200,1.020603271484375,-0.0006380050908774137,-0.0007899173069745302,-0.0012950648088008165
1783246373561615000,1.030614990234375,-0.00023320456966757774,0.0010892091086134315,0.001616302877664566
1783246373571627000,1.040626953125,0.0010185572318732738,-0.000014556804671883583,-0.00007650814950466156
1783246373581638100,1.05063818359375,0.00011947425082325935,-0.0010459991171956062,-0.0011497621890157461
1783246373591650000,1.060650146484375,-0.000781964510679245,0.000149276340380311,-0.0020797387696802616
1783246373601661000,1.070660888671875,0.0002492114435881376,-0.0007194466888904572,-0.0008879741653800011
1783246373611672800,1.0806728515625,0.00014864024706184864,-0.00013469834811985493,0.00015508150681853294
1783246373621685000,1.09068505859375,-0.0016716301906853914,-0.0005845064297318459,-0.0016167194116860628
1783246373631696000,1.10069580078125,0.0007028905674815178,-0.0003530422691255808,0.0006656022742390633
1783246373641707800,1.110707763671875,-0.000567437382414937,0.001062161405570805,-0.0013240452390164137
1783246373651719200,1.12071923828125,-0.00004913751035928726,-0.0003592930734157562,-0.00016581686213612556
1783246373661731000,1.13073095703125,0.0010219858959317207,-0.0009909949731081724,-0.00006887782365083694
1783246373671743000,1.140742919921875,0.0016743645537644625,0.0005130838835611939,-0.00040593044832348824
1783246373681754000,1.150754150390625,0.0018733026226982474,0.0012172237038612366,0.0008859690278768539
1783246373691766000,1.16076611328125,0.0010423827916383743,0.0008240597089752555,-0.00008986471220850945
1783246373701777000,1.17077685546875,0.00124957668595016,-0.0005924757570028305,-0.0006882771849632263
1783246373711788800,1.180788818359375,-0.00024307472631335258,0.0009273608447983861,0.0005038143135607243
1783246373721801000,1.190801025390625,-0.00028648413717746735,0.000026946188881993294,0.0003381660208106041
1783246373731812000,1.20081201171875,0.00044647324830293655,-0.0000643506646156311,-0.0006700321100652218
1783246373741824000,1.210823974609375,0.0006669829599559307,-0.0011442622635513544,0.00009163189679384232
1783246373751835100,1.220835205078125,0.0003165407106280327,0.0001369401579722762,0.0009984718635678291
1783246373761847000,1.230846923828125,0.00041667534969747066,0.000743341981433332,0.0009622531943023205
1783246373771859000,1.24085888671875,0.001304755685850978,-0.0002179797738790512,-0.0007922742515802383
1783246373781869800,1.250869873046875,-0.001106470124796033,-0.00008535431697964668,-0.0023632729426026344
1783246373791882000,1.260882080078125,0.0006564336363226175,0.0005861358949914575,0.0010751308873295784
1783246373801893000,1.27089306640625,-0.00044185412116348743,-0.000670077046379447,-0.0005717677995562553
1783246373811905000,1.280905029296875,0.001005840953439474,-0.001616851193830371,-0.00040380749851465225
1783246373821917200,1.290917236328125,-0.00016115629114210606,0.00023324682842940092,0.0008215131238102913
1783246373831928000,1.300927978515625,-0.0005133484955877066,-0.000044457847252488136,-0.0005957186222076416
1783246373841940000,1.31093994140625,-0.0008715437725186348,-0.001263386569917202,0.0010905950330197811
1783246373851950800,1.320950927734375,-0.002570593263953924,0.00010375375859439373,-0.00010086270049214363
1783246373861963000,1.330962890625,-0.00010184315033257008,-0.00027361628599464893,0.00004028482362627983
1783246373871975000,1.340974853515625,0.00018987338989973068,-0.0005945572629570961,-0.0003850930370390415
1783246373881985800,1.35098583984375,-0.0001739144790917635,0.0008105264278128743,-0.00022556958720088005
1783246373891998000,1.360998046875,0.0009049142245203257,0.0002394515322521329,0.0002401820383965969
1783246373902009000,1.371009033203125,0.0009392690844833851,-0.00046016089618206024,0.00011661136522889137
1783246373912021000,1.38102099609375,-0.0009437075350433588,0.00039966392796486616,0.00027210498228669167
1783246373922033200,1.391033203125,0.00020065275020897388,-0.0018323312979191542,0.0004918156191706657
1783246373932044000,1.4010439453125,-0.0005903751589357853,0.0006084711058065295,-0.0001581059768795967
1783246373942056000,1.411055908203125,0.00019605644047260284,0.00008622533641755581,0.00012631947174668312
1783246373952066800,1.42106689453125,-0.00035048997960984707,0.00005960371345281601,-0.0008329334668815136
1783246373962079000,1.431078857421875,0.00025857496075332165,-0.0002658346202224493,0.00026828376576304436
1783246373972091000,1.4410908203125,0.00003742054104804993,-0.00041525508277118206,0.0024422849528491497
1783246373982102000,1.45110205078125,0.00008029746823012829,0.00009420746937394142,-0.0005516409873962402
1783246373992114200,1.4611142578125,-0.0003614760935306549,-0.0007765707559883595,-0.0018084258772432804
1783246374002125000,1.471125,0.00009285914711654186,0.00020746723748743534,-0.0004020105116069317
1783246374012137000,1.481136962890625,0.0003732067998498678,0.00009796186350286007,-0.0003274860791862011
1783246374022149000,1.491149169921875,0.00023711915127933025,0.000523801427334547,0.0008549573831260204
1783246374032160000,1.501159912109375,-0.00026212609373033047,0.0006364071741700172,0.00045182881876826286
1783246374042172000,1.511171875,-0.0007164613343775272,0.00007714331150054932,-0.001630763290449977
1783246374052183000,1.52118310546875,0.0010126791894435883,0.0018246853724122047,0.00004947977140545845
1783246374062195000,1.53119482421875,-0.0005854838527739048,-0.00013353698886930943,-0.0006472035311162472
1783246374072206800,1.541206787109375,-0.0003978959284722805,-0.0004085623659193516,-0.0006579621694982052
1783246374082218000,1.551218017578125,0.000617300858721137,0.00005882233381271362,-0.00009177392348647118
1783246374092230100,1.561230224609375,-0.0003570849075913429,-0.00018100696615874767,0.00035913940519094467
1783246374102241000,1.571240966796875,0.0002852694597095251,0.0005593517562374473,0.0003258497454226017
1783246374112253000,1.5812529296875,-0.001181071624159813,-0.0003260299563407898,-0.0004493207670748234
1783246374122265000,1.59126513671875,0.00017927098087966442,0.0011538885300979018,0.00018104910850524902
1783246374132276000,1.60127587890625,0.0008335383608937263,-0.0011564891319721937,-0.0009411100763827562
1783246374142288000,1.611287841796875,-0.000551039120182395,-0.0004371693357825279,-0.000573860015720129
1783246374152299000,1.621299072265625,0.000603770837187767,0.00040783791337162256,-0.00018687080591917038
1783246374162311200,1.631311279296875,0.00011667865328490734,-0.00046860845759510994,-0.00014559179544448853
1783246374172323000,1.641322998046875,0.0004816623404622078,-0.0014849959407001734,-0.00019057560712099075
1783246374182334000,1.651333984375,-0.0005010440945625305,0.00038108089938759804,0.0003111637197434902
1783246374192346000,1.66134619140625,-0.0005145350005477667,0.0019459131872281432,0.0003235749900341034
1783246374202357000,1.67135693359375,0.001182963838800788,-0.0010418870951980352,-0.00044954055920243263
1783246374212369000,1.681368896484375,-0.0010484650265425444,0.0014472480397671461,-0.0006579379551112652
1783246374222380800,1.691380859375,0.0011105597950518131,-0.0006973955314606428,0.0006259721703827381
1783246374232392200,1.70139208984375,0.000044895801693201065,0.0009884440805763006,-0.0012173331342637539
1783246374242404000,1.711404052734375,0.0001705968752503395,-0.0006195725873112679,0.0011193244718015194
1783246374252415000,1.7214150390625,-0.00041927886195480824,-0.001447056420147419,0.0012297984212636948
1783246374262427100,1.73142724609375,0.0010787493083626032,-0.00006434321403503418,-0.0007414731662720442
1783246374272439000,1.74143896484375,-0.0005668406374752522,0.0005267065716907382,-0.00019071763381361961
1783246374282450000,1.751449951171875,-0.00027442537248134613,-0.0007843675557523966,0.0005581635050475597
1783246374292462000,1.761462158203125,0.00014642160385847092,0.0009476641425862908,0.0009936843998730183
1783246374302473000,1.771472900390625,0.00013070902787148952,0.0015596585581079125,0.0014386982657015324
1783246374312484900,1.78148486328125,0.000614262418821454,-0.0005028077866882086,0.0009178533218801022
1783246374322496800,1.791496826171875,0.0008478215895593166,-0.0000764357391744852,-0.00024301884695887566
1783246374332508200,1.801508056640625,-0.0011929520405828953,0.00027905486058443785,-0.00017606932669878006
1783246374342520000,1.81152001953125,-0.00015485193580389023,-0.0013870187103748322,0.0007733474485576153
1783246374352531000,1.821531005859375,-0.0005044571589678526,0.00008105626329779625,-0.0005936906673014164
1783246374362543000,1.831543212890625,-0.000650930916890502,0.0000413751695305109,-0.000963869970291853
1783246374372555000,1.841554931640625,-0.0000042458996176719666,0.0008769303094595671,0.0006849276833236217
1783246374382566000,1.85156591796875,-0.000399991637095809,-0.0013414828572422266,0.0007038358598947525
1783246374392577800,1.861577880859375,0.0001504933461546898,0.00034389435313642025,0.0003948146477341652
1783246374402589200,1.871589111328125,0.0013129631988704205,0.0010847857920452952,-0.001213734969496727
1783246374412601000,1.88160107421875,-0.0005391694139689207,0.0005897835362702608,-0.0007625597063452005
1783246374422613000,1.891613037109375,-0.00021373131312429905,-0.000039255013689398766,0.0007069725543260574
1783246374432624000,1.9016240234375,-0.000246196985244751,0.0010706912726163864,-0.00034636538475751877
1783246374442636000,1.911635986328125,0.00006326218135654926,0.0009593712165951729,-0.0004880456253886223
1783246374452647000,1.92164697265625,-0.0005307525862008333,-0.00010836496949195862,0.00023165438324213028
1783246374462658800,1.931658935546875,-0.000612777890637517,-0.00048227282240986824,-0.00031535886228084564
1783246374472671000,1.9416708984375,-0.0002976267132908106,0.001013640547171235,0.0001074732281267643
1783246374482682000,1.95168212890625,-0.0011836602352559566,-0.0005166118498891592,0.00003556767478585243
1783246374492694000,1.961694091796875,-0.0005862799007445574,0.0009705560514703393,0.000733629334717989
1783246374502705200,1.971705078125,-0.0007857505697757006,0.0009420602582395077,-0.0001295008696615696
1783246374512717000,1.981717041015625,0.00028488505631685257,-0.000301513122394681,-0.000036296434700489044
1783246374522729000,1.99172900390625,0.00110540515743196,-0.0005316103342920542,0.00014399969950318336
1783246374532739800,2.00173974609375,0.0001311583910137415,0.0006827993784099817,-0.000631348229944706
1783246374542752000,2.011751953125,0.001694433973170817,0.00040929275564849377,0.00024003814905881882
1783246374552763000,2.021762939453125,-0.001039442839100957,0.0006340439431369305,-0.0016954822931438684
1783246374562774800,2.03177490234375,0.00043568224646151066,-0.00032682460732758045,0.0009234701283276081
1783246374572787000,2.041786865234375,0.0006404160521924496,0.0006112981354817748,0.001196754164993763
1783246374582798000,2.051798095703125,-0.0004821063484996557,-0.00047793472185730934,0.0012707901187241077
1783246374592810000,2.06181005859375,-0.00007482641376554966,0.0010184402344748378,-0.00029732147231698036
1783246374602821000,2.071821044921875,-0.0017014851327985525,0.00018886546604335308,-0.000017955899238586426
1783246374612833000,2.0818330078125,-0.0006266047712415457,0.0005018556257709861,-0.0009539169259369373
1783246374622845000,2.091844970703125,0.00034651439636945724,0.00037721963599324226,-0.0004844018258154392
1783246374632855800,2.101855712890625,0.00004238821566104889,-0.0011364193633198738,0.00016007572412490845
1783246374642868000,2.111867919921875,0.00009937980212271214,0.0002590770600363612,0.00080136489123106
1783246374652879000,2.121879150390625,0.0004478832706809044,-0.0003616951871663332,-0.0012334354687482119
1783246374662891000,2.13189111328125,-0.000022697262465953827,-0.000661567086353898,0.0002613966353237629
1783246374672903200,2.141903076171875,0.0001352678518742323,-0.00009232969023287296,-0.00007505994290113449
1783246374682914000,2.1519140625,-0.00007964926771819592,-0.0006145755760371685,-0.0007562963292002678
1783246374692926000,2.161926025390625,-0.0021820967085659504,0.0000565042719244957,0.0007354090921580791
1783246374702936800,2.171936767578125,-0.0005738139152526855,0.0005404007388278842,-0.0009133541025221348
1783246374712949000,2.181948974609375,0.00003667478449642658,0.00009166891686618328,0.00014599645510315895
1783246374722961000,2.1919609375,-0.0001683887094259262,0.0004993990296497941,-0.0008707984816282988
1783246374732972000,2.201971923828125,0.0007444466464221478,0.0012220590142533183,0.0004837680608034134
1783246374742984000,2.21198388671875,-0.002254006452858448,-0.00001338147558271885,-0.00017270119860768318
1783246374752995000,2.2219951171875,0.0003229037392884493,-0.0013477110769599676,0.0005692699924111366
1783246374763007000,2.232007080078125,-0.0012140062171965837,0.0007782903267070651,0.00005554594099521637
1783246374773019100,2.24201904296875,-0.0005890845786780119,-0.0002779236529022455,-0.0004518907517194748
1783246374783030000,2.252030029296875,-0.000702801626175642,-0.0013871302362531424,-0.00007052626460790634
1783246374793042000,2.2620419921875,-0.0019669823814183474,-0.0008048773743212223,0.0006023659370839596
1783246374803052800,2.272052734375,-0.0013139753136783838,4.6263448894023895e-7,0.002548337448388338
1783246374813065000,2.28206494140625,0.0013673201901838183,0.0003813992952927947,0.00003631226718425751
1783246374823076900,2.292076904296875,0.0006362826097756624,0.0005582331214100122,-0.0003343997523188591
1783246374833088000,2.302087890625,-0.00036089448258280754,-0.00029307929798960686,-0.00048289820551872253
1783246374843100200,2.31210009765625,-0.000504971481859684,0.00021132337860763073,-0.00011751241981983185
1783246374853111000,2.322111083984375,0.0009165056981146336,-0.0004951066803187132,-0.00026352424174547195
1783246374863123000,2.332123046875,-0.00008217967115342617,0.00010010995902121067,-0.0015761961694806814
1783246374873135000,2.342135009765625,-0.0020061128307133913,0.00004689209163188934,-0.0010383378248661757
1783246374883146000,2.35214599609375,-0.0007163442205637693,-0.0003459241706877947,-0.00013952096924185753
1783246374893158000,2.362157958984375,0.0005492302589118481,0.00039850559551268816,-0.0005272976122796535
1783246374903169000,2.3721689453125,0.0002466950099915266,-0.0005200186278671026,0.0007398347370326519
1783246374913181200,2.38218115234375,0.0005489869508892298,0.00006268499419093132,0.0005753887817263603
1783246374923193000,2.392193115234375,0.0008469945751130581,-0.00035889330320060253,0.00007870933040976524
1783246374933204000,2.402203857421875,-0.0013570673763751984,0.0004110640147700906,-0.00026499293744564056
1783246374943216000,2.412216064453125,0.0009678720962256193,-0.0009322343394160271,0.0001491284929215908
1783246374953227000,2.42222705078125,0.0005813036113977432,-0.00006671622395515442,-0.00032830750569701195
1783246374963239000,2.432239013671875,0.0003557340241968632,-0.0008427612483501434,-0.00035360734909772873
1783246374973251000,2.4422509765625,0.0005747221875935793,0.0010184363927692175,0.00022807065397500992
1783246374983262000,2.452261962890625,-0.0006865507457405329,0.0011252291733399034,0.0007074396125972271
1783246374993273900,2.46227392578125,-0.00038577476516366005,0.000009740004315972328,-0.0003618672490119934
1783246375003285000,2.472284912109375,-0.0004654030781239271,0.0018063085153698921,0.0002013915218412876
1783246375013297200,2.482297119140625,-0.0014414486940950155,7.147900760173798e-8,0.00035295914858579636
1783246375023309000,2.49230908203125,-0.001040376489982009,0.000742028234526515,0.0006206068210303783
1783246375033320000,2.50231982421875,-0.0016782130114734173,-0.0002390409354120493,0.0010519921779632568
1783246375043332000,2.51233203125,0.0021231831051409245,-0.00013943854719400406,0.0014216387644410133
1783246375053343000,2.522343017578125,0.0002607470378279686,0.0015731207095086575,-0.0017549232579767704
1783246375063355000,2.53235498046875,0.0008413160685449839,-0.0007411662954837084,0.00002113915979862213
1783246375073366800,2.54236669921875,0.0002857793588191271,0.0006401694845408201,-0.0008372229058295488
1783246375083378200,2.552378173828125,-0.0008798863273113966,0.0006822474533692002,-0.00016264431178569794
1783246375093390000,2.56239013671875,-0.000008111586794257164,-0.0021578329615294933,0.0003936551511287689
1783246375103401000,2.57240087890625,0.000611606054008007,-0.0001822998747229576,-0.0004018307663500309
1783246375113413000,2.5824130859375,-0.00003822869621217251,0.001593344029970467,0.0001786281354725361
1783246375123425000,2.592425048828125,-0.00026299944147467613,-0.00014010746963322163,0.0007730457000434399
1783246375133436000,2.602435791015625,0.0006608383264392614,0.0008425345877185464,-0.0008020307868719101
1783246375143447800,2.61244775390625,-0.0005644820630550385,-0.00024323607794940472,-0.0011967115569859743
1783246375153459200,2.622459228515625,-0.0009087587241083384,0.00021657021716237068,-0.00008934875950217247
1783246375163471000,2.63247119140625,0.0014529324835166335,0.0014719842001795769,0.0005665882490575314
1783246375173483000,2.64248291015625,-0.0010324514005333185,0.0007144607370719314,-0.000459473580121994
1783246375183494100,2.652494140625,0.0001443992368876934,0.0004034035373479128,0.0016633323393762112
1783246375193506000,2.662506103515625,0.0009050995577126741,0.0009067724458873272,-0.0009852983057498932
1783246375203517000,2.672516845703125,-0.000011294148862361908,0.0002979738637804985,0.0006847698241472244
1783246375213529000,2.682529052734375,-0.0005526239983737469,-0.00010434770956635475,-0.0008350836578756571
1783246375223540000,2.6925400390625,-0.00045515247620642185,-0.0009608203545212746,-0.00019778916612267494
1783246375233552000,2.7025517578125,0.0008338794577866793,0.0003167093964293599,-0.00009260233491659164
1783246375243563800,2.712563720703125,-0.000005548819899559021,-0.00016798591241240501,-0.0004779617302119732
1783246375253575200,2.7225751953125,-0.001361059956252575,0.000922704697586596,0.0008376785553991795
1783246375263587000,2.732587158203125,0.000046154484152793884,-0.0000256469938904047,-0.0005743294022977352
1783246375273598000,2.742597900390625,0.0006889405194669962,-0.0011369662825018167,0.0002742786891758442
1783246375283610000,2.752610107421875,0.0004138359799981117,0.0009195267921313643,0.0005552424117922783
1783246375293622000,2.7626220703125,0.0013443703064695,0.0003984529757872224,-0.0008892789483070374
1783246375303633000,2.7726328125,0.0007664642762392759,0.0004144319100305438,-0.001501273363828659
1783246375313644800,2.782644775390625,0.00032632029615342617,0.0007618077797815204,-0.000905962660908699
1783246375323657000,2.792656982421875,0.0010291284415870905,0.0001988154835999012,-0.0003046207129955292
1783246375333668000,2.802668212890625,0.0005823553074151278,0.0008423166582360864,-0.0009187625255435705
1783246375343680000,2.812679931640625,-0.001365214353427291,0.00046840880531817675,-0.00030650198459625244
1783246375353691100,2.822691162109375,0.000584715511649847,0.0005724078509956598,-0.0005812454037368298
1783246375363703000,2.832703125,0.000441437354311347,-0.00015862984582781792,-0.0002744491212069988
1783246375373714000,2.8427138671875,0.0005397696513682604,-0.000737347174435854,0.0011905524879693985
1783246375383725800,2.852725830078125,0.000548291951417923,0.0019505812088027596,-0.0021828734315931797
1783246375393738000,2.862738037109375,0.0007939408533275127,0.0005519889527931809,-0.00018994463607668877
1783246375403748900,2.872748779296875,0.0010426801163703203,0.0010920779313892126,-0.00017476500943303108
1783246375413761000,2.882760986328125,0.0004992561880499125,0.0011753237340599298,0.00009343679994344711
1783246375423772200,2.892772216796875,-0.001065883319824934,0.0008999528363347054,-0.0010586469434201717
1783246375433784000,2.9027841796875,0.00039533129893243313,0.0006462443852797151,-0.001142218941822648
1783246375443796000,2.9127958984375,-0.00028776959516108036,-0.0004709516651928425,-0.000025289133191108704
1783246375453806800,2.922806884765625,-0.0003720340318977833,-0.0008929460309445858,-0.00152392010204494
1783246375463819000,2.932819091796875,0.0008436990901827812,-0.00017442507669329643,-0.001143088098615408
1783246375473830000,2.942829833984375,0.0006833756342530251,-0.00006042909808456898,0.0008257427252829075
1783246375483841800,2.952841796875,-0.0018439642153680325,-0.0006761518307030201,-0.0009455254767090082
1783246375493854000,2.96285400390625,0.00026533682830631733,-0.0002548261545598507,0.0004038461484014988
1783246375503865000,2.972864990234375,-0.00002787727862596512,-0.00039304420351982117,0.0006563137285411358
1783246375513877000,2.982876953125,0.0010243128053843975,-0.0006768396124243736,0.00028734467923641205
1783246375523888000,2.99288818359375,-0.0016937092877924442,-0.0001908126287162304,0.0015171924605965614
1783246375533900000,3.002900146484375,-0.00005372241139411926,-0.00031599286012351513,0.0001200125552713871
1783246375543912000,3.012911865234375,-0.0000622444786131382,0.0008994737872853875,0.0008899327367544174
1783246375553923000,3.022923095703125,0.0012693898752331734,-0.00016210507601499557,-0.000313581433147192
1783246375563935000,3.03293505859375,0.00033035920932888985,-0.00019139982759952545,-0.0003450065851211548
1783246375573946000,3.042946044921875,-0.0007748838979750872,-0.00043933349661529064,-0.0011485437862575054
1783246375583958300,3.052958251953125,-0.0001562314573675394,-0.0004830094985663891,-0.0007253675721585751
1783246375593970200,3.06297021484375,0.001170068746432662,-0.00021900516003370285,0.0002118055708706379
1783246375603981000,3.07298095703125,-0.0013538091443479061,0.0014665094204246998,0.00015348242595791817
1783246375613993000,3.082992919921875,-0.0006279849912971258,0.000931619550101459,-0.00016377540305256844
1783246375624004000,3.093004150390625,-0.0024338746443390846,0.0007273551309481263,-0.00009932694956660271
1783246375634016000,3.10301611328125,-0.000504358671605587,-0.0002710206899791956,-0.00003193272277712822
1783246375644028000,3.11302783203125,-0.0014942553825676441,0.0010211450280621648,-0.00022501172497868538
1783246375654039000,3.1230390625,0.00047763693146407604,0.00040244136471301317,-0.00017136987298727036
1783246375664051000,3.133051025390625,-0.0007783097680658102,-0.000032452866435050964,0.00048430031165480614
1783246375674062000,3.14306201171875,0.0004645551089197397,-0.0006928134243935347,-0.00017458898946642876
1783246375684074000,3.153073974609375,-0.0009381317067891359,-0.00026750657707452774,0.0010848199017345905
1783246375694086100,3.163086181640625,-0.0001206470187753439,0.001043548109009862,-0.0006314991042017937
1783246375704097000,3.173096923828125,0.00030332827009260654,-0.00041080405935645103,-0.0005356250330805779
1783246375714109000,3.18310888671875,0.00027970876544713974,-0.0011120003182440996,0.00006127776578068733
1783246375724120000,3.1931201171875,0.000339896185323596,0.0006400933489203453,-0.00032168440520763397
1783246375734132000,3.203132080078125,0.0005846992135047913,0.0007583887781947851,-0.0016960462089627981
1783246375744144000,3.213143798828125,0.00021372083574533463,-0.000663739163428545,-0.0002821739763021469
1783246375754155000,3.223155029296875,0.00037198676727712154,-0.000933526549488306,0.00014870427548885345
1783246375764167200,3.233167236328125,-0.0009755727369338274,0.001038277754560113,0.0008704210631549358
1783246375774178000,3.243177978515625,0.0011332950089126825,0.0010044826194643974,0.0002616848796606064
1783246375784190000,3.25318994140625,-0.00020760647021234035,0.00026865117251873016,-0.00004111649468541145
1783246375794202000,3.2632021484375,0.0005894780624657869,0.0001765324268490076,0.000027465634047985077
1783246375804213000,3.273212890625,0.0005884128622710705,-0.0003624912351369858,0.0009790132753551006
1783246375814225000,3.283224853515625,-0.0005913516506552696,0.0005617383867502213,-0.0015941166784614325
1783246375824236000,3.293236083984375,-0.0009660583455115557,-0.0007381506729871035,0.0006021922454237938
1783246375834248200,3.303248291015625,0.0007398533634841442,-0.000988237326964736,0.0009978832677006721
1783246375844260000,3.313260009765625,0.0007941820658743382,0.0008296363521367311,0.00181201146915555
1783246375854271000,3.32327099609375,-0.0008928736206144094,0.0009111883118748665,-0.00005297921597957611
1783246375864283100,3.333283203125,-0.00021296879276633263,0.0004070518771186471,-0.001186953391879797
1783246375874294000,3.3432939453125,0.0012245094403624535,-0.00042761536315083504,-0.0005713100545108318
1783246375884306000,3.353305908203125,0.0010016029700636864,-0.0009767592418938875,-0.000293009914457798
1783246375894318000,3.363318115234375,0.00029134470969438553,-0.0004936449695378542,-0.00020848866552114487
1783246375904329000,3.373328857421875,0.0001906773541122675,-0.001626020995900035,0.00040963059291243553
1783246375914340900,3.3833408203125,-0.0006094449199736118,0.0009856923716142774,0.0007252562791109085
1783246375924352000,3.39335205078125,0.0009801958221942186,-0.00024042697623372078,-0.0005253641866147518
1783246375934364200,3.4033642578125,-0.0004575264174491167,0.0013486652169376612,0.0015681600198149681
1783246375944376000,3.4133759765625,-0.000008251052349805832,0.0002855312777683139,0.000021396204829216003
1783246375954387000,3.423386962890625,0.0008010398596525192,-0.00014994386583566666,-0.0011992868967354298
1783246375964399000,3.433399169921875,0.001044985605403781,0.0001893427688628435,0.0001677139662206173
1783246375974410000,3.443409912109375,-0.0018436950631439686,-0.0002823623362928629,0.0008842307142913342
1783246375984422000,3.453421875,-0.0007576579228043556,-0.00013349158689379692,0.0005244375206530094
1783246375994434000,3.46343408203125,-0.00042736856266856194,-0.000546248396858573,0.0005622711032629013
1783246376004445200,3.473445068359375,0.0005934210494160652,-0.00019657518714666367,-0.0006108516827225685
1783246376014457000,3.48345703125,-0.0011569433845579624,-0.0012586463708430529,-0.0012516230344772339
1783246376024468000,3.493468017578125,0.0006012753583490849,-0.00032600737176835537,-0.0016846531070768833
1783246376034480000,3.503480224609375,0.0013818282168358564,-0.0013267896138131618,-0.0006207795813679695
1783246376044492000,3.513491943359375,0.001871317159384489,0.00027909642085433006,-0.0007427521049976349
1783246376054503000,3.5235029296875,-0.0011591229122132063,0.0006980153266340494,0.0015031998045742512
1783246376064515000,3.53351513671875,-0.0010390144307166338,-0.000925181433558464,0.0005583101883530617
1783246376074526000,3.54352587890625,-0.0006318932864814997,0.00039951095823198557,0.0006723753176629543
1783246376084537900,3.553537841796875,0.0008347092662006617,-0.00012752856127917767,0.00023881299421191216
1783246376094550000,3.563550048828125,-0.001200666418299079,-0.00032134586945176125,-0.00017987890169024467
1783246376104561200,3.57356103515625,0.0008923118002712727,-0.00026648491621017456,-0.000775894382968545
1783246376114573000,3.583572998046875,-0.00010143173858523369,0.0010546613484621048,0.0015322049148380756
1783246376124584000,3.593583984375,0.002142813988029957,-0.0013760058209300041,-0.0005871383473277092
1783246376134596000,3.60359619140625,0.0003827889449894428,-0.0006876378320157528,0.0007016453891992569
1783246376144608000,3.61360791015625,0.00010582013055682182,0.0003632454900071025,-0.000903974287211895
1783246376154619000,3.623618896484375,0.0013129457365721464,0.0005485111614689231,0.0007201847620308399
1783246376164631000,3.633631103515625,0.0001472802832722664,-0.000024068402126431465,0.0007859650067985058
1783246376174642200,3.64364208984375,0.0005556375253945589,0.00042506540194153786,-0.0004784250631928444
1783246376184654000,3.653654052734375,-0.0018955357372760773,-0.00004524877294898033,-0.0001556500792503357
1783246376194666200,3.663666259765625,0.0008177720010280609,-0.0011062112171202898,-0.00009179208427667618
1783246376204677000,3.673677001953125,-0.000997971510514617,-0.0005994115490466356,0.0004957010969519615
1783246376214689000,3.68368896484375,-0.001057810615748167,-0.0006670146249234676,-0.0001918724738061428
1783246376224700000,3.693699951171875,-0.001537711825221777,-0.00006673811003565788,-0.000710656400769949
1783246376234712000,3.703712158203125,0.0015416770474985242,0.0013473615981638432,-0.0005069812759757042
1783246376244724000,3.713723876953125,0.0006268813740462065,-0.00037810043431818485,-0.0004835454747080803
1783246376254735000,3.723735107421875,0.0007495081517845392,0.0006818096153438091,-0.000035801902413368225
1783246376264747300,3.733747314453125,0.0003175435122102499,0.00016675435472279787,-0.000328749418258667
1783246376274758100,3.743758056640625,0.00022183265537023544,0.0013354250695556402,-0.0012808118481189013
1783246376284770000,3.75377001953125,-0.0014431755989789963,-0.00013224291615188122,-0.0006267395801842213
1783246376294782000,3.763781982421875,0.00018149567767977715,0.0010537802008911967,-0.00007841689512133598
1783246376304793000,3.77379296875,0.0003580632619559765,-0.0013004541397094727,0.0007940344512462616
1783246376314805000,3.783804931640625,0.001220604171976447,-0.00016128760762512684,0.000946621410548687
1783246376324816000,3.79381591796875,-0.0005333537701517344,0.000983338919468224,-0.00107311992906034
1783246376334828000,3.803828125,0.0004903380759060383,0.00104976212605834,-0.00002965237945318222
1783246376344840000,3.81383984375,0.0019332388183102012,0.00042312033474445343,0.00032960763201117516
1783246376354851000,3.82385107421875,-0.0012755421921610832,0.0010053946170955896,-0.0005049570463597775
1783246376364863000,3.833863037109375,0.0006989254616200924,0.0010131177259609103,-0.00044370396062731743
1783246376374874000,3.8438740234375,0.00008863629773259163,0.0019217644585296512,-0.0003931303508579731
1783246376384886000,3.853885986328125,0.0013978462666273117,0.0005851240130141377,0.00030674831941723824
1783246376394898000,3.86389794921875,-0.00043291179463267326,-0.0017075687646865845,0.0009120414033532143
1783246376404909000,3.873908935546875,-0.0004763214383274317,-0.0007821202743798494,-0.0010800028685480356
1783246376414921000,3.8839208984375,0.00045116152614355087,0.0005645798519253731,-0.0008651462849229574
1783246376424932000,3.89393212890625,0.0006761986296623945,0.0007294295355677605,0.0005537858232855797
1783246376434944300,3.9039443359375,-0.0022006044164299965,-0.0009983975905925035,-0.0003952914848923683
1783246376444956200,3.9139560546875,0.0005709475371986628,0.000006679212674498558,-0.0011577543336898088
1783246376454967000,3.923967041015625,0.00033059436827898026,-0.0011622428428381681,0.0012371926568448544
1783246376464979000,3.93397900390625,0.0010342015884816647,0.000007151160389184952,-0.00001955311745405197
1783246376474990000,3.943989990234375,0.0005595879629254341,0.0003194425953552127,0.0009399582631886005
1783246376485002000,3.954001953125,0.0004067225381731987,0.00014607084449380636,0.000776972621679306
1783246376495014000,3.964013916015625,0.0001074646133929491,0.0001439769985154271,0.0007585985586047173
1783246376505025000,3.97402490234375,0.00042091868817806244,-0.0004693490918725729,0.00016497960314154625
1783246376515037200,3.984037109375,0.0005838542710989714,0.0008980697020888329,0.000029489398002624512
1783246376525048000,3.994048095703125,-0.0008095114026218653,0.0007393453270196915,0.00012190081179141998
1783246376535060000,4.00406005859375,0.001063204137608409,0.0009066020138561726,0.0011942870914936066
1783246376545072000,4.014072021484375,-0.0016548181883990765,-0.0016971705481410027,-0.001565546728670597
1783246376555082800,4.024082763671875,0.0006981680635362864,-0.0007819111924618483,-0.00010630488395690918
1783246376565095000,4.034094970703125,0.0006318553350865841,-0.00019548321142792702,0.0010697473771870136
1783246376575105800,4.044105712890625,0.00030132243409752846,-0.0008372010197490454,0.0009712106548249722
1783246376585117700,4.05411767578125,0.0010320937726646662,-0.00007340637966990471,0.0013001109473407269
1783246376595129900,4.0641298828125,0.000677427276968956,0.00022399669978767633,0.00012086518108844757
1783246376605141000,4.07414111328125,0.0005775587633252144,0.0004833885468542576,-0.000805914867669344
1783246376615153000,4.08415283203125,0.0008529007900506258,0.0002460285322740674,-0.00027902424335479736
1783246376625163800,4.094163818359375,0.00010002520866692066,0.0009749357122927904,-0.0007104561664164066
1783246376635176000,4.104176025390625,0.001543260645121336,-0.00047119613736867905,-0.00045620324090123177
1783246376645187800,4.114187744140625,0.000006084097549319267,0.000011901138350367546,-0.0008546123281121254
1783246376655198700,4.12419873046875,-0.0007332386448979378,-0.00011763349175453186,0.00037512369453907013
1783246376665211000,4.1342109375,0.0005277679301798344,-0.0006880827713757753,0.00034609483554959297
1783246376675222000,4.144221923828125,-0.0006203369703143835,0.0013329829089343548,-0.0010405236389487982
1783246376685234000,4.15423388671875,0.0009200354106724262,-0.0004460087511688471,-0.0002695382572710514
1783246376695246000,4.16424609375,-0.0008182639721781015,-0.000006346497684717178,0.00023604976013302803
1783246376705257000,4.174257080078125,0.00007229694165289402,-0.0002138067502528429,-0.0011972635984420776
1783246376715268900,4.184268798828125,0.0009275935590267181,0.0014100255211815238,-0.0012606596574187279
1783246376725279700,4.19427978515625,0.00043730554170906544,-0.0006643105298280716,0.00038410862907767296
1783246376735292000,4.2042919921875,-0.0007463963702321053,0.00046018476132303476,0.000020959414541721344
1783246376745303800,4.2143037109375,0.00026267534121870995,0.0010103938402608037,-0.0005612079985439777
1783246376755315000,4.22431494140625,-0.0004270381759852171,-0.0008702550549060106,0.0002481434494256973
1783246376765327000,4.2343271484375,-0.0005809690337628126,0.001472261268645525,-0.0003699762746691704
1783246376775338000,4.244337890625,0.0003997709136456251,-0.0004973672330379486,0.0008374294266104698
1783246376785350000,4.254349853515625,0.0006240091752260923,0.000941805075854063,-0.0000893506221473217
1783246376795361800,4.26436181640625,0.0003456540871411562,0.00044939666986465454,-0.0003133593127131462
1783246376805373000,4.274373046875,-0.0000514232087880373,0.0005053230561316013,0.0010794741101562977
1783246376815384800,4.284384765625,0.00007284106686711311,-0.000252940459176898,-0.0021362961269915104
1783246376825395700,4.294395751953125,0.00004967162385582924,-0.0007328421343117952,0.0009015714749693871
1783246376835408000,4.304407958984375,-0.0006675929762423038,-0.0007954479660838842,0.0010956241749227047
1783246376845419800,4.314419677734375,-0.00022257864475250244,0.00031748705077916384,-0.0002506035380065441
1783246376855431000,4.324430908203125,-0.0008033877238631248,-0.000006131595000624657,0.0010789488442242146
1783246376865442800,4.33444287109375,-0.0014223065227270126,0.0010154570918530226,0.00016654981300234795
1783246376875454000,4.344453857421875,-0.0015899178106337786,-0.00001942971721291542,0.000006784684956073761
1783246376885465900,4.3544658203125,0.0006412786897271872,0.0002490169135853648,-0.0012952350080013275
1783246376895476700,4.364476806640625,0.00018949341028928757,0.0006526265060529113,0.0024610362015664577
1783246376905489000,4.374489013671875,-0.0004171747714281082,-0.0003748210147023201,0.0002743145450949669
1783246376915500800,4.384500732421875,0.00017050397582352161,0.0006426484324038029,-0.0002869381569325924
1783246376925512000,4.394511962890625,-0.0018300628289580345,-0.0007666964083909988,-0.000627023633569479
1783246376935524000,4.404524169921875,-0.0000845370814204216,0.0003318791277706623,0.00017560692504048347
1783246376945535000,4.414534912109375,-0.001853142399340868,-0.00006333389319479465,-0.000010814517736434937
1783246376955547000,4.424546875,-0.000741634052246809,-0.0003575084265321493,0.00009796861559152603
1783246376965558800,4.434558837890625,0.0001268228515982628,0.0003373102517798543,-0.00010762736201286316
1783246376975570000,4.44456982421875,0.0010965163819491863,0.0005525025771930814,0.0004246765747666359
1783246376985581800,4.454581787109375,0.0011649597436189651,-0.00008026440627872944,0.0004755426198244095
1783246376995593000,4.464593017578125,0.0009117214940488338,0.0003998482134193182,-0.00018337974324822426
1783246377005604900,4.47460498046875,0.00041024829261004925,0.00018865952733904123,0.00039319461211562157
1783246377015616800,4.48461669921875,0.0011665001511573792,-0.0006980858743190765,0.00020236242562532425
1783246377025628000,4.4946279296875,-0.00017520040273666382,-0.0001137882936745882,-0.0005475836805999279
1783246377035639800,4.504639892578125,0.00020897132344543934,0.00028666912112385035,0.0004541589878499508
1783246377045651000,4.51465087890625,-0.00006639957427978516,-0.00009789131581783295,-0.00007980503141880035
1783246377055662800,4.524662841796875,-0.0003157609608024359,0.0016575115732848644,0.0009154221042990685
1783246377065674800,4.5346748046875,0.0005670767277479172,0.00001966743730008602,0.0009628264233469963
1783246377075686000,4.544685791015625,-0.0004332477692514658,0.0005525047890841961,0.0000037834979593753815
1783246377085697800,4.55469775390625,0.0011859540827572346,0.0011999192647635937,-0.00034588947892189026
1783246377095709000,4.564708984375,-0.0007603294216096401,0.00008262402843683958,-0.002211717888712883
1783246377105720800,4.574720947265625,-0.0006048011127859354,-0.000359460711479187,-0.0005845264531672001
1783246377115733000,4.58473291015625,0.0002723284997045994,-0.0008520688861608505,0.0001872866414487362
1783246377125743900,4.594743896484375,-0.0005961284041404724,-0.000010243616998195648,0.0004858267493546009
1783246377135755800,4.604755859375,0.0011480103712528944,0.000044649699702858925,0.0016964850947260857
1783246377145767000,4.614766845703125,0.00004466273821890354,-0.00028664758428931236,0.0012093931436538696
1783246377155778800,4.62477880859375,0.000021659769117832184,-0.00044685136526823044,0.00020413612946867943
1783246377165790700,4.634790771484375,-0.00022734585218131542,-0.001603195909410715,-0.000742883887141943
1783246377175801900,4.6448017578125,0.0005029335152357817,-0.0001481084618717432,0.0012928806245326996
1783246377185814000,4.65481396484375,0.0000653762836009264,0.000290247960947454,0.0016478803008794785
1783246377195825000,4.664824951171875,0.00016254629008471966,0.002111858921125531,0.0004704301245510578
1783246377205836800,4.6748369140625,0.001820630393922329,-0.0009715489577502012,0.0008699041791260242
1783246377215849000,4.684848876953125,-0.000276756240054965,0.0007515907054767013,0.00036981701850891113
1783246377225859800,4.69485986328125,0.002034601289778948,0.00007328356150537729,0.0016473354771733284
1783246377235871700,4.704871826171875,0.0021388549357652664,0.0001417376333847642,0.00042564934119582176
1783246377245882600,4.714882568359375,0.00047677638940513134,-0.0008417677599936724,0.0006911666132509708
1783246377255894800,4.724894775390625,-0.00010844925418496132,0.0005803595995530486,0.0007704272866249084
1783246377265906700,4.73490673828125,0.0013408430386334658,-0.00044389208778738976,0.00010730000212788582
1783246377275917800,4.744917724609375,-0.00023514986969530582,-0.00032662483863532543,-0.0012859057169407606
1783246377285930000,4.754929931640625,0.0007060111965984106,0.00034342636354267597,-0.00044567836448550224
1783246377295940900,4.76494091796875,0.000910797854885459,-0.00013193232007324696,0.00045695342123508453
1783246377305952800,4.774952880859375,0.0006748416926711798,0.00019323977176100016,-0.00017022108659148216
1783246377315965000,4.78496484375,-0.0007252821233123541,0.0011679029557853937,0.0009604142978787422
1783246377325975800,4.794975830078125,-0.0012110425159335136,-0.0000012249220162630081,-0.00006144028156995773
1783246377335987700,4.80498779296875,0.0001278368290513754,0.00005912850610911846,0.00024057738482952118
1783246377345998800,4.814998779296875,-0.000977907795459032,-0.0002545919269323349,0.0004799957387149334
1783246377356011000,4.825010986328125,0.0010880311019718647,-0.0005412972532212734,0.00039451755583286285
1783246377366023000,4.83502294921875,0.0018824520520865917,-0.00005154171958565712,-0.0003319927491247654
1783246377376033800,4.84503369140625,0.00006977375596761703,0.0005140382563695312,0.000545174814760685
1783246377386046000,4.8550458984375,0.00026631494984030724,-0.0009104865603148937,-0.0005280794575810432
1783246377396056800,4.865056884765625,-0.0017987764440476894,-0.00030868593603372574,-0.0013725832104682922
1783246377406068700,4.87506884765625,0.0006555928848683834,0.00030943367164582014,-0.00011024484410881996
1783246377416081000,4.885080810546875,-0.0011419439688324928,0.001738369232043624,0.0009188484400510788
1783246377426092000,4.895092041015625,-0.0002196913119405508,0.00034686760045588017,-0.001157618360593915
1783246377436104000,4.90510400390625,-0.00015860842540860176,-0.000764491967856884,-0.00048592546954751015
1783246377446114800,4.91511474609375,0.0006746947765350342,0.00031701778061687946,0.00028186384588479996
1783246377456127000,4.925126953125,0.0017319887410849333,-0.00008601043373346329,-0.00043003959581255913
1783246377466139000,4.935138916015625,0.00004247925244271755,-0.0002609801013022661,-0.00031738821417093277
1783246377476149800,4.945149658203125,0.0008265338838100433,0.0005150357028469443,0.0005181916058063507
1783246377486162000,4.955161865234375,0.00039590056985616684,-0.0002405031118541956,-0.00001630512997508049
1783246377496172800,4.9651728515625,0.0008587322663515806,0.0000036745332181453705,-0.0009260345250368118
1783246377506184700,4.975184814453125,0.00028269062750041485,-0.00027116364799439907,0.00029369350522756577
1783246377516196900,4.98519677734375,-0.0013552734162658453,-0.0006693941541016102,0.002014242112636566
1783246377526208000,4.9952080078125,-0.0018242562655359507,-0.0010294534731656313,0.00007679266855120659
1783246377536220000,5.005219970703125,0.0005383181851357222,-0.0003890329971909523,0.0007330519147217274
1783246377546230800,5.015230712890625,-0.0009306815918534994,0.0014530755579471588,0.0005785883404314518
1783246377556243000,5.025242919921875,-0.00040457514114677906,-0.0013847234658896923,0.0006583509966731071
1783246377566254800,5.0352548828125,0.00045722397044301033,-0.001562089892104268,0.001511894166469574
1783246377576265700,5.045265625,0.0007824364583939314,0.0014386381953954697,0.0005230261012911797
1783246377586278000,5.05527783203125,0.00009986828081309795,0.0006463477620854974,-0.0012951139360666275
1783246377596289000,5.0652890625,-0.0003895584959536791,0.0009314980125054717,0.000989589374512434
1783246377606301000,5.075301025390625,-0.0002089962363243103,-0.00015773484483361244,0.0003765295259654522
1783246377616313000,5.08531298828125,-0.00011127954348921776,-0.0007019236218184233,0.000011158641427755356
1783246377626324000,5.095323974609375,-0.00004736357368528843,-0.00018873251974582672,-0.00004822947084903717
1783246377636335900,5.1053359375,0.0007147742435336113,0.0011144208256155252,-0.00044153444468975067
1783246377646346800,5.1153466796875,0.000039130449295043945,-0.0008983961306512356,-0.0016764423344284296
1783246377656359000,5.12535888671875,0.0014025860000401735,0.0011943131685256958,-0.000868598697707057
1783246377666370800,5.135370849609375,0.00032214168459177017,0.0011751384008675814,0.00047842832282185555
1783246377676382000,5.1453818359375,-0.0010104773100465536,-0.00022457679733633995,-0.00017190026119351387
1783246377686393900,5.155393798828125,0.000172765227034688,-0.0007151311729103327,0.0011293203569948673
1783246377696405000,5.165405029296875,-0.000419016694650054,0.0003274092450737953,-0.0013180931564420462
1783246377706417000,5.1754169921875,0.0009980513714253902,-0.0000978976022452116,-0.000050162430852651596
1783246377716427800,5.185427734375,-0.00033284607343375683,-0.0005286943633109331,0.001330158207565546
1783246377726440000,5.19543994140625,-0.00028304499574005604,-0.0006000672001391649,-0.000012607313692569733
1783246377736451800,5.205451904296875,-0.0008549708873033524,-0.000018622027710080147,-0.0011188560165464878
1783246377746462700,5.215462646484375,0.0012204304803162813,0.001156897284090519,-0.0003073909319937229
1783246377756475000,5.225474853515625,-0.0009633018635213375,-0.0000068838708102703094,0.000561869703233242
1783246377766486800,5.23548681640625,-0.0015164404176175594,-0.0007882553618401289,-0.00005704909563064575
1783246377776498000,5.245497802734375,-0.0009385452140122652,0.00024060579016804695,0.0005041379481554031
1783246377786510000,5.255510009765625,0.00015841098502278328,0.00043501658365130424,0.0002857586368918419
1783246377796521000,5.26552099609375,-0.0014301997143775225,-0.0001299681607633829,0.0007169605232775211
1783246377806532900,5.275532958984375,-0.0009452381636947393,-0.00008123228326439857,0.0014930055476725101
1783246377816543700,5.285543701171875,-0.0008734839502722025,-0.0007986824493855238,0.0009295018389821053
1783246377826556000,5.295555908203125,0.0005622261669486761,-0.00035260291770100594,0.0005500013940036297
1783246377836567800,5.30556787109375,-0.0005216447170823812,0.00041628372855484486,0.00026058172807097435
1783246377846579000,5.315578857421875,-0.00045639718882739544,0.000005624257028102875,-0.0003029434010386467
1783246377856591000,5.325591064453125,0.00013877847231924534,0.0010967068374156952,0.0008202623575925827
1783246377866602000,5.33560205078125,0.00017579644918441772,0.0024123084731400013,0.00025274232029914856
1783246377876614000,5.34561376953125,-0.0000824939925223589,-0.0006958302110433578,-0.0008907308802008629
1783246377886626000,5.3556259765625,0.0001465377863496542,0.0000815466046333313,-0.0002595619298517704
1783246377896637000,5.365636962890625,0.0004936922341585159,-0.00012155063450336456,0.0011890833266079426
1783246377906648800,5.37564892578125,0.0005754511803388596,0.002243336522951722,0.0007078503258526325
1783246377916659700,5.38565966796875,-0.0012082403991371393,-0.00017770519480109215,0.0003294544294476509
1783246377926672000,5.395671875,-0.00006494531407952309,-0.0010679999832063913,-0.00021143397316336632
1783246377936683800,5.405683837890625,0.0008119165431708097,0.002106274710968137,0.000151781365275383
1783246377946695000,5.41569482421875,-0.000834715785458684,-0.0003249251749366522,-0.0008863189723342657
1783246377956707000,5.42570703125,-0.00010974216274917126,-0.00009068590588867664,-0.0016839895397424698
1783246377966718000,5.435718017578125,0.0005696301814168692,0.00022809451911598444,0.0005362876690924168
1783246377976729900,5.445729736328125,-0.0010654062498360872,-0.0006089727394282818,-0.0001623048447072506
1783246377986742000,5.455741943359375,0.00015698466449975967,-0.0000827321782708168,0.0011847224086523056
1783246377996753000,5.4657529296875,-0.00027510756626725197,-0.0007501677609980106,0.00004011252894997597
1783246378006764800,5.475764892578125,0.0009307716973125935,-0.0002622767351567745,0.0004875236190855503
1783246378016776000,5.48577587890625,-0.0023026946000754833,0.00011719204485416412,-0.0008412729948759079
1783246378026788000,5.4957880859375,-0.0002416740171611309,-0.000009574461728334427,0.000009607058018445969
1783246378036800000,5.505800048828125,-0.00043632928282022476,-0.00014312821440398693,0.00018289731815457344
1783246378046811000,5.515810791015625,0.000031321775168180466,0.00042465771548449993,-0.00013561686500906944
1783246378056823000,5.525822998046875,0.00007908768020570278,-0.0005502875428646803,0.0001299162395298481
1783246378066834000,5.535833984375,-0.001875672722235322,-0.0007020877674221992,0.00015255296602845192
1783246378076845800,5.545845703125,-0.001683859620243311,-0.0010548983700573444,0.00032746652141213417
1783246378086857700,5.555857666015625,0.0003212341107428074,0.00014645361807197332,0.0009972518309950829
1783246378096868900,5.565868896484375,-0.00020865071564912796,0.0011600891593843699,-0.0001875585876405239
1783246378106881000,5.575881103515625,-0.0006794976070523262,-0.00005431240424513817,0.0008276384323835373
1783246378116892000,5.585891845703125,-0.0001765077468007803,-0.0013571202289313078,0.0010178270749747753
1783246378126904000,5.595904052734375,-0.001035909866914153,0.00025782070588320494,-0.000039448030292987823
1783246378136916000,5.605916015625,0.00013233651407063007,0.0012012001825496554,0.0012807659804821014
1783246378146926800,5.6159267578125,-0.00008444488048553467,-0.0009847225155681372,-0.001178130740299821
1783246378156938800,5.625938720703125,0.00024545611813664436,-0.0006006155163049698,-0.0007307650521397591
1783246378166950000,5.635949951171875,0.0005266859661787748,0.0021347173023968935,0.0018746056593954563
1783246378176961800,5.6459619140625,-0.0012211757712066174,0.0014328204561024904,0.0003934502601623535
1783246378186973700,5.6559736328125,-0.0007183712441474199,-0.0009533718694001436,0.0012411344796419144
1783246378196985000,5.665985107421875,0.00010380498133599758,-0.005372434854507446,-0.0010789891239255667
1783246378206997000,5.6759970703125,-0.0009814328514039516,0.0052762143313884735,0.001009195577353239
1783246378217007900,5.6860078125,0.0004670436028391123,0.0016064610099419951,0.002956354059278965
1783246378227020000,5.69602001953125,-0.001754032913595438,-0.006124429404735565,0.0008742948994040489
1783246378237032000,5.706031982421875,-0.00012441095896065235,-0.0019602070096880198,-0.0011411579325795174
1783246378247042800,5.716042724609375,0.00024257274344563484,0.007922783493995667,-0.0002953377552330494
1783246378257054700,5.7260546875,-0.0005809019785374403,-0.0006562019698321819,0.0005606464110314846
1783246378267066000,5.736066162109375,-0.00042137852869927883,-0.0050104702822864056,-0.0004351092502474785
1783246378277078000,5.746078125,-0.0013166971039026976,-0.0004712357185781002,0.00031106360256671906
1783246378287090000,5.75608984375,0.00008332682773470879,0.00185024191159755,-0.0003014635294675827
1783246378297101000,5.76610107421875,-0.00021263537928462029,0.0005475250072777271,-0.001174406846985221
1783246378307113000,5.776113037109375,0.0007535594049841166,-0.0030679823830723763,0.00022455165162682533
1783246378317123800,5.786123779296875,0.0005155035760253668,-0.002455264562740922,-0.00033841701224446297
1783246378327135700,5.7961357421875,-0.0004972966853529215,0.006445818580687046,0.0019854572601616383
1783246378337148000,5.80614794921875,-0.0001298834104090929,-0.0023557853419333696,-0.0004940773360431194
1783246378347158800,5.81615869140625,0.0010256620589643717,-0.0028700416442006826,-0.0015729237347841263
1783246378357171000,5.8261708984375,-0.0015863403677940369,0.002153848297894001,0.0003101392649114132
1783246378367182000,5.83618212890625,0.0003071669489145279,0.0033855601213872433,-0.00028108246624469757
1783246378377194000,5.846194091796875,-0.00009821238927543163,-0.0020176232792437077,-0.001052990322932601
1783246378387204900,5.856204833984375,-0.00011632195673882961,-0.002808316145092249,-0.0015922803431749344
1783246378397216800,5.866216796875,-0.0005617712158709764,0.003520486643537879,0.00179250817745924
1783246378407229000,5.87622900390625,-0.0006664334796369076,0.002567607443779707,0.0008015460334718227
1783246378417239800,5.88623974609375,0.0012001172872260213,-0.004000531509518623,-0.00032123224809765816
1783246378427251700,5.896251708984375,-0.0010068442206829786,-0.0007647909224033356,-0.001417655497789383
1783246378437263000,5.90626318359375,-0.0008998310659080744,0.004914050456136465,0.0018176394514739513
1783246378447275000,5.91627490234375,0.0010306944604963064,-0.00221762852743268,-0.0004846635274589062
1783246378457287000,5.926286865234375,-0.00021049217320978642,-0.002799549838528037,0.0004947944544255733
1783246378467297800,5.9362978515625,-0.0012219606433063745,0.003784583415836096,0.0020596678368747234
1783246378477310000,5.94631005859375,-0.0008903415873646736,0.0029595396481454372,0.0002869279123842716
1783246378487320800,5.95632080078125,-0.00040990719571709633,-0.002174768829718232,-0.0004750024527311325
1783246378497332700,5.966332763671875,0.00003806035965681076,-0.0012935937847942114,0.0009224368259310722
1783246378507345000,5.976344970703125,0.0012239658972248435,0.001608985592611134,-0.0009098181035369635
1783246378517356000,5.98635595703125,-0.000779035035520792,-0.0006793239153921604,0.00020994339138269424
1783246378527368000,5.996367919921875,0.0006079392042011023,0.00466564018279314,0.0014744126237928867
1783246378537379000,6.006379150390625,0.0023065516725182533,-0.005341880954802036,-0.001932153245434165
1783246378547391000,6.016390869140625,-0.001476735109463334,-0.0027703328523784876,-0.0022796958219259977
1783246378557403000,6.02640283203125,-0.001279135700315237,0.008627849631011486,0.0023178965784609318
1783246378567413800,6.036413818359375,-0.0008788628038018942,-0.00188657664693892,-0.0009050609078258276
1783246378577426000,6.046426025390625,-0.0003284995909780264,-0.009257715195417404,-0.0022097015753388405
1783246378587436800,6.056436767578125,-0.00034048384986817837,0.008861101232469082,0.002165872137993574
1783246378597448700,6.06644873046875,-0.0007279899436980486,-0.00027474970556795597,0.00013024965301156044
1783246378607460900,6.0764609375,-0.0001857704482972622,-0.005927042569965124,-0.002042623469606042
1783246378617472000,6.086471923828125,0.001019095303490758,-0.00005710800178349018,0.0016340692527592182
1783246378627484000,6.09648388671875,-0.0006067643407732248,0.0027570542879402637,0.001710768323391676
1783246378637494800,6.106494873046875,0.0003450631629675627,-0.0015677961055189371,-0.001418339554220438
1783246378647507000,6.1165068359375,-0.00023630494251847267,0.00007031438872218132,0.00010179262608289719
1783246378657518800,6.126518798828125,-0.000044916290789842606,0.00019331066869199276,-0.00007286760956048965
1783246378667529700,6.13652978515625,0.0009170174598693848,0.0011211559176445007,0.0004746783524751663
1783246378677542000,6.1465419921875,-0.00007058144547045231,0.0018362764967605472,-0.00042876647785305977
1783246378687553000,6.156552978515625,0.0009824326261878014,-0.0009464605245739222,-0.00007350090891122818
1783246378697565000,6.16656494140625,-0.0006264960393309593,-0.0019501443020999432,-0.002248066011816263
1783246378707576800,6.176576904296875,-0.0007391476538032293,-0.00008113798685371876,-0.0011298046447336674
1783246378717588000,6.186587890625,-0.0006534287240356207,0.0024228887632489204,0.0015317052602767944
1783246378727599900,6.196599853515625,-0.0010478429030627012,-0.0037284805439412594,-0.0016009712126106024
1783246378737610800,6.20661083984375,0.0006252580787986517,-0.00017250538803637028,0.000026084482669830322
1783246378747623000,6.216622802734375,-0.0006005950272083282,0.0038760320749133825,0.0009435438551008701
1783246378757634800,6.226634765625,-0.00037285988219082355,0.001444177352823317,-0.001890804385766387
1783246378767646000,6.23664599609375,-0.00030015548691153526,-0.00415005860850215,0.00008552754297852516
1783246378777658000,6.246658203125,0.0005020569078624249,0.002014338970184326,0.002584713976830244
1783246378787669000,6.2566689453125,-0.00020501227118074894,0.00027822423726320267,0.00026723090559244156
1783246378797681000,6.266680908203125,-0.0006819949485361576,-0.0006693266332149506,-0.0001608068123459816
1783246378807692800,6.27669287109375,-0.000435918802395463,-0.0013809232041239738,-0.0006646770052611828
1783246378817704000,6.286703857421875,-0.001366728451102972,0.0018032733350992203,0.0003557894378900528
1783246378827715800,6.2967158203125,-0.0008024047128856182,0.0021689252462238073,-0.0001523415558040142
1783246378837726700,6.306726806640625,-0.00030658417381346226,-0.0017752363346517086,-0.0010247973259538412
1783246378847739000,6.31673876953125,-0.0011976780369877815,-0.0017621868755668402,0.001170978881418705
1783246378857750800,6.326750732421875,-0.000030757393687963486,0.0005207402864471078,-0.0002670041285455227
1783246378867762000,6.336761962890625,-0.0005402201786637306,0.0004301929147914052,0.000597191508859396
1783246378877773800,6.34677392578125,-0.0007903687655925751,0.00046376476529985666,0.0006015324033796787
1783246378887785000,6.356784912109375,-0.001846045721322298,-0.0022377457935363054,-0.0010429697576910257
1783246378897796900,6.366796875,-0.000607658876106143,-0.0001267394982278347,-0.0016478935722261667
1783246378907807700,6.376807861328125,0.0005361689254641533,0.0018099112203344703,0.00003229454159736633
1783246378917820000,6.38681982421875,-0.0007856700103729963,0.0007620451506227255,-0.00077218865044415
1783246378927831800,6.396831787109375,-0.00016435468569397926,-0.0004156045615673065,-0.0008193266112357378
1783246378937843000,6.406843017578125,0.00027188099920749664,0.001515447162091732,0.00012565171346068382
1783246378947854800,6.416854736328125,-0.0009161550551652908,0.0019660538528114557,0.0006668060086667538
1783246378957866000,6.426865966796875,0.0011205242481082678,-0.0008460392709821463,0.0001907404512166977
1783246378967878000,6.4368779296875,-0.0005516745150089264,-0.0015227484982460737,-0.0017746721860021353
1783246378977889800,6.446889892578125,0.0002840505912899971,0.0025088901165872812,0.0005065477453172207
1783246378987901000,6.45690087890625,-0.00011355942115187645,0.0015600058250129223,0.0007110787555575371
1783246378997912800,6.466912841796875,0.0002206356730312109,-0.002891428070142865,0.000545126385986805
1783246379007924000,6.476924072265625,-0.00070960633456707,-0.0008581045549362898,0.0002279439941048622
1783246379017936000,6.486935791015625,-0.0005893029738217592,0.0012406713794916868,-0.0002909954637289047
1783246379027947800,6.49694775390625,0.00019632955081760883,-0.0012845380697399378,-0.0008755591697990894
1783246379037959000,6.506958984375,-0.0008455340284854174,-0.0012781464029103518,-0.0008089409675449133
1783246379047970800,6.516970703125,0.0010426472872495651,0.0002965807216241956,0.0008957483805716038
1783246379057982000,6.52698193359375,-0.000010356074199080467,0.002569695934653282,-0.0000661918893456459
1783246379067993900,6.536993896484375,0.0008162891026586294,0.00007964042015373707,0.0009237052872776985
1783246379078005800,6.547005859375,0.0006619682535529137,-0.00144508620724082,0.000559639185667038
1783246379088017000,6.557016845703125,-0.000890122028067708,0.0008705322397872806,0.0005031800828874111
1783246379098028800,6.56702880859375,-0.00012641819193959236,-0.0002018362283706665,0.000010014977306127548
1783246379108040000,6.5770400390625,-0.0005072501953691244,0.0007710164645686746,0.0007040351629257202
1783246379118051800,6.5870517578125,-0.0010657261591404676,-0.001600082265213132,0.00035540107637643814
1783246379128064000,6.59706396484375,0.000052268849685788155,0.00017518096137791872,0.0006624632515013218
1783246379138075000,6.607074951171875,0.0003544772043824196,0.0013295381795614958,0.0021513132378458977
1783246379148086800,6.617086669921875,0.001048496924340725,0.0001787863438948989,-0.0013291717041283846
1783246379158098000,6.627097900390625,-0.00022284500300884247,-0.00004961085505783558,-0.0001924135722219944
1783246379168109800,6.63710986328125,-0.0002707818057388067,0.0016518827760592103,0.0010797781869769096
1783246379178121700,6.647121826171875,0.0014911992475390434,0.0007712718797847629,-0.00027695298194885254
1783246379188132900,6.6571328125,0.001406777068041265,-0.00013393652625381947,-0.0013480761554092169
1783246379198145000,6.66714501953125,0.001019440358504653,-0.00007684901356697083,-0.0009380071423947811
1783246379208156000,6.677156005859375,0.0003022509627044201,0.0007615141803398728,0.0007080929353833199
1783246379218167800,6.687167724609375,-0.0007963029202073812,0.0010350208031013608,-0.0007033827714622021
1783246379228180000,6.697179931640625,-0.0010876527521759272,-0.0006462328601628542,0.000632725190371275
1783246379238190800,6.70719091796875,0.00022009620442986488,0.0009244600078091025,0.00042462488636374474
1783246379248202800,6.71720263671875,-0.001377001404762268,0.0006959608290344477,-0.0005479613319039345
1783246379258213600,6.727213623046875,0.0005521932616829872,0.00041370908729732037,0.00015993835404515266
1783246379268225800,6.737225830078125,-0.0013136174529790878,0.0009394170483574271,-0.0009724379051476717
1783246379278237700,6.74723779296875,0.0003143148496747017,-0.00036722980439662933,-0.0012113479897379875
1783246379288248800,6.757248779296875,0.0005990068893879652,-0.0006631067954003811,0.0005199732258915901
1783246379298261000,6.767260986328125,0.0003695108462125063,-0.0003366225864738226,0.00015946058556437492
1783246379308271900,6.77727197265625,0.00102331698872149,-0.0009619328193366528,0.0005996813997626305
1783246379318283800,6.78728369140625,0.00008731894195079803,0.000506123760715127,-0.00027130870148539543
1783246379328296000,6.7972958984375,0.0005744111258536577,0.0006270313169807196,-0.00038342783227562904
1783246379338306800,6.807306884765625,0.000163534888997674,0.0013217251980677247,-0.00025983480736613274
1783246379348318700,6.817318603515625,0.0008833874017000198,-0.00040373695082962513,0.0008051632903516293
1783246379358329900,6.827329833984375,-0.0012672427110373974,-0.00008893804624676704,0.00018815044313669205
1783246379368342000,6.837342041015625,0.0006297270301729441,-0.0008175787515938282,-0.0002715112641453743
1783246379378353000,6.847352783203125,-0.0007897308096289635,-0.00039750966243445873,0.0010905065573751926
1783246379388364800,6.85736474609375,0.000678469892591238,0.00018971727695316076,-0.0005468046292662621
1783246379398377000,6.867376953125,-0.0007601818069815636,0.0005102794384583831,-0.0011536006350070238
1783246379408387800,6.877387939453125,-0.00011782720685005188,0.0004977625794708729,0.0009553567506372929
1783246379418399700,6.887399658203125,-0.0008712355047464371,-0.0010238760150969028,-0.00144503777846694
1783246379428411000,6.897410888671875,-0.00006403145380318165,-0.00043158908374607563,0.0012671253643929958
1783246379438423000,6.907423095703125,0.0012989494716748595,0.0003875150578096509,0.00042942073196172714
1783246379448435000,6.91743505859375,-0.00030267564579844475,0.0007670155027881265,-0.0010161430109292269
1783246379458445800,6.92744580078125,-0.0012529378291219473,-0.0007517843041568995,0.00022518541663885117
1783246379468458000,6.9374580078125,0.000027509871870279312,0.00014942942652851343,-0.000756455585360527
1783246379478468900,6.94746875,-0.0005288554821163416,-0.000456963200122118,-0.001528321299701929
1783246379488480800,6.957480712890625,-0.0007277936674654484,0.0014402728993445635,-0.0008145940955728292
1783246379498493000,6.967492919921875,-0.0004298700951039791,-0.0009656727779656649,-0.0004440583288669586
1783246379508503800,6.97750390625,-0.00012973183766007423,0.000289741437882185,0.0005913786590099335
1783246379518515700,6.987515625,0.0004567306023091078,0.0008555401582270861,-0.0005436078645288944
1783246379528526800,6.99752685546875,-0.0006498128641396761,-0.0004704478196799755,-0.0004519950598478317
1783246379538539000,7.0075390625,0.00011055427603423595,0.0003555447328835726,0.00026498595252633095
1783246379548551000,7.017551025390625,0.0014977948740124702,-0.00009213271550834179,0.00004234537482261658
1783246379558561800,7.027561767578125,0.0004517568740993738,0.0007087417179718614,-0.000791024649515748
1783246379568574000,7.037573974609375,0.0003087450750172138,-0.00022150040604174137,0.0005863620899617672
1783246379578584800,7.047584716796875,-0.0006420535501092672,0.0003089901292696595,-0.00029781274497509
1783246379588596700,7.0575966796875,0.001113768550567329,0.0011574733071029186,-0.0008099386468529701
1783246379598609000,7.06760888671875,0.0006531868129968643,0.001005506725050509,0.00009188568219542503
1783246379608620000,7.0776201171875,0.0006899384316056967,-0.0004456497263163328,-0.0004002666100859642
1783246379618632000,7.0876318359375,0.000636175973340869,-0.0007896628230810165,-0.0013933023437857628
1783246379628642800,7.097642822265625,0.0005240568425506353,-0.0009422618895769119,-0.00045187491923570633
1783246379638655000,7.107655029296875,0.0006749657914042473,0.0005595870316028595,-0.00021830061450600624
1783246379648667000,7.1176669921875,0.000602527754381299,-0.000500883674249053,0.0007225940935313702
1783246379658677800,7.127677734375,-0.0005109314806759357,-0.0005927484016865492,0.0002482021227478981
1783246379668690000,7.13768994140625,-0.0005878969095647335,-0.0007256402168422937,0.0012266477569937706
1783246379678700800,7.14770068359375,-0.0005570100620388985,-0.00009483331814408302,-0.0001212763600051403
1783246379688713000,7.157712890625,-0.0011426392011344433,-0.0008876563515514135,-0.0003625587560236454
1783246379698724900,7.167724853515625,0.0007263883017003536,0.0002018660306930542,-0.0001895250752568245
1783246379708736000,7.177736083984375,-0.0000690980814397335,0.00045965996105223894,0.0002581523731350899
1783246379718748000,7.187747802734375,0.0003748941235244274,0.0004914536839351058,-0.0005236263386905193
1783246379728758800,7.1977587890625,-0.00042831525206565857,-0.0010193577036261559,0.0007983664982020855
1783246379738771000,7.20777099609375,0.0004741267766803503,0.000001575332134962082,0.0008086226880550385
1783246379748781800,7.21778173828125,-0.0013900860212743282,-0.0006527632940560579,-0.00031123682856559753
1783246379758793700,7.227793701171875,-0.0013257407117635012,0.0007359522860497236,-0.0019790383521467447
1783246379768806000,7.237805908203125,0.00039572687819600105,-0.000060332706198096275,-0.0002573048695921898
1783246379778817000,7.247817138671875,-0.0009503632318228483,-0.0007548837456852198,-0.0010406216606497765
1783246379788829000,7.257828857421875,0.00023314566351473331,0.001276042778044939,0.002800988033413887
1783246379798839800,7.26783984375,-0.005631651729345322,0.11771521717309952,0.034496475011110306
1783246379808852000,7.27785205078125,-0.0009175895247608423,0.006065388675779104,-0.0055460138246417046
1783246379818863900,7.28786376953125,0.005229450296610594,-0.10380809754133224,-0.015416563488543034
1783246379828874800,7.297874755859375,-0.0023198125418275595,0.05515385791659355,0.01000144425779581
1783246379838887000,7.307886962890625,-0.0006043501198291779,0.024001838639378548,-0.0003941967152059078
1783246379848898000,7.31789794921875,0.002937654033303261,-0.06518236547708511,-0.011691592633724213
1783246379858910000,7.327909912109375,0.0010300916619598866,-0.005567217245697975,-0.0075434474274516106
1783246379868921900,7.337921875,-0.001613095635548234,-0.0006920346058905125,-0.002218190347775817
1783246379878933000,7.34793310546875,0.0018230179557576776,-0.03641102835536003,-0.005075365304946899
1783246379888945000,7.35794482421875,-0.0012441445142030716,0.016216497868299484,0.0026246323250234127
1783246379898955800,7.367955810546875,-0.0001701002474874258,0.0016181552782654762,-0.000009306240826845169
