time,seconds_elapsed,z,y,x
1783245572767422700,0.066422607421875,-1.2616071701049805,-0.13031470775604248,-0.06848396360874176
1783245572777434600,0.0764345703125,-1.2767831087112427,-0.16958577930927277,-0.13578037917613983
1783245572787446800,0.08644677734375,-1.3032536506652832,-0.18884816765785217,-0.18071909248828888
1783245572797457700,0.096457763671875,-1.3390101194381714,-0.18810750544071198,-0.20254456996917725
1783245572807469600,0.106469482421875,-1.385368824005127,-0.1663912981748581,-0.21328696608543396
1783245572817481700,0.116481689453125,-1.4385830163955688,-0.126595139503479,-0.20917987823486328
1783245572827494400,0.126494384765625,-1.477097988128662,-0.09076123684644699,-0.18570038676261902
1783245572837505300,0.13650537109375,-1.4881497621536255,-0.09079280495643616,-0.13783614337444305
1783245572847517200,0.14651708984375,-1.4764609336853027,-0.13869641721248627,-0.06519309431314468
1783245572857529000,0.156529052734375,-1.4536991119384766,-0.2338046133518219,0.01624317467212677
1783245572867541200,0.166541259765625,-1.4307712316513062,-0.333023339509964,0.0851130485534668
1783245572877552400,0.176552490234375,-1.420623779296875,-0.39555370807647705,0.12663067877292633
1783245572887564300,0.186564208984375,-1.428083062171936,-0.4206390976905823,0.1352393478155136
1783245572897576400,0.196576416015625,-1.4427356719970703,-0.4202747344970703,0.11559213697910309
1783245572907588400,0.20658837890625,-1.4594862461090088,-0.40854138135910034,0.07607321441173553
1783245572917599200,0.21659912109375,-1.4818897247314453,-0.3987422287464142,0.029978692531585693
1783245572927611400,0.226611328125,-1.503574252128601,-0.3907569944858551,-0.01406066957861185
1783245572937623300,0.236623291015625,-1.5272880792617798,-0.3733556270599365,-0.056364644318819046
1783245572947635200,0.24663525390625,-1.548119068145752,-0.336490273475647,-0.08883124589920044
1783245572957646300,0.256646240234375,-1.5688647031784058,-0.29130250215530396,-0.10435521602630615
1783245572967658200,0.266658203125,-1.5836321115493774,-0.24171815812587738,-0.10782477259635925
1783245572977670100,0.276670166015625,-1.5842843055725098,-0.19422385096549988,-0.09833593666553497
1783245572987682300,0.286682373046875,-1.5714918375015259,-0.1561073660850525,-0.07461569458246231
1783245572997693200,0.296693115234375,-1.5446808338165283,-0.1312427520751953,-0.04173004627227783
1783245573007705000,0.306705078125,-1.5133857727050781,-0.11210901290178299,-0.0000997781753540039
1783245573017717200,0.31671728515625,-1.473576545715332,-0.10627011209726334,0.05159710347652435
1783245573027729200,0.326729248046875,-1.422927737236023,-0.11902638524770737,0.10254603624343872
1783245573037740300,0.336740234375,-1.3637678623199463,-0.14163704216480255,0.1459493637084961
1783245573047752400,0.34675244140625,-1.3128807544708252,-0.1779974400997162,0.18079949915409088
1783245573057764400,0.356764404296875,-1.2841038703918457,-0.23512883484363556,0.20403078198432922
1783245573067776300,0.3667763671875,-1.2757699489593506,-0.3250422179698944,0.20509472489356995
1783245573077787400,0.376787353515625,-1.2765939235687256,-0.4634700119495392,0.17580513656139374
1783245573087799300,0.38679931640625,-1.2890292406082153,-0.6263790726661682,0.13051967322826385
1783245573097811200,0.396811279296875,-1.3128365278244019,-0.7705801725387573,0.09352996945381165
1783245573107822000,0.406822021484375,-1.3208521604537964,-0.86003178358078,0.07952813804149628
1783245573117834200,0.416834228515625,-1.298896312713623,-0.90608149766922,0.08711908012628555
1783245573127846100,0.42684619140625,-1.2565842866897583,-0.892183244228363,0.11434777081012726
1783245573137858300,0.4368583984375,-1.2035046815872192,-0.8388360142707825,0.14467944204807281
1783245573147869400,0.446869384765625,-1.1573723554611206,-0.7790639996528625,0.18118338286876678
1783245573157881300,0.45688134765625,-1.1193225383758545,-0.7048254609107971,0.205710306763649
1783245573167893200,0.466893310546875,-1.0844311714172363,-0.6035851240158081,0.21258817613124847
1783245573177905400,0.476905517578125,-1.0665342807769775,-0.5082295536994934,0.20358802378177643
1783245573187916300,0.486916259765625,-1.0618175268173218,-0.44228890538215637,0.19192923605442047
1783245573197928200,0.49692822265625,-1.065556526184082,-0.42163196206092834,0.1865500509738922
1783245573207940400,0.5069404296875,-1.0713931322097778,-0.42932504415512085,0.18593592941761017
1783245573217952300,0.5169521484375,-1.0693856477737427,-0.45037567615509033,0.18836088478565216
1783245573227963100,0.526963134765625,-1.0631705522537231,-0.4873369038105011,0.189924955368042
1783245573237975300,0.536975341796875,-1.0483583211898804,-0.5328329801559448,0.19217506051063538
1783245573247987200,0.5469873046875,-1.0261470079421997,-0.5677614212036133,0.20217390358448029
1783245573257999000,0.5569990234375,-0.9851764440536499,-0.5675541162490845,0.2105330228805542
1783245573268010500,0.567010498046875,-0.9204517602920532,-0.5189897418022156,0.21649716794490814
1783245573278022400,0.5770224609375,-0.8513851761817932,-0.46259889006614685,0.18631890416145325
1783245573288034300,0.587034423828125,-0.7560794353485107,-0.3733294606208801,0.13886696100234985
1783245573298046500,0.59704638671875,-0.6587059497833252,-0.3033156394958496,0.06992744654417038
1783245573308057300,0.607057373046875,-0.5933445692062378,-0.2861531674861908,-0.023914363235235214
1783245573318069200,0.6170693359375,-0.638122022151947,-0.3391479551792145,-0.0984383299946785
1783245573328081400,0.627081298828125,-0.6514599323272705,-0.44572100043296814,-0.1855735033750534
1783245573338093300,0.63709326171875,-0.6432657837867737,-0.5139761567115784,-0.27165862917900085
1783245573348104200,0.647104248046875,-0.6746320128440857,-0.5534535050392151,-0.3198261857032776
1783245573358116400,0.657116455078125,-0.7539682388305664,-0.5730785727500916,-0.3219555616378784
1783245573368128300,0.667128173828125,-0.8595660924911499,-0.5382242202758789,-0.2914615869522095
1783245573378140200,0.67714013671875,-0.982555091381073,-0.4131486713886261,-0.24036064743995667
1783245573388151300,0.6871513671875,-1.1071715354919434,-0.21970435976982117,-0.16921482980251312
1783245573398163200,0.6971630859375,-1.2073988914489746,-0.04447272792458534,-0.06693307310342789
1783245573408175000,0.707175048828125,-1.2668417692184448,0.05562058463692665,0.0629463642835617
1783245573418187300,0.717187255859375,-1.270697832107544,0.07568574696779251,0.20379821956157684
1783245573428198400,0.727198486328125,-1.2293483018875122,0.05065363645553589,0.34943264722824097
1783245573438210300,0.737210205078125,-1.1791728734970093,0.01885089837014675,0.4719637632369995
1783245573448222500,0.747222412109375,-1.1467763185501099,-0.01106039434671402,0.5596278309822083
1783245573458233300,0.7572333984375,-1.156496286392212,-0.026859385892748833,0.603884220123291
1783245573468245200,0.767245361328125,-1.2078031301498413,-0.028513208031654358,0.605596125125885
1783245573478257200,0.777257080078125,-1.2742727994918823,-0.022737735882401466,0.5793642401695251
1783245573488269300,0.787269287109375,-1.3314311504364014,-0.025246700271964073,0.5363448262214661
1783245573498280200,0.7972802734375,-1.3705873489379883,-0.049106989055871964,0.500145673751831
1783245573508292000,0.8072919921875,-1.3708117008209229,-0.11733637750148773,0.481691837310791
1783245573518304300,0.81730419921875,-1.3491322994232178,-0.21777990460395813,0.47001248598098755
1783245573528316200,0.827316162109375,-1.3257877826690674,-0.31508779525756836,0.449135422706604
1783245573538327300,0.837327392578125,-1.3073228597640991,-0.3758174180984497,0.40591317415237427
1783245573548339500,0.84733935546875,-1.2823306322097778,-0.37389275431632996,0.3399951457977295
1783245573558351400,0.857351318359375,-1.2454185485839844,-0.29067984223365784,0.2574164867401123
1783245573568363300,0.86736328125,-1.1916929483413696,-0.13168062269687653,0.17357008159160614
1783245573578374400,0.87737451171875,-1.1120012998580933,0.04736632481217384,0.10740017890930176
1783245573588386300,0.88738623046875,-1.0108182430267334,0.17781008780002594,0.05764833837747574
1783245573598398200,0.897398193359375,-0.8993224501609802,0.20893296599388123,0.023011464625597
1783245573608410400,0.907410400390625,-0.7913307547569275,0.11519581824541092,0.006659123580902815
1783245573618421200,0.917421142578125,-0.7147282958030701,-0.07354274392127991,0.014724772423505783
1783245573628433200,0.92743310546875,-0.6735147833824158,-0.29432785511016846,0.04335162416100502
1783245573638445300,0.9374453125,-0.6593191027641296,-0.47832420468330383,0.08076716959476471
1783245573648457200,0.947457275390625,-0.671465277671814,-0.6235190033912659,0.10238032042980194
1783245573658468400,0.95746826171875,-0.7063775658607483,-0.6670517921447754,0.10081058740615845
1783245573668480500,0.96748046875,-0.7108748555183411,-0.6403932571411133,0.08998909592628479
1783245573678492400,0.977492431640625,-0.670118510723114,-0.6071794629096985,0.10059294104576111
1783245573688504300,0.98750439453125,-0.6072742938995361,-0.5322681665420532,0.12729139626026154
1783245573698515200,0.99751513671875,-0.5579670667648315,-0.4391705393791199,0.15245367586612701
1783245573708527400,1.00752734375,-0.5433263182640076,-0.3723595440387726,0.17690469324588776
1783245573718539300,1.017539306640625,-0.5684120059013367,-0.34647220373153687,0.19894728064537048
1783245573728550100,1.027550048828125,-0.6326852440834045,-0.3557266891002655,0.2302231788635254
1783245573738562300,1.037562255859375,-0.7067130208015442,-0.39555028080940247,0.2844463288784027
1783245573748574200,1.04757421875,-0.7737996578216553,-0.44118595123291016,0.36401891708374023
1783245573758586000,1.057586181640625,-0.8321930170059204,-0.486998051404953,0.460684210062027
1783245573768597200,1.06759716796875,-0.8797935247421265,-0.5221278667449951,0.5510132908821106
1783245573778609200,1.077609130859375,-0.9129083752632141,-0.53658127784729,0.60845547914505
1783245573788621300,1.087621337890625,-0.9388987421989441,-0.5503056049346924,0.6134036183357239
1783245573798633200,1.09763330078125,-0.9777372479438782,-0.5619301795959473,0.5787762999534607
1783245573808644400,1.107644287109375,-1.0267664194107056,-0.5503105521202087,0.5125661492347717
1783245573818656300,1.11765625,-1.0714198350906372,-0.4863223135471344,0.4192197918891907
1783245573828668400,1.12766845703125,-1.1082699298858643,-0.3456951379776001,0.2822670042514801
1783245573838680300,1.137680419921875,-1.1394177675247192,-0.15653707087039948,0.10434327274560928
1783245573848691200,1.147691162109375,-1.1632331609725952,0.03758819028735161,-0.10463231801986694
1783245573858703000,1.157703125,-1.191715955734253,0.16525478661060333,-0.3112536668777466
1783245573868715300,1.16771533203125,-1.2130966186523438,0.20602990686893463,-0.4655415117740631
1783245573878727200,1.17772705078125,-1.2154675722122192,0.12069399654865265,-0.537165641784668
1783245573888738000,1.187738037109375,-1.2035810947418213,-0.03239275515079498,-0.5179871320724487
1783245573898750200,1.197750244140625,-1.1880472898483276,-0.22933445870876312,-0.4223784804344177
1783245573908762000,1.20776220703125,-1.1838057041168213,-0.4374016523361206,-0.279167503118515
1783245573918774000,1.21777392578125,-1.1979143619537354,-0.6177366971969604,-0.12150943279266357
1783245573928785400,1.227785400390625,-1.2473090887069702,-0.7169772982597351,0.01566866785287857
1783245573938797300,1.23779736328125,-1.3276512622833252,-0.7333323359489441,0.11338583379983902
1783245573948809200,1.247809326171875,-1.4363194704055786,-0.7046048641204834,0.1835707724094391
1783245573958821400,1.2578212890625,-1.547188401222229,-0.6436372399330139,0.2370138317346573
1783245573968832300,1.267832275390625,-1.6423460245132446,-0.5625567436218262,0.28039994835853577
1783245573978844200,1.27784423828125,-1.7182743549346924,-0.47586774826049805,0.3255574107170105
1783245573988856300,1.287856201171875,-1.774584412574768,-0.4175548851490021,0.36011165380477905
1783245573998867200,1.2978671875,-1.810364842414856,-0.39731186628341675,0.37480613589286804
1783245574008879000,1.307879150390625,-1.8345696926116943,-0.37931156158447266,0.36236491799354553
1783245574018891300,1.317891357421875,-1.8393018245697021,-0.357233464717865,0.3198719024658203
1783245574028903200,1.327903076171875,-1.819578766822815,-0.33675506711006165,0.2554364502429962
1783245574038914300,1.337914306640625,-1.7855876684188843,-0.32203567028045654,0.1844119429588318
1783245574048926500,1.347926513671875,-1.748098611831665,-0.316173791885376,0.11028365045785904
1783245574058938400,1.3579384765625,-1.7165416479110718,-0.31106677651405334,0.04047374427318573
1783245574068950300,1.3679501953125,-1.696045160293579,-0.3081474006175995,-0.020994676277041435
1783245574078961200,1.377961181640625,-1.6813312768936157,-0.31964531540870667,-0.060478564351797104
1783245574088973300,1.387973388671875,-1.665457010269165,-0.320962518453598,-0.07975265383720398
1783245574098985200,1.397985107421875,-1.636472463607788,-0.33073699474334717,-0.08115428686141968
1783245574108997400,1.407997314453125,-1.6058235168457031,-0.3329756557941437,-0.06764566898345947
1783245574119008300,1.41800830078125,-1.5627933740615845,-0.30970728397369385,-0.04865313321352005
1783245574129020200,1.428020263671875,-1.5181797742843628,-0.2855529487133026,-0.025414656847715378
1783245574139032000,1.438031982421875,-1.4662703275680542,-0.27464157342910767,0.0006492352113127708
1783245574149044200,1.448044189453125,-1.4086949825286865,-0.28147339820861816,0.026705067604780197
1783245574159055400,1.458055419921875,-1.341301441192627,-0.32622256875038147,0.04894179850816727
1783245574169067300,1.4680673828125,-1.2713572978973389,-0.3903765082359314,0.07056240737438202
1783245574179079200,1.4780791015625,-1.2086565494537354,-0.43426966667175293,0.07515029609203339
1783245574189091300,1.48809130859375,-1.1559661626815796,-0.4455881118774414,0.0666995570063591
1783245574199102200,1.498102294921875,-1.109999179840088,-0.452483206987381,0.05096946284174919
1783245574209114400,1.5081142578125,-1.066856026649475,-0.46995195746421814,0.03349406644701958
1783245574219126300,1.518126220703125,-1.0194752216339111,-0.4758232533931732,0.009908379055559635
1783245574229138200,1.52813818359375,-0.9743390083312988,-0.4785868227481842,-0.007866622880101204
1783245574239149300,1.5381494140625,-0.9392880797386169,-0.49868854880332947,-0.0008568461053073406
1783245574249161200,1.5481611328125,-0.902760922908783,-0.5438762307167053,0.0280070248991251
1783245574259173000,1.558173095703125,-0.8595386147499084,-0.5861806273460388,0.06345628947019577
1783245574269184300,1.568184326171875,-0.8227854371070862,-0.609330952167511,0.09295292943716049
1783245574279196200,1.578196044921875,-0.7980251908302307,-0.5861871242523193,0.10634317994117737
1783245574289208000,1.5882080078125,-0.7752450704574585,-0.5430644154548645,0.09912148118019104
1783245574299220200,1.59822021484375,-0.7525916695594788,-0.4989362955093384,0.07406173646450043
1783245574309231400,1.6082314453125,-0.7186816334724426,-0.45353442430496216,0.03592340275645256
1783245574319243300,1.6182431640625,-0.6733251810073853,-0.4041924476623535,-0.011852242052555084
1783245574329255400,1.62825537109375,-0.6099289059638977,-0.35512131452560425,-0.051866237074136734
1783245574339267300,1.638267333984375,-0.5482600331306458,-0.3289361894130707,-0.07382246851921082
1783245574349278200,1.6482783203125,-0.4957137405872345,-0.33928126096725464,-0.07544460147619247
1783245574359290000,1.6582900390625,-0.44682973623275757,-0.38613203167915344,-0.07178647816181183
1783245574369302300,1.66830224609375,-0.40595340728759766,-0.4236812889575958,-0.08169636875391006
1783245574379314200,1.678314208984375,-0.378267765045166,-0.4092074930667877,-0.10281191021203995
1783245574389325000,1.688324951171875,-0.36167359352111816,-0.3753454089164734,-0.13045525550842285
1783245574399337200,1.698337158203125,-0.3516726493835449,-0.36028075218200684,-0.16043013334274292
1783245574409349000,1.70834912109375,-0.3464432656764984,-0.3540542721748352,-0.18648862838745117
1783245574419361300,1.718361328125,-0.35013657808303833,-0.3525404632091522,-0.20063181221485138
1783245574429372400,1.728372314453125,-0.35069531202316284,-0.3775416910648346,-0.20031888782978058
1783245574439384300,1.73838427734375,-0.3384591042995453,-0.4131675660610199,-0.1833348423242569
1783245574449396200,1.748396240234375,-0.31710559129714966,-0.430602490901947,-0.16236671805381775
1783245574459407400,1.758407470703125,-0.29643514752388,-0.42359450459480286,-0.14796213805675507
1783245574469419300,1.768419189453125,-0.2774995267391205,-0.4222642481327057,-0.13229848444461823
1783245574479431200,1.77843115234375,-0.2720123529434204,-0.43419361114501953,-0.11302972584962845
1783245574489443300,1.788443359375,-0.2731681764125824,-0.4696245789527893,-0.1052626222372055
1783245574499454200,1.7984541015625,-0.2829059362411499,-0.5640059113502502,-0.10420667380094528
1783245574509466000,1.808466064453125,-0.30063194036483765,-0.6827634572982788,-0.10448736697435379
1783245574519478300,1.818478271484375,-0.3334193229675293,-0.777656614780426,-0.1096605658531189
1783245574529490200,1.828490234375,-0.38251176476478577,-0.8609445691108704,-0.11286062002182007
1783245574539501300,1.838501220703125,-0.43152862787246704,-0.9244182109832764,-0.11519128084182739
1783245574549513200,1.84851318359375,-0.462841272354126,-0.9665443301200867,-0.1225368082523346
1783245574559525400,1.858525390625,-0.4940517544746399,-0.9732542037963867,-0.13646967709064484
1783245574569537300,1.868537353515625,-0.5221020579338074,-0.8916645646095276,-0.150188148021698
1783245574579548200,1.878548095703125,-0.5661187171936035,-0.739783763885498,-0.14344389736652374
1783245574589560300,1.888560302734375,-0.616511881351471,-0.5584555268287659,-0.11335762590169907
1783245574599572200,1.898572265625,-0.6512331962585449,-0.37363168597221375,-0.04924948140978813
1783245574609584400,1.90858447265625,-0.6736500859260559,-0.22426989674568176,0.03943910822272301
1783245574619595300,1.91859521484375,-0.6847796440124512,-0.14571155607700348,0.14422544836997986
1783245574629607200,1.928607177734375,-0.701455295085907,-0.14118871092796326,0.24893775582313538
1783245574639619300,1.938619384765625,-0.7190595865249634,-0.1783013939857483,0.336089551448822
1783245574649631200,1.94863134765625,-0.7357584238052368,-0.24739177525043488,0.397813618183136
1783245574659642000,1.95864208984375,-0.7570990920066833,-0.3406950831413269,0.43645980954170227
1783245574669654000,1.968654052734375,-0.7800760269165039,-0.4424994885921478,0.4577437937259674
1783245574679666200,1.978666259765625,-0.8071579337120056,-0.5315120220184326,0.47556737065315247
1783245574689677300,1.98867724609375,-0.8265271186828613,-0.5907878875732422,0.4928765594959259
1783245574699689200,1.998689208984375,-0.8442872166633606,-0.6133854389190674,0.5087329149246216
1783245574709701400,2.008701416015625,-0.8562296032905579,-0.5841143727302551,0.5138192772865295
1783245574719713300,2.01871337890625,-0.8583179712295532,-0.5382058620452881,0.4904475808143616
1783245574729724200,2.02872412109375,-0.8546577095985413,-0.47587916254997253,0.43997374176979065
1783245574739736300,2.038736328125,-0.8481259942054749,-0.4096331298351288,0.374702125787735
1783245574749748200,2.048748291015625,-0.8540078401565552,-0.3578069508075714,0.31466275453567505
1783245574759760100,2.058760009765625,-0.873290479183197,-0.306219220161438,0.2603413462638855
1783245574769771300,2.068771240234375,-0.9014211893081665,-0.23325417935848236,0.19785131514072418
1783245574779783200,2.078783203125,-0.9336322546005249,-0.12357351928949356,0.11408418416976929
1783245574789795000,2.088795166015625,-0.9821931719779968,0.05612754076719284,-0.003001692472025752
1783245574799807200,2.09880712890625,-1.0466381311416626,0.2775525450706482,-0.14852067828178406
1783245574809818400,2.108818359375,-1.1031568050384521,0.45199811458587646,-0.2803175747394562
1783245574819830300,2.118830322265625,-1.117757797241211,0.5675370097160339,-0.3508240282535553
1783245574829842400,2.128842529296875,-1.0792759656906128,0.5731413960456848,-0.3259575664997101
1783245574839854300,2.138854248046875,-0.9835196733474731,0.4425881803035736,-0.20696787536144257
1783245574849865200,2.148865234375,-0.8537792563438416,0.2515673339366913,-0.03326026350259781
1783245574859877400,2.15887744140625,-0.7196393013000488,0.08021163940429688,0.1392149031162262
1783245574869889300,2.16888916015625,-0.6046831607818604,-0.04029293358325958,0.2570973336696625
1783245574879901200,2.178901123046875,-0.5220242142677307,-0.10074259340763092,0.291113942861557
1783245574889912000,2.188912109375,-0.47115734219551086,-0.08643769472837448,0.2438950389623642
1783245574899924200,2.19892431640625,-0.4298345148563385,0.00471994373947382,0.1389719545841217
1783245574909936000,2.20893603515625,-0.390574187040329,0.16815760731697083,-0.0066544776782393456
1783245574919947300,2.218947265625,-0.3518119156360626,0.33812862634658813,-0.15914708375930786
1783245574929959400,2.22895947265625,-0.30903249979019165,0.401838093996048,-0.28367143869400024
1783245574939971300,2.238971435546875,-0.24370062351226807,0.34769976139068604,-0.3468503952026367
1783245574949983200,2.248983154296875,-0.16211068630218506,0.23976796865463257,-0.3533676862716675
1783245574959994400,2.258994384765625,-0.09442666918039322,0.08987630903720856,-0.2932578921318054
1783245574970006300,2.26900634765625,-0.049097802489995956,-0.08497992157936096,-0.17347849905490875
1783245574980018200,2.27901806640625,-0.02960612066090107,-0.2340235710144043,-0.030554693192243576
1783245574990030300,2.2890302734375,-0.02569020725786686,-0.3047803044319153,0.10511072725057602
1783245575000041200,2.299041259765625,-0.03246001526713371,-0.25448286533355713,0.19138795137405396
1783245575010053000,2.30905322265625,-0.04443731531500816,-0.11421577632427216,0.21049827337265015
1783245575020065300,2.319065185546875,-0.06335002183914185,0.05712854489684105,0.1692781299352646
1783245575030077200,2.3290771484375,-0.06612168252468109,0.22894001007080078,0.08074946701526642
1783245575040088000,2.339088134765625,-0.05261674150824547,0.3333503305912018,-0.021922053769230843
1783245575050100200,2.349100341796875,-0.03406915441155434,0.35545510053634644,-0.1004437655210495
1783245575060112100,2.359112060546875,-0.006085187196731567,0.31277039647102356,-0.12490209192037582
1783245575070124000,2.3691240234375,0.04318489134311676,0.24072152376174927,-0.1202508881688118
1783245575080135400,2.379135498046875,0.0887623280286789,0.16763874888420105,-0.11321088671684265
1783245575090147300,2.389147216796875,0.13011722266674042,0.10947131365537643,-0.12927907705307007
1783245575100159200,2.3991591796875,0.160138338804245,0.10202839225530624,-0.18177935481071472
1783245575110171400,2.40917138671875,0.18539203703403473,0.13844579458236694,-0.2626161575317383
1783245575120182300,2.419182373046875,0.209378182888031,0.2052030712366104,-0.3618128299713135
1783245575130194200,2.429194091796875,0.22220289707183838,0.27246546745300293,-0.44513940811157227
1783245575140206300,2.439206298828125,0.23026348650455475,0.29425248503685,-0.46910592913627625
1783245575150217200,2.44921728515625,0.2321612536907196,0.23643632233142853,-0.42081722617149353
1783245575160229000,2.45922900390625,0.23441587388515472,0.13583418726921082,-0.3137149512767792
1783245575170241300,2.4692412109375,0.2337128072977066,0.033407680690288544,-0.18882973492145538
1783245575180253200,2.479253173828125,0.21605035662651062,-0.051200076937675476,-0.08067478239536285
1783245575190264300,2.489264404296875,0.1845611333847046,-0.08303870260715485,-0.017730971798300743
1783245575200276200,2.499276123046875,0.1563887894153595,-0.06255781650543213,-0.018704423680901527
1783245575210288400,2.509288330078125,0.13409945368766785,-0.02320960909128189,-0.07130078971385956
1783245575220300300,2.51930029296875,0.1172899529337883,0.020052196457982063,-0.15251155197620392
1783245575230311200,2.529311279296875,0.10894334316253662,0.040220316499471664,-0.2388259321451187
1783245575240323300,2.5393232421875,0.10471844673156738,0.0009041492594406009,-0.30634310841560364
1783245575250335200,2.549335205078125,0.104129359126091,-0.09269478172063828,-0.3467051684856415
1783245575260347100,2.55934716796875,0.10628332197666168,-0.17623960971832275,-0.35639217495918274
1783245575270358300,2.569358154296875,0.10521113872528076,-0.22977793216705322,-0.34263986349105835
1783245575280370200,2.5793701171875,0.085893414914608,-0.2683718502521515,-0.3171330690383911
1783245575290382000,2.589382080078125,0.04672657325863838,-0.2689433693885803,-0.2968294024467468
1783245575300394200,2.599394287109375,0.0033228457905352116,-0.2158563882112503,-0.3002181351184845
1783245575310405400,2.6094052734375,-0.024402260780334473,-0.11364798992872238,-0.33325889706611633
1783245575320417300,2.619417236328125,-0.03727591782808304,0.015399989672005177,-0.3977794945240021
1783245575330429400,2.629429443359375,-0.03977582976222038,0.14751914143562317,-0.48467952013015747
1783245575340440300,2.6394404296875,-0.04437883570790291,0.2560975253582001,-0.5761747360229492
1783245575350452200,2.6494521484375,-0.05435636639595032,0.31804850697517395,-0.6513192653656006
1783245575360464400,2.65946435546875,-0.058923207223415375,0.3093430995941162,-0.6877544522285461
1783245575370476300,2.669476318359375,-0.06221754103899002,0.2138887643814087,-0.6661410331726074
1783245575380487200,2.679487060546875,-0.07195304334163666,0.05129817873239517,-0.576596736907959
1783245575390499300,2.689499267578125,-0.10937605053186417,-0.13228921592235565,-0.4269163906574249
1783245575400511200,2.69951123046875,-0.17990688979625702,-0.2826387286186218,-0.23076801002025604
1783245575410523100,2.709523193359375,-0.26797041296958923,-0.40297552943229675,-0.031062090769410133
1783245575420534000,2.719533935546875,-0.36716702580451965,-0.4945244789123535,0.12635236978530884
1783245575430546200,2.729546142578125,-0.4768977761268616,-0.49744489789009094,0.21767456829547882
1783245575440558000,2.73955810546875,-0.608145534992218,-0.4207295775413513,0.2621724605560303
1783245575450570200,2.7495703125,-0.7385773062705994,-0.31595495343208313,0.3000412881374359
1783245575460581400,2.759581298828125,-0.8394083380699158,-0.19923900067806244,0.37323081493377686
1783245575470593300,2.76959326171875,-0.900882363319397,-0.06019322946667671,0.4921976625919342
1783245575480605200,2.779605224609375,-0.924206018447876,0.07529670745134354,0.639750599861145
1783245575490617300,2.789617431640625,-0.9107168316841125,0.19352562725543976,0.7781247496604919
1783245575500628200,2.799628173828125,-0.8627028465270996,0.281110942363739,0.8607223629951477
1783245575510640000,2.80964013671875,-0.7792878150939941,0.35446131229400635,0.8630249500274658
1783245575520652300,2.81965234375,-0.6617425680160522,0.4022264778614044,0.7897474765777588
1783245575530664200,2.829664306640625,-0.5016365051269531,0.41458436846733093,0.6563968658447266
1783245575540675000,2.839675048828125,-0.2781853675842285,0.4174969494342804,0.4761633276939392
1783245575550687200,2.849687255859375,-0.01969682052731514,0.36619168519973755,0.26879948377609253
1783245575560699100,2.85969921875,0.24778825044631958,0.2720828354358673,0.05837664753198624
1783245575570710300,2.869710205078125,0.4949756860733032,0.16348525881767273,-0.12263335287570953
1783245575580722400,2.879722412109375,0.691926896572113,0.02421601489186287,-0.2465524971485138
1783245575590734300,2.889734375,0.8256196975708008,-0.11617811024188995,-0.3067686855792999
1783245575600746200,2.899746337890625,0.90132075548172,-0.20211251080036163,-0.3278824985027313
1783245575610757400,2.90975732421875,0.9338967800140381,-0.22551743686199188,-0.33153876662254333
1783245575620769300,2.919769287109375,0.9453369379043579,-0.23978136479854584,-0.30273106694221497
1783245575630781200,2.92978125,0.9554086923599243,-0.26466861367225647,-0.23162096738815308
1783245575640793300,2.93979345703125,0.94968581199646,-0.25914523005485535,-0.11982404440641403
1783245575650804200,2.94980419921875,0.9268036484718323,-0.21338146924972534,0.0074343024753034115
1783245575660816100,2.959816162109375,0.878659188747406,-0.1848648190498352,0.14388088881969452
1783245575670828300,2.969828369140625,0.8048009276390076,-0.17680875957012177,0.2643151879310608
1783245575680840200,2.979840087890625,0.7230417132377625,-0.1492396891117096,0.3560624122619629
1783245575690851300,2.989851318359375,0.648205041885376,-0.08286119252443314,0.41553744673728943
1783245575700863200,2.99986328125,0.5916152596473694,-0.014442835003137589,0.4467434883117676
1783245575710875400,3.00987548828125,0.5536212921142578,0.044419415295124054,0.457541286945343
1783245575720887300,3.01988720703125,0.5299435257911682,0.09610648453235626,0.44967254996299744
1783245575730898200,3.029898193359375,0.5236957669258118,0.14018818736076355,0.4138743579387665
1783245575740910300,3.039910400390625,0.5316512584686279,0.15285898745059967,0.3547080457210541
1783245575750922200,3.049922119140625,0.5473101139068604,0.12565001845359802,0.2778915464878082
1783245575760933000,3.05993310546875,0.5693831443786621,0.07396623492240906,0.18765926361083984
1783245575770945300,3.0699453125,0.5943382978439331,0.02897372469305992,0.0902477577328682
1783245575780957200,3.079957275390625,0.618152916431427,-0.01829826645553112,-0.020806923508644104
1783245575790969000,3.089968994140625,0.6275501251220703,-0.07164511829614639,-0.1331758052110672
1783245575800980200,3.099980224609375,0.6302940249443054,-0.11687827855348587,-0.24147552251815796
1783245575810992000,3.1099921875,0.6182122826576233,-0.14736534655094147,-0.33625689148902893
1783245575821004000,3.120004150390625,0.5820594429969788,-0.16133363544940948,-0.3959571421146393
1783245575831016200,3.13001611328125,0.5267722010612488,-0.1641368716955185,-0.4057338833808899
1783245575841027600,3.140027587890625,0.4547611474990845,-0.14973348379135132,-0.36643028259277344
1783245575851039500,3.15003955078125,0.3665287494659424,-0.13655243813991547,-0.278333455324173
1783245575861051400,3.160051513671875,0.26753801107406616,-0.11265058070421219,-0.15503470599651337
1783245575871063600,3.1700634765625,0.16913846135139465,-0.07454607635736465,-0.027608299627900124
1783245575881074400,3.180074462890625,0.08748283982276917,-0.026952430605888367,0.07674826681613922
1783245575891086300,3.19008642578125,0.01910245046019554,0.020910434424877167,0.13447999954223633
1783245575901098500,3.200098388671875,-0.04037190228700638,0.08419531583786011,0.1281779706478119
1783245575911110400,3.2101103515625,-0.08762197196483612,0.1572929471731186,0.06655322015285492
1783245575921121300,3.220121337890625,-0.12233643233776093,0.2036687582731247,-0.020781422033905983
1783245575931133400,3.230133544921875,-0.15234626829624176,0.1967938095331192,-0.09600267559289932
1783245575941145300,3.240145263671875,-0.1867988407611847,0.1365848034620285,-0.1450973004102707
1783245575951157200,3.2501572265625,-0.23412561416625977,0.05126006156206131,-0.15508975088596344
1783245575961168400,3.26016845703125,-0.2919768691062927,-0.034221336245536804,-0.1267586648464203
1783245575971180500,3.2701806640625,-0.3607223629951477,-0.09780722856521606,-0.06609850376844406
1783245575981192400,3.2801923828125,-0.4440837502479553,-0.11573997139930725,0.0008682808838784695
1783245575991203300,3.290203369140625,-0.5305339694023132,-0.08292316645383835,0.06837248802185059
1783245576001215500,3.300215576171875,-0.6100993156433105,0.01933029666543007,0.10547851026058197
1783245576011227400,3.310227294921875,-0.6657915711402893,0.15739068388938904,0.06658730655908585
1783245576021239600,3.320239501953125,-0.6901528239250183,0.28044867515563965,-0.05078559368848801
1783245576031250400,3.33025048828125,-0.693242609500885,0.3737565279006958,-0.21983134746551514
1783245576041262300,3.340262451171875,-0.6843799352645874,0.4264569878578186,-0.3776227831840515
1783245576051274200,3.350274169921875,-0.6670981645584106,0.4111595153808594,-0.46626344323158264
1783245576061286400,3.360286376953125,-0.6319926977157593,0.3185857832431793,-0.45261576771736145
1783245576071297300,3.37029736328125,-0.6104618310928345,0.16288058459758759,-0.33365103602409363
1783245576081309400,3.380309326171875,-0.6357218027114868,0.014220476150512695,-0.1468077301979065
1783245576091321300,3.3903212890625,-0.7092010378837585,-0.04263614863157272,0.057705461978912354
1783245576101333500,3.40033349609375,-0.8167822957038879,0.05187410116195679,0.22026701271533966
1783245576111344400,3.410344482421875,-0.9369761347770691,0.22821398079395294,0.3046993315219879
1783245576121356500,3.4203564453125,-1.0376344919204712,0.41865479946136475,0.3125423491001129
1783245576131368400,3.430368408203125,-1.0852339267730713,0.5616356134414673,0.2430942952632904
1783245576141379300,3.44037939453125,-1.055114984512329,0.5659339427947998,0.14898517727851868
1783245576151391500,3.4503916015625,-0.964934766292572,0.40276551246643066,0.08964062482118607
1783245576161403400,3.4604033203125,-0.8464707732200623,0.13288746774196625,0.09343309700489044
1783245576171415300,3.470415283203125,-0.7460914254188538,-0.15186570584774017,0.14515674114227295
1783245576181426200,3.48042626953125,-0.6889312267303467,-0.35276728868484497,0.21116892993450165
1783245576191438300,3.490438232421875,-0.6729745864868164,-0.4283302426338196,0.2517765462398529
1783245576201450200,3.5004501953125,-0.7002444267272949,-0.3939811885356903,0.2558877766132355
1783245576211462400,3.51046240234375,-0.770013153553009,-0.29948851466178894,0.23354387283325195
1783245576221473500,3.5204736328125,-0.8461465835571289,-0.16127292811870575,0.19564023613929749
1783245576231485400,3.5304853515625,-0.9158878326416016,0.006508096121251583,0.17724710702896118
1783245576241497600,3.54049755859375,-0.9916234612464905,0.20383399724960327,0.1745685636997223
1783245576251509500,3.550509521484375,-1.0571752786636353,0.36853691935539246,0.17250941693782806
1783245576261520400,3.560520263671875,-1.0783110857009888,0.5002761483192444,0.14781904220581055
1783245576271532300,3.5705322265625,-1.0537657737731934,0.6057178974151611,0.07560929656028748
1783245576281544400,3.58054443359375,-0.9960913062095642,0.6411172151565552,-0.041209932416677475
1783245576291556400,3.590556396484375,-0.9052618145942688,0.5863402485847473,-0.1724872589111328
1783245576301567200,3.600567138671875,-0.8017045855522156,0.4811317026615143,-0.2842094600200653
1783245576311579400,3.610579345703125,-0.6979912519454956,0.3108776807785034,-0.35081565380096436
1783245576321591300,3.62059130859375,-0.6177324056625366,0.11119096726179123,-0.3702663779258728
1783245576331603200,3.630603271484375,-0.5417300462722778,-0.03616520017385483,-0.36205825209617615
1783245576341614600,3.640614501953125,-0.4533276855945587,-0.11657556146383286,-0.34685778617858887
1783245576351626500,3.65062646484375,-0.37009191513061523,-0.14975561201572418,-0.33691301941871643
1783245576361638400,3.660638427734375,-0.2981204390525818,-0.11702150106430054,-0.3127703368663788
1783245576371649500,3.6706494140625,-0.26090359687805176,0.003176276106387377,-0.28268861770629883
1783245576381661400,3.680661376953125,-0.24598664045333862,0.2108137607574463,-0.2700486183166504
1783245576391673300,3.69067333984375,-0.2339949607849121,0.4531630277633667,-0.30053356289863586
1783245576401685500,3.700685546875,-0.21801471710205078,0.6533473134040833,-0.3707962930202484
1783245576411696400,3.7106962890625,-0.1913844347000122,0.7997876405715942,-0.4750020503997803
1783245576421708300,3.720708251953125,-0.12539981305599213,0.8344166278839111,-0.6261342167854309
1783245576431720400,3.730720458984375,-0.022677963599562645,0.7294297814369202,-0.820016622543335
1783245576441732400,3.740732421875,0.09907276183366776,0.5216049551963806,-1.0183203220367432
1783245576451743500,3.750743408203125,0.2124302089214325,0.3692271411418915,-1.1467517614364624
1783245576461755400,3.76075537109375,0.35382190346717834,0.3085450828075409,-1.1810561418533325
1783245576471767600,3.770767578125,0.5587338209152222,0.22091268002986908,-1.1181621551513672
1783245576481779500,3.780779541015625,0.698458731174469,0.21001487970352173,-0.9950984120368958
1783245576491790300,3.790790283203125,0.7517954707145691,0.15776260197162628,-0.8450044989585876
1783245576501802500,3.800802490234375,0.7132617235183716,0.11271704733371735,-0.6974958181381226
1783245576511814400,3.810814453125,0.628637433052063,0.136517733335495,-0.6231712102890015
1783245576521825300,3.8208251953125,0.5643951892852783,0.28134024143218994,-0.6437039375305176
1783245576531837400,3.83083740234375,0.5368365049362183,0.3583972156047821,-0.6891489624977112
1783245576541849300,3.840849365234375,0.5250805020332336,0.3293297290802002,-0.7424356937408447
1783245576551861500,3.850861572265625,0.49776896834373474,0.24409101903438568,-0.7804208993911743
1783245576561872400,3.860872314453125,0.4397604465484619,0.16887710988521576,-0.7804329991340637
1783245576571884300,3.87088427734375,0.36063528060913086,0.1346893161535263,-0.7225398421287537
1783245576581896200,3.880896240234375,0.26303762197494507,0.17518514394760132,-0.6132358908653259
1783245576591908400,3.890908447265625,0.17305073142051697,0.21868549287319183,-0.4701932370662689
1783245576601919500,3.90091943359375,0.10968956351280212,0.32501399517059326,-0.3263870179653168
1783245576611931400,3.910931396484375,0.07888903468847275,0.46910086274147034,-0.20401529967784882
1783245576621943600,3.920943603515625,0.0857757031917572,0.5676357746124268,-0.11253237724304199
1783245576631955500,3.93095556640625,0.12396596372127533,0.5710539221763611,-0.06285137683153152
1783245576641966300,3.94096630859375,0.16489949822425842,0.5057733654975891,-0.055770765990018845
1783245576651978500,3.950978515625,0.2074296474456787,0.37282201647758484,-0.06651981920003891
1783245576661990400,3.960990478515625,0.24394190311431885,0.2521726191043854,-0.08688747882843018
1783245576672002300,3.971002197265625,0.258728563785553,0.11776208132505417,-0.11697639524936676
1783245576682013400,3.981013427734375,0.2581861913204193,-0.03582872077822685,-0.131211057305336
1783245576692025300,3.991025390625,0.22929063439369202,-0.22875076532363892,-0.13664551079273224
1783245576702037200,4.001037353515625,0.1633293479681015,-0.4483333230018616,-0.14284494519233704
1783245576712048400,4.01104833984375,0.07227933406829834,-0.6434953212738037,-0.1260470598936081
1783245576722060500,4.021060546875,-0.025581924244761467,-0.7932261824607849,-0.08149316906929016
1783245576732072400,4.031072509765625,-0.10613375902175903,-0.913129985332489,0.0002842475660145283
1783245576742084600,4.041084716796875,-0.16955438256263733,-1.0194023847579956,0.09029349684715271
1783245576752095500,4.051095458984375,-0.22070066630840302,-1.014965534210205,0.1803237944841385
1783245576762107400,4.061107421875,-0.23583301901817322,-0.9196274876594543,0.2519996464252472
1783245576772119600,4.07111962890625,-0.1997370570898056,-0.7757323980331421,0.31642523407936096
1783245576782131500,4.08113134765625,-0.11146652698516846,-0.6069778203964233,0.3964449167251587
1783245576792142300,4.091142333984375,0.039400484412908554,-0.427045077085495,0.4861532151699066
1783245576802154200,4.101154296875,0.21682187914848328,-0.21061769127845764,0.5395256280899048
1783245576812166400,4.11116650390625,0.3723563253879547,-0.020856019109487534,0.5356616377830505
1783245576822178300,4.12117822265625,0.47387999296188354,0.05134328082203865,0.47258099913597107
1783245576832189000,4.13118896484375,0.5145429968833923,0.0008548094192519784,0.38124123215675354
1783245576842200800,4.141200927734375,0.5150510668754578,-0.1254912167787552,0.28276148438453674
1783245576852213000,4.151212890625,0.48401036858558655,-0.2724050283432007,0.20534047484397888
1783245576862225000,4.161224853515625,0.428689181804657,-0.4274257719516754,0.15988676249980927
1783245576872235800,4.17123583984375,0.35878705978393555,-0.5554545521736145,0.15360009670257568
1783245576882248000,4.181248046875,0.29988741874694824,-0.6691246032714844,0.19150859117507935
1783245576892259800,4.191259765625,0.27835842967033386,-0.7890219688415527,0.2771933972835541
1783245576902270700,4.201270751953125,0.29459714889526367,-0.8893650770187378,0.38609325885772705
1783245576912283000,4.211282958984375,0.32235953211784363,-1.0028349161148071,0.4852869510650635
1783245576922294800,4.221294677734375,0.3431619107723236,-1.0966511964797974,0.5681212544441223
1783245576932306700,4.231306640625,0.3379570245742798,-1.1298192739486694,0.6266069412231445
1783245576942318000,4.241318115234375,0.293827623128891,-1.062709093093872,0.6619727611541748
1783245576952330000,4.251330078125,0.20556597411632538,-0.9411081671714783,0.6741231679916382
1783245576962342000,4.261341796875,0.09350191056728363,-0.7846700549125671,0.6640530228614807
1783245576972354000,4.27135400390625,-0.02408730238676071,-0.593931257724762,0.6305315494537354
1783245576982365000,4.281364990234375,-0.14394989609718323,-0.38204678893089294,0.5774129629135132
1783245576992376800,4.291376953125,-0.25447213649749756,-0.15551696717739105,0.517508864402771
1783245577002389000,4.301388916015625,-0.3344876766204834,0.03544767200946808,0.47429609298706055
1783245577012401000,4.31140087890625,-0.3705250322818756,0.15392957627773285,0.4449067711830139
1783245577022411800,4.321411865234375,-0.3514767289161682,0.24286392331123352,0.4233872592449188
1783245577032424000,4.331423828125,-0.2905254662036896,0.3133793771266937,0.3983681797981262
1783245577042435800,4.341435791015625,-0.21184614300727844,0.3887634873390198,0.36472633481025696
1783245577052446700,4.35144677734375,-0.1245727464556694,0.444033682346344,0.31731274724006653
1783245577062459000,4.361458984375,-0.039384935051202774,0.48681387305259705,0.2481592297554016
1783245577072470800,4.371470703125,0.04823039844632149,0.533852756023407,0.14812131226062775
1783245577082482700,4.381482666015625,0.1331147849559784,0.5583983659744263,0.03066745214164257
1783245577092493800,4.391493896484375,0.2168101966381073,0.5237300992012024,-0.07115931063890457
1783245577102506000,4.401506103515625,0.3070813715457916,0.4554368555545807,-0.14720700681209564
1783245577112518000,4.411517822265625,0.4008041322231293,0.3840915858745575,-0.1932581216096878
1783245577122529800,4.42152978515625,0.4916117191314697,0.2779107391834259,-0.21138885617256165
1783245577132541000,4.431541015625,0.5608690977096558,0.11484993249177933,-0.21131108701229095
1783245577142552800,4.441552734375,0.5964682698249817,-0.07135318219661713,-0.19884391129016876
1783245577152564700,4.451564697265625,0.5945601463317871,-0.23970358073711395,-0.18538402020931244
1783245577162577000,4.461576904296875,0.5509312748908997,-0.34168028831481934,-0.1637825220823288
1783245577172587800,4.471587890625,0.48455941677093506,-0.3845856785774231,-0.14058852195739746
1783245577182599700,4.481599609375,0.39836934208869934,-0.38557106256484985,-0.12077087163925171
1783245577192611800,4.49161181640625,0.29572686553001404,-0.3164615035057068,-0.11386476457118988
1783245577202623700,4.501623779296875,0.18375296890735626,-0.1956748068332672,-0.11030584573745728
1783245577212635000,4.511634765625,0.07648643851280212,-0.07791035622358322,-0.10403303056955338
1783245577222647000,4.52164697265625,-0.004016655031591654,0.024783922359347343,-0.08758189529180527
1783245577232659000,4.531658935546875,-0.04454544186592102,0.12328412383794785,-0.06889741867780685
1783245577242669800,4.541669921875,-0.05660583823919296,0.20487922430038452,-0.06347276270389557
1783245577252682000,4.551681884765625,-0.05610409751534462,0.2365226447582245,-0.08296336978673935
1783245577262694000,4.56169384765625,-0.04484451934695244,0.21991388499736786,-0.12537001073360443
1783245577272705800,4.571705810546875,-0.03632959723472595,0.1859106421470642,-0.1792827844619751
1783245577282716700,4.581716552734375,-0.007112693972885609,0.11354150623083115,-0.22011981904506683
1783245577292728800,4.591728759765625,0.0392521396279335,0.021234480664134026,-0.2458299845457077
1783245577302740700,4.60174072265625,0.10605091601610184,-0.04438776522874832,-0.2579423189163208
1783245577312753000,4.6117529296875,0.18408288061618805,-0.07750204205513,-0.24488241970539093
1783245577322764000,4.621763916015625,0.2655317783355713,-0.10441022366285324,-0.2162856012582779
1783245577332776000,4.63177587890625,0.3361508250236511,-0.09474854171276093,-0.18826089799404144
1783245577342788000,4.6417880859375,0.3818265199661255,-0.04590867459774017,-0.17291250824928284
1783245577352800000,4.651800048828125,0.39249569177627563,0.026994824409484863,-0.1726805418729782
1783245577362811000,4.661810791015625,0.3692093789577484,0.11527850478887558,-0.17550235986709595
1783245577372822800,4.67182275390625,0.3211822211742401,0.16643942892551422,-0.1664779782295227
1783245577382835000,4.6818349609375,0.2516261637210846,0.16771262884140015,-0.15615981817245483
1783245577392845800,4.691845703125,0.14657726883888245,0.16028134524822235,-0.13546039164066315
1783245577402857700,4.701857666015625,0.023657741025090218,0.1184975802898407,-0.1071942076086998
1783245577412870000,4.711869873046875,-0.10915064066648483,0.13617058098316193,-0.05714941769838333
1783245577422881800,4.7218818359375,-0.24692171812057495,0.16422687470912933,0.015187963843345642
1783245577432892700,4.731892578125,-0.3791489899158478,0.23595058917999268,0.12506519258022308
1783245577442904800,4.74190478515625,-0.4976269006729126,0.3082509934902191,0.25447097420692444
1783245577452916700,4.751916748046875,-0.6081565618515015,0.3407924175262451,0.3825109601020813
1783245577462929000,4.761928955078125,-0.7035050392150879,0.30448776483535767,0.4928528666496277
1783245577472940000,4.77193994140625,-0.7781582474708557,0.2037222683429718,0.5759735703468323
1783245577482952000,4.781951904296875,-0.8300010561943054,0.05367512255907059,0.6240634918212891
1783245577492963800,4.7919638671875,-0.8491494655609131,-0.09506774693727493,0.6305304765701294
1783245577502976000,4.80197607421875,-0.8450383543968201,-0.20158107578754425,0.6064937114715576
1783245577512987000,4.81198681640625,-0.8121064901351929,-0.26290592551231384,0.5726739764213562
1783245577522998800,4.821998779296875,-0.7487107515335083,-0.3033559322357178,0.5424463152885437
1783245577533011000,4.832010986328125,-0.6613510847091675,-0.360945463180542,0.5127376914024353
1783245577543021800,4.842021728515625,-0.587821900844574,-0.4266168475151062,0.4751428961753845
1783245577553033700,4.85203369140625,-0.5373417139053345,-0.4739108681678772,0.414618581533432
1783245577563046000,4.8620458984375,-0.5203105211257935,-0.4765045940876007,0.3310292661190033
1783245577573057800,4.872057861328125,-0.5364684462547302,-0.4204554259777069,0.2284347265958786
1783245577583069000,4.88206884765625,-0.5865936279296875,-0.35565540194511414,0.1197306215763092
1783245577593080800,4.892080810546875,-0.6415032744407654,-0.2979189157485962,0.028943659737706184
1783245577603093000,4.902093017578125,-0.6900632381439209,-0.24241109192371368,-0.02418660745024681
1783245577613105000,4.91210498046875,-0.7445893287658691,-0.18301354348659515,-0.027738463133573532
1783245577623115800,4.92211572265625,-0.8083158731460571,-0.13831117749214172,0.025849398225545883
1783245577633128000,4.9321279296875,-0.8889968991279602,-0.0904373973608017,0.13336732983589172
1783245577643139800,4.942139892578125,-0.9405738711357117,-0.014614975079894066,0.30101582407951355
1783245577653151700,4.95215185546875,-0.9305837750434875,0.05467008799314499,0.5092965364456177
1783245577663163000,4.962162841796875,-0.8691293597221375,0.10946155339479446,0.7067998647689819
1783245577673174800,4.9721748046875,-0.7861127853393555,0.17887233197689056,0.8326429724693298
1783245577683186700,4.982186767578125,-0.6878960728645325,0.2105046808719635,0.8643789887428284
1783245577693198800,4.99219873046875,-0.5418128967285156,0.14402632415294647,0.8042128086090088
1783245577703210000,5.0022099609375,-0.33748432993888855,0.061790235340595245,0.6748628616333008
1783245577713222000,5.012221923828125,-0.08891844004392624,-0.025999270379543304,0.5067122578620911
1783245577723234000,5.022234130859375,0.16624119877815247,-0.1230519562959671,0.33210378885269165
1783245577733245000,5.032244873046875,0.37457576394081116,-0.1995786875486374,0.17241692543029785
1783245577743256800,5.0422568359375,0.5199643969535828,-0.24704387784004211,0.03772163391113281
1783245577753269000,5.05226904296875,0.6124357581138611,-0.25152596831321716,-0.0672236904501915
1783245577763281000,5.062281005859375,0.6678803563117981,-0.19563689827919006,-0.1483001708984375
1783245577773291800,5.072291748046875,0.7104265093803406,-0.09796467423439026,-0.2137305736541748
1783245577783304000,5.082303955078125,0.7418817281723022,0.039895981550216675,-0.25027212500572205
1783245577793315800,5.09231591796875,0.754754364490509,0.2137862741947174,-0.25960785150527954
1783245577803327700,5.10232763671875,0.7373310327529907,0.4145166575908661,-0.25851184129714966
1783245577813339000,5.1123388671875,0.6944440007209778,0.6621821522712708,-0.2586418092250824
1783245577823350800,5.122350830078125,0.6348578333854675,0.9087327122688293,-0.26755690574645996
1783245577833363500,5.132363525390625,0.588496208190918,1.1032835245132446,-0.2718219459056854
1783245577843375600,5.142375732421875,0.5750828981399536,1.1941368579864502,-0.2511141002178192
1783245577853386800,5.15238671875,0.6200360059738159,1.1593178510665894,-0.1950675994157791
1783245577863398700,5.162398681640625,0.7203713655471802,1.0127960443496704,-0.10903418064117432
1783245577873410800,5.172410888671875,0.8633322715759277,0.7895280718803406,-0.006712340749800205
1783245577883421700,5.182421630859375,1.0228549242019653,0.548360288143158,0.08852176368236542
1783245577893433600,5.19243359375,1.1779539585113525,0.3152545690536499,0.15568295121192932
1783245577903445800,5.20244580078125,1.3209707736968994,0.09619513899087906,0.1860491931438446
1783245577913457700,5.212457763671875,1.4402873516082764,-0.08508383482694626,0.18413810431957245
1783245577923468500,5.222468505859375,1.546008825302124,-0.21322651207447052,0.15695375204086304
1783245577933480400,5.23248046875,1.6415774822235107,-0.29194074869155884,0.10506312549114227
1783245577943492600,5.24249267578125,1.719787836074829,-0.3193362355232239,0.044547051191329956
1783245577953504500,5.25250439453125,1.782325267791748,-0.29185399413108826,-0.004555512685328722
1783245577963515600,5.262515625,1.8311524391174316,-0.21795654296875,-0.031815897673368454
1783245577973527600,5.272527587890625,1.865785002708435,-0.11255235224962234,-0.03389342874288559
1783245577983539500,5.28253955078125,1.8842504024505615,-0.0029665851034224033,-0.016258176416158676
1783245577993551600,5.292551513671875,1.8903905153274536,0.0962287113070488,0.010565448552370071
1783245578003562800,5.302562744140625,1.891402006149292,0.1834229975938797,0.029069090262055397
1783245578013574700,5.31257470703125,1.877957820892334,0.2699427008628845,0.041040800511837006
1783245578023586600,5.322586669921875,1.8577184677124023,0.34534090757369995,0.03831525519490242
1783245578033597700,5.33259765625,1.8178619146347046,0.43016576766967773,0.02049630880355835
1783245578043609600,5.342609619140625,1.7663860321044922,0.5377177596092224,-0.014052942395210266
1783245578053621500,5.35262158203125,1.7098497152328491,0.6647026538848877,-0.06367801874876022
1783245578063633700,5.362633544921875,1.646761178970337,0.8032613396644592,-0.1264311522245407
1783245578073644500,5.37264453125,1.5809308290481567,0.9275438785552979,-0.1888710856437683
1783245578083656400,5.382656494140625,1.5338664054870605,1.0271008014678955,-0.23456540703773499
1783245578093668600,5.392668701171875,1.5267972946166992,1.102683663368225,-0.2573133409023285
1783245578103680500,5.402680419921875,1.5623286962509155,1.167995810508728,-0.2562785744667053
1783245578113691600,5.412691650390625,1.627196192741394,1.2066596746444702,-0.23525850474834442
1783245578123703800,5.422703857421875,1.7077168226242065,1.2147765159606934,-0.21227648854255676
1783245578133715700,5.4327158203125,1.8044127225875854,1.1993229389190674,-0.19537685811519623
1783245578143727600,5.4427275390625,1.9222692251205444,1.1407390832901,-0.20679743587970734
1783245578153738500,5.452738525390625,2.056262731552124,1.0596351623535156,-0.24230243265628815
1783245578163750700,5.462750732421875,2.19976806640625,0.9736243486404419,-0.3008703291416168
1783245578173762600,5.472762451171875,2.336276054382324,0.9116811156272888,-0.37275516986846924
1783245578183773400,5.4827734375,2.4498448371887207,0.8859456181526184,-0.4421118199825287
1783245578193785600,5.49278564453125,2.534977436065674,0.8098610043525696,-0.4856012165546417
1783245578203797500,5.502797607421875,2.608976125717163,0.7071746587753296,-0.4982917308807373
1783245578213809700,5.5128095703125,2.6978108882904053,0.6107820868492126,-0.4948333501815796
1783245578223820800,5.52282080078125,2.7733676433563232,0.513577401638031,-0.471797376871109
1783245578233832700,5.532832763671875,2.83614182472229,0.4385729432106018,-0.4490872919559479
1783245578243844600,5.5428447265625,2.896415948867798,0.39171093702316284,-0.44212108850479126
1783245578253856800,5.552856689453125,2.9525158405303955,0.3702346682548523,-0.4649811089038849
1783245578263867600,5.56286767578125,3.0054433345794678,0.38862770795822144,-0.5296788215637207
1783245578273879600,5.572879638671875,3.0484182834625244,0.463935524225235,-0.6316954493522644
1783245578283891700,5.5828916015625,3.0693442821502686,0.5773143768310547,-0.752426028251648
1783245578293903600,5.592903564453125,3.0588245391845703,0.6899346113204956,-0.8650004863739014
1783245578303914500,5.60291455078125,3.0397567749023438,0.8177195191383362,-0.9474205374717712
1783245578313926700,5.6129267578125,3.0205955505371094,0.887662947177887,-0.9631576538085938
1783245578323938600,5.6229384765625,3.0240511894226074,0.865506112575531,-0.8947026133537292
1783245578333949400,5.632949462890625,3.0707504749298096,0.7230823636054993,-0.7602121829986572
1783245578343961600,5.642961669921875,3.153120756149292,0.48334452509880066,-0.5977814793586731
1783245578353973500,5.652973388671875,3.2518136501312256,0.19568130373954773,-0.4253593981266022
1783245578363985700,5.662985595703125,3.3398330211639404,-0.11374279111623764,-0.26076412200927734
1783245578373996500,5.67299658203125,3.412108898162842,-0.4089539349079132,-0.12132074683904648
1783245578384008700,5.6830087890625,3.469987154006958,-0.632027268409729,-0.010350221768021584
1783245578394020600,5.6930205078125,3.514699935913086,-0.7267508506774902,0.06863647699356079
1783245578404032800,5.70303271484375,3.543821096420288,-0.7022760510444641,0.111761175096035
1783245578414043600,5.713043701171875,3.5512819290161133,-0.5977365970611572,0.13536076247692108
1783245578424055600,5.7230556640625,3.555959463119507,-0.44507676362991333,0.14584112167358398
1783245578434067700,5.733067626953125,3.555659532546997,-0.25141194462776184,0.12916147708892822
1783245578444079600,5.74307958984375,3.5384953022003174,-0.0752534568309784,0.10374978929758072
1783245578454090500,5.753090576171875,3.496276617050171,0.11352791637182236,0.07967082411050797
1783245578464102400,5.763102294921875,3.424502372741699,0.3077382743358612,0.05989398434758186
1783245578474114600,5.773114501953125,3.322591543197632,0.5169809460639954,0.04999767616391182
1783245578484125700,5.783125732421875,3.1932549476623535,0.7545891404151917,0.04083853214979172
1783245578494137600,5.7931376953125,3.0504865646362305,1.0114573240280151,0.03927179425954819
1783245578504149800,5.803149658203125,2.910633087158203,1.29185950756073,0.03797456994652748
1783245578514161700,5.81316162109375,2.7774009704589844,1.5827717781066895,0.022701606154441833
1783245578524172500,5.823172607421875,2.6504716873168945,1.879897117614746,-0.015484128147363663
1783245578534184700,5.833184814453125,2.541294574737549,2.1723732948303223,-0.08669412136077881
1783245578544196600,5.843196533203125,2.432443857192993,2.3735313415527344,-0.18952050805091858
1783245578554208500,5.85320849609375,2.312957763671875,2.4321463108062744,-0.31077635288238525
1783245578564219600,5.8632197265625,2.1918540000915527,2.4557745456695557,-0.42445671558380127
1783245578574231600,5.8732314453125,2.107269763946533,2.450697422027588,-0.5118914842605591
1783245578584243500,5.883243408203125,2.085000514984131,2.370755672454834,-0.6051781177520752
1783245578594255600,5.893255615234375,2.1545724868774414,2.217047929763794,-0.7010966539382935
1783245578604266800,5.903266845703125,2.2721948623657227,2.0739808082580566,-0.776308000087738
1783245578614278700,5.913278564453125,2.402556896209717,1.8906128406524658,-0.8566611409187317
1783245578624290800,5.923290771484375,2.520102024078369,1.6267372369766235,-0.9252956509590149
1783245578634301700,5.9333017578125,2.5927677154541016,1.3226934671401978,-0.9744278192520142
1783245578644313600,5.943313720703125,2.597368001937866,0.9718335866928101,-0.9990561008453369
1783245578654325800,5.95332568359375,2.5369017124176025,0.7232996821403503,-0.9307867884635925
1783245578664337700,5.963337646484375,2.459303140640259,0.6225317716598511,-0.778775155544281
1783245578674348500,5.9733486328125,2.3692805767059326,0.5452463030815125,-0.5803265571594238
1783245578684360400,5.9833603515625,2.272892713546753,0.4085317552089691,-0.3746829032897949
1783245578694372600,5.99337255859375,2.1609737873077393,0.23220066726207733,-0.2010495960712433
1783245578704384500,6.003384521484375,2.035102367401123,0.08113247156143188,-0.07617390900850296
1783245578714395600,6.013395751953125,1.898119330406189,-0.009517270140349865,-0.011179991997778416
1783245578724407600,6.023407470703125,1.7593885660171509,-0.05710006505250931,0.01352761685848236
1783245578734419700,6.033419677734375,1.6325517892837524,-0.08607631921768188,0.02795369178056717
1783245578744431600,6.043431640625,1.5237736701965332,-0.0945814847946167,0.03644818067550659
1783245578754442800,6.05344287109375,1.4205329418182373,-0.08686337620019913,0.03914596140384674
1783245578764454700,6.06345458984375,1.3001973628997803,-0.057868555188179016,0.04671206697821617
1783245578774466600,6.073466552734375,1.1818199157714844,-0.03471343591809273,0.047695841640233994
1783245578784477700,6.083477783203125,1.0899639129638672,0.002383730374276638,0.030559927225112915
1783245578794489600,6.093489501953125,1.0110318660736084,0.08079598098993301,0.0026526632718741894
1783245578804501500,6.10350146484375,0.9622994065284729,0.13915731012821198,-0.040177155286073685
1783245578814513700,6.113513671875,0.9425973296165466,0.14506393671035767,-0.08753135800361633
1783245578824524500,6.123524658203125,0.9445237517356873,0.1301778107881546,-0.12339707463979721
1783245578834536400,6.133536376953125,0.9378471970558167,0.12372629344463348,-0.12116347998380661
1783245578844548400,6.14354833984375,0.9151384830474854,0.09826596826314926,-0.06760145723819733
1783245578854560300,6.153560302734375,0.8689662218093872,0.038341913372278214,0.022365981712937355
1783245578864571600,6.163571533203125,0.8073559403419495,-0.056303173303604126,0.11328311264514923
1783245578874583600,6.17358349609375,0.7386376261711121,-0.14470787346363068,0.17665648460388184
1783245578884595500,6.183595458984375,0.6720824837684631,-0.19633087515830994,0.19856418669223785
1783245578894607600,6.193607666015625,0.618964672088623,-0.2026183307170868,0.18217775225639343
1783245578904618500,6.203618408203125,0.5902753472328186,-0.15587829053401947,0.14331410825252533
1783245578914630400,6.21363037109375,0.5885472297668457,-0.059136297553777695,0.09744009375572205
1783245578924642600,6.223642578125,0.6089426279067993,0.06383456289768219,0.06086903437972069
1783245578934653400,6.2336533203125,0.6353158950805664,0.16553428769111633,0.040767498314380646
1783245578944665300,6.243665283203125,0.650944709777832,0.2177574783563614,0.043356817215681076
1783245578954677500,6.253677490234375,0.6560475826263428,0.2100641280412674,0.060613829642534256
1783245578964689400,6.263689453125,0.6601560115814209,0.12939594686031342,0.06853534281253815
1783245578974700500,6.273700439453125,0.6649457216262817,-0.03279642015695572,0.04508380964398384
1783245578984712700,6.283712646484375,0.6689251065254211,-0.22009260952472687,-0.006485240533947945
1783245578994724600,6.293724609375,0.6749869585037231,-0.3757658302783966,-0.06513231247663498
1783245579004736500,6.303736572265625,0.6729763746261597,-0.46816128492355347,-0.11460725218057632
1783245579014747400,6.313747314453125,0.6474981904029846,-0.5023762583732605,-0.1401727944612503
1783245579024759600,6.323759521484375,0.5953015685081482,-0.4705654978752136,-0.1367853879928589
1783245579034771500,6.333771484375,0.5304677486419678,-0.3975309729576111,-0.11696428060531616
1783245579044783600,6.34378369140625,0.4542311728000641,-0.3076665699481964,-0.08381291478872299
1783245579054794500,6.35379443359375,0.3601270616054535,-0.21538963913917542,-0.037271518260240555
1783245579064806400,6.363806396484375,0.2560754120349884,-0.14776338636875153,0.022524775937199593
1783245579074818300,6.373818359375,0.15717813372612,-0.09433503448963165,0.08321502804756165
1783245579084829700,6.38382958984375,0.07246031612157822,-0.0070685772225260735,0.13895471394062042
1783245579094841600,6.393841552734375,0.015624729916453362,0.09145720303058624,0.17080025374889374
1783245579104853500,6.403853515625,-0.015959877520799637,0.1571516990661621,0.1770622879266739
1783245579114865700,6.41386572265625,-0.027151811867952347,0.20783032476902008,0.16526980698108673
1783245579124876500,6.42387646484375,-0.020786656066775322,0.2649857997894287,0.15017221868038177
1783245579134888400,6.433888427734375,-0.006816244684159756,0.28180474042892456,0.1418386548757553
1783245579144900600,6.443900634765625,0.010587688535451889,0.24276037514209747,0.14615657925605774
1783245579154912500,6.45391259765625,0.03954530507326126,0.1604982614517212,0.16628608107566833
1783245579164923400,6.46392333984375,0.08376043289899826,0.025741783902049065,0.18760520219802856
1783245579174935600,6.473935546875,0.148753821849823,-0.1444784253835678,0.18881508708000183
1783245579184947500,6.483947509765625,0.22859011590480804,-0.33355942368507385,0.16587121784687042
1783245579194959400,6.49395947265625,0.30590328574180603,-0.5239743590354919,0.12331657111644745
1783245579204970500,6.503970458984375,0.36717987060546875,-0.6787512898445129,0.0807318240404129
1783245579214982400,6.513982421875,0.40859150886535645,-0.7406202554702759,0.04603003337979317
1783245579224994300,6.523994384765625,0.4344370663166046,-0.7006919980049133,0.02345028705894947
1783245579235006500,6.53400634765625,0.44989991188049316,-0.5987898707389832,0.023528050631284714
1783245579245017600,6.544017578125,0.45490753650665283,-0.446024090051651,0.03153984248638153
1783245579255029500,6.554029541015625,0.4521900713443756,-0.2625860869884491,0.038375645875930786
1783245579265041700,6.564041748046875,0.44084542989730835,-0.06991291046142578,0.021611178293824196
1783245579275052500,6.574052490234375,0.45058727264404297,0.09067783504724503,-0.022613009437918663
1783245579285064400,6.584064453125,0.45712926983833313,0.26015380024909973,-0.05888240411877632
1783245579295076400,6.594076416015625,0.48563307523727417,0.4160531461238861,-0.09662818163633347
1783245579305088500,6.604088623046875,0.5469987392425537,0.5007055401802063,-0.14797326922416687
1783245579315099400,6.614099365234375,0.6232820749282837,0.5226049423217773,-0.2035265415906906
1783245579325111300,6.624111328125,0.695338785648346,0.4841517210006714,-0.2597247064113617
1783245579335123500,6.63412353515625,0.7503855228424072,0.41642725467681885,-0.3109756410121918
1783245579345135400,6.64413525390625,0.7915914058685303,0.3050663471221924,-0.3647380769252777
1783245579355146500,6.654146484375,0.8035053014755249,0.18104241788387299,-0.416978120803833
1783245579365158700,6.66415869140625,0.7895853519439697,0.10072912275791168,-0.45517048239707947
1783245579375170600,6.674170654296875,0.7655857801437378,0.04754579812288284,-0.46908921003341675
1783245579385182500,6.684182373046875,0.7330434918403625,0.023104576393961906,-0.45996731519699097
1783245579395193600,6.694193603515625,0.6983256936073303,0.036753810942173004,-0.43529844284057617
1783245579405205500,6.70420556640625,0.6409164071083069,0.06463012099266052,-0.38760489225387573
1783245579415217400,6.714217529296875,0.575299859046936,0.08390607684850693,-0.31513816118240356
1783245579425229600,6.7242294921875,0.5237094759941101,0.09290643036365509,-0.2299015372991562
1783245579435240400,6.734240478515625,0.5058801770210266,0.10749176144599915,-0.13858787715435028
1783245579445252400,6.74425244140625,0.5222610235214233,0.12652282416820526,-0.06316442787647247
1783245579455264500,6.754264404296875,0.5597506165504456,0.14038005471229553,-0.01664486527442932
1783245579465275600,6.764275634765625,0.5839362740516663,0.15206706523895264,-0.004840539302676916
1783245579475287600,6.77428759765625,0.5925827622413635,0.15464873611927032,-0.026806557551026344
1783245579485299700,6.7842998046875,0.5910130143165588,0.13799399137496948,-0.057786911725997925
1783245579495311600,6.7943115234375,0.5898337364196777,0.10715058445930481,-0.093244768679142
1783245579505322500,6.804322509765625,0.5875274538993835,0.08930311352014542,-0.12187821418046951
1783245579515334700,6.814334716796875,0.5836418867111206,0.07047722488641739,-0.14852900803089142
1783245579525346600,6.8243466796875,0.5857298970222473,0.0518837608397007,-0.16644887626171112
1783245579535358500,6.8343583984375,0.5902532935142517,0.024001529440283775,-0.17885281145572662
1783245579545369300,6.844369384765625,0.5946466326713562,-0.00398515909910202,-0.18838846683502197
1783245579555381500,6.854381591796875,0.607726514339447,-0.007884560152888298,-0.18364350497722626
1783245579565393400,6.864393310546875,0.6323073506355286,0.00956239178776741,-0.1840810626745224
1783245579575405600,6.874405517578125,0.6782020926475525,0.03984360024333,-0.18553274869918823
1783245579585416400,6.88441650390625,0.725805401802063,0.06994321197271347,-0.18616224825382233
1783245579595428400,6.894428466796875,0.763236403465271,0.0652960017323494,-0.18408258259296417
1783245579605440300,6.904440185546875,0.7764838933944702,0.01936253346502781,-0.18349303305149078
1783245579615452400,6.914452392578125,0.7657482028007507,-0.01987621560692787,-0.1847982555627823
1783245579625463600,6.924463623046875,0.7303973436355591,-0.03279653191566467,-0.17331449687480927
1783245579635475500,6.934475341796875,0.6825275421142578,-0.02489732764661312,-0.15394453704357147
1783245579645487600,6.944487548828125,0.6349879503250122,-0.017686091363430023,-0.11658557504415512
1783245579655498500,6.95449853515625,0.6032609343528748,-0.019991591572761536,-0.07394730299711227
1783245579665510400,6.964510498046875,0.5841211080551147,-0.004555883817374706,-0.021727511659264565
1783245579675522600,6.9745224609375,0.5681085586547852,0.03804111108183861,0.02938999980688095
1783245579685534500,6.984534423828125,0.5477232933044434,0.06857100129127502,0.07378462702035904
1783245579695545300,6.99454541015625,0.5121594667434692,0.10981431603431702,0.11260978877544403
1783245579705557500,7.0045576171875,0.4784547984600067,0.16773337125778198,0.14026792347431183
1783245579715569400,7.0145693359375,0.4538695514202118,0.21848656237125397,0.1563693881034851
1783245579725581300,7.024581298828125,0.4381064176559448,0.27135032415390015,0.15854579210281372
1783245579735592700,7.0345927734375,0.4275619089603424,0.32563379406929016,0.15059731900691986
1783245579745604600,7.0446044921875,0.4201916754245758,0.3507591187953949,0.1378866583108902
1783245579755616500,7.054616455078125,0.419025719165802,0.34000447392463684,0.11937075853347778
1783245579765628700,7.064628662109375,0.42249587178230286,0.32368725538253784,0.10014712810516357
1783245579775639600,7.0746396484375,0.43957045674324036,0.288998007774353,0.08267998695373535
1783245579785651500,7.0846513671875,0.4595058560371399,0.25771909952163696,0.08309078216552734
1783245579795663600,7.09466357421875,0.48495739698410034,0.22966481745243073,0.09508645534515381
1783245579805675500,7.104675537109375,0.5133018493652344,0.2059730887413025,0.11872807145118713
1783245579815686400,7.114686279296875,0.5425862669944763,0.22876842319965363,0.13549132645130157
1783245579825698300,7.1246982421875,0.5675767660140991,0.3431467115879059,0.13510917127132416
1783245579835710500,7.13471044921875,0.5789215564727783,0.46156126260757446,0.11603668332099915
1783245579845721600,7.1447216796875,0.5712834000587463,0.5233866572380066,0.07498791068792343
1783245579855733800,7.154733642578125,0.565326452255249,0.548144519329071,0.014204723760485649
1783245579865745700,7.16474560546875,0.5797889828681946,0.5586702823638916,-0.0667152926325798
1783245579875757600,7.174757568359375,0.6130942106246948,0.5484756827354431,-0.15937012434005737
1783245579885768400,7.1847685546875,0.6512531638145447,0.5589392185211182,-0.2482057809829712
1783245579895780600,7.194780517578125,0.6830734014511108,0.5585306882858276,-0.3173488974571228
1783245579905792500,7.20479248046875,0.7111494541168213,0.5240527391433716,-0.34589114785194397
1783245579915804700,7.2148046875,0.7340899109840393,0.47270163893699646,-0.33332476019859314
1783245579925815600,7.224815673828125,0.7512573599815369,0.3822770118713379,-0.2841974198818207
1783245579935827500,7.234827392578125,0.7595747113227844,0.25393742322921753,-0.22043360769748688
1783245579945839600,7.244839599609375,0.7591196894645691,0.11458736658096313,-0.155474454164505
1783245579955851500,7.2548515625,0.7525289058685303,-0.05023966357111931,-0.10002238303422928
1783245579965862400,7.2648623046875,0.7341203689575195,-0.22839395701885223,-0.064796082675457
1783245579975874300,7.274874267578125,0.7020636796951294,-0.35970935225486755,-0.04366176947951317
1783245579985886500,7.284886474609375,0.6647533178329468,-0.45373186469078064,-0.03526169806718826
1783245579995897600,7.294897705078125,0.6238746047019958,-0.5266587734222412,-0.02433767542243004
1783245580005909500,7.304909423828125,0.5618712902069092,-0.5435048341751099,0.0054734842851758
1783245580015921700,7.314921630859375,0.479745477437973,-0.5322708487510681,0.05159597471356392
1783245580025933600,7.32493359375,0.43744057416915894,-0.4522691071033478,0.31187742948532104
1783245580035944400,7.3349443359375,0.5092223286628723,-0.14533419907093048,0.6083711385726929
1783245580045956600,7.34495654296875,0.576627790927887,0.21030615270137787,0.7201166749000549
1783245580055968500,7.354968505859375,0.5537962317466736,0.519058108329773,0.5889610052108765
1783245580065980400,7.36498046875,0.4848468601703644,0.749288022518158,0.31895196437835693
1783245580075991600,7.374991455078125,0.4806286692619324,0.9152570366859436,0.03874402493238449
1783245580086003500,7.38500341796875,0.5516238808631897,1.005713939666748,-0.23555777966976166
1783245580096015400,7.395015380859375,0.684909999370575,1.0184271335601807,-0.5006986260414124
1783245580106027500,7.405027587890625,0.8375179767608643,0.9481285214424133,-0.6982583999633789
1783245580116038700,7.41503857421875,0.9397711157798767,0.769797146320343,-0.7947489619255066
1783245580126050600,7.425050537109375,1.0494914054870605,0.4610669016838074,-0.7959368824958801
