time,seconds_elapsed,z,y,x
1783245548319562500,0.0685625,0.23531156165301798,-0.9091645435009151,0.40395599063448606
1783245548329574700,0.07857470703125,0.05529577076435089,-1.0026415763605385,0.44908429538868366
1783245548339586600,0.088586669921875,-0.03248421949744224,-1.0476351488191633,0.4524796369154006
1783245548349597400,0.098597412109375,-0.17540274413526058,-1.1108605435390024,0.4093434558264911
1783245548359609600,0.108609619140625,-0.1268687225908041,-1.070714922568202,0.34925146376155314
1783245548369621500,0.11862158203125,-0.1016413423538208,-1.0201528292622417,0.25441366394273934
1783245548379633400,0.12863330078125,-0.07086100416481494,-1.0246991674549877,0.10843429042957722
1783245548389644500,0.13864453125,-0.07607260133326053,-1.0904208359699696,0.04435827022977173
1783245548399656400,0.148656494140625,-0.12191080792248249,-1.102438313760981,0.04365048728659749
1783245548409668400,0.15866845703125,-0.013787702333927154,-1.0997424988057465,0.06987279684506356
1783245548419679700,0.1686796875,0.17194763524532317,-1.1262954285580664,0.14054244315624237
1783245548429691600,0.178691650390625,0.2667605928838253,-1.2099418261464685,0.20188027056381105
1783245548439703600,0.18870361328125,0.26729075423777104,-1.3283692489326,0.2337359098341316
1783245548449715700,0.1987158203125,0.2790110026478767,-1.462756092068553,0.20284517007321118
1783245548459726600,0.2087265625,0.23736031087636947,-1.4786594713822006,0.14419592416249213
1783245548469738500,0.218738525390625,0.14780162050426005,-1.4125928618870676,0.08717157603986561
1783245548479750700,0.228750732421875,0.08648059810101985,-1.3891796914651988,0.04618585098311305
1783245548489762600,0.238762451171875,0.01666004289984703,-1.3686108045585452,0.005916384436935186
1783245548499773400,0.2487734375,-0.12099427759945391,-1.3307025141857565,-0.0693282416395843
1783245548509785300,0.258785400390625,-0.2700064429372549,-1.319361474351585,-0.14982231267690657
1783245548519797500,0.268797607421875,-0.3300222279608249,-1.2515174799203872,-0.16862360538914797
1783245548529808600,0.27880859375,-0.39759997267127034,-1.1590722012612968,-0.08737981196306645
1783245548539820500,0.288820556640625,-0.45802141588628287,-1.0793421003337949,-0.02515402273982763
1783245548549832700,0.298832763671875,-0.5077899476617574,-1.0596632210694252,0.030451325430348515
1783245548559844600,0.3088447265625,-0.5234808532685041,-1.0497242300529033,0.11079539353772998
1783245548569855500,0.31885546875,-0.4606207847297191,-0.9274213540729135,0.2905584517743438
1783245548579867600,0.32886767578125,-0.3192798846721649,-0.727381231483072,0.5894012592259794
1783245548589879600,0.338879638671875,-0.11783493678569792,-0.42940300497151906,0.9155766025003045
1783245548599890400,0.348890380859375,-0.022298341047763823,-0.13601597870774565,1.007170378896594
1783245548609902600,0.358902587890625,0.013017887005209922,-0.021132658269256352,0.7799773148346691
1783245548619914500,0.36891455078125,-0.08370470364689826,-0.07437339619994163,0.4884877196900546
1783245548629926400,0.378926513671875,-0.26103169384300706,-0.10504698607884347,0.27604455405771733
1783245548639937500,0.3889375,-0.4994014740228653,-0.15260463687181472,0.18450550352334974
1783245548649949400,0.398949462890625,-0.9852157367199659,-0.2783604297846555,0.09329685398712753
1783245548659961300,0.40896142578125,-1.6305366707623004,-0.5364721445277333,-0.012347002006322145
1783245548669973500,0.418973388671875,-2.2494617653101683,-0.8230196070950477,0.09239654414653778
1783245548679984600,0.428984619140625,-2.712626973825693,-0.9990675172660499,0.33023017162308094
1783245548689996500,0.43899658203125,-2.9576410143256187,-0.9146461897823959,0.7798886136379093
1783245548700008700,0.4490087890625,-2.801224710211158,-0.6701558078303933,1.3147775075621901
1783245548710019600,0.45901953125,-2.3760955101013184,-0.5187586470521987,1.6359715552926062
1783245548720031500,0.469031494140625,-1.897100864291191,-0.563424887252599,1.724208933933079
1783245548730043400,0.47904345703125,-1.2352771237373352,-0.6751052469313145,1.6428915638141333
1783245548740055600,0.4890556640625,-0.6835276228398084,-0.8604583071947097,1.461222891151905
1783245548750066400,0.49906640625,-0.2946574845910072,-0.8318174652524292,1.4375918401956558
1783245548760078300,0.509078369140625,-0.1087736784517765,-0.5780424645394087,1.5249311009526252
1783245548770090500,0.519090576171875,-0.008283259698748588,-0.2561936061620712,1.5441230004176496
1783245548780102400,0.529102294921875,0.23511223968863487,0.062294397480040786,1.4410089551627636
1783245548790113500,0.539113525390625,0.4778028056770563,0.42240152871161696,1.336159464417398
1783245548800125700,0.549125732421875,0.6295172157108784,0.8108809140771627,1.263077277071774
1783245548810138000,0.55913818359375,0.7717775687009095,1.1389622371032833,1.2310983767479657
1783245548820149200,0.569149169921875,0.9448825572878122,1.5110478292897342,1.221616554914415
1783245548830161400,0.579161376953125,1.1467770025074482,1.7386267508640885,1.0630833317112176
1783245548840173300,0.58917333984375,1.3999866244226693,1.760088056565821,0.8021428232830017
1783245548850185500,0.599185546875,1.4823387444168328,1.6915692316129802,0.5647391116563231
1783245548860196400,0.6091962890625,1.4390613282263278,1.562707727769762,0.29384496263172477
1783245548870208300,0.619208251953125,1.2062684713959693,1.4120473568335175,0.09445548597034066
1783245548880220200,0.62922021484375,0.9499047693639993,1.3022798450388013,0.0029415698772296307
1783245548890232300,0.639232421875,0.5791939726620913,1.2683200000308452,0.06334734059907496
1783245548900243200,0.6492431640625,0.17831249410212038,1.2664077366687356,0.21740575647577642
1783245548910255000,0.659255126953125,-0.16779986791610718,1.216230185700953,0.31596286907866594
1783245548920267300,0.669267333984375,-0.5545283179610967,1.0912351480275393,0.2714982889302075
1783245548930278400,0.6792783203125,-0.9057453096419572,0.909827172128111,0.13409640882201493
1783245548940290300,0.689290283203125,-1.1165607279419898,0.7890526747591793,0.04880122111327946
1783245548950302500,0.699302490234375,-1.1812503499954938,0.7551862071231007,-0.06153970665521919
1783245548960314400,0.709314453125,-1.1533230631500482,0.7501533275224268,-0.11868344337381422
1783245548970325200,0.7193251953125,-1.0036761070400475,0.7594539475701749,-0.09560513092949986
1783245548980337400,0.72933740234375,-0.71263739746809,0.8038124369956553,-0.04284457773119211
1783245548990349300,0.739349365234375,-0.3176157508522272,0.7664666028112173,-0.023657719767466185
1783245549000360200,0.749360107421875,0.13276479489207266,0.6685423812843859,-0.008109291371330618
1783245549010372000,0.7593720703125,0.555680410605669,0.5868871575132012,0.023022709799557922
1783245549020384300,0.76938427734375,0.9399795876771211,0.5412864129416645,0.10911240888684988
1783245549030396200,0.779396240234375,1.2662971159011125,0.5529955554358661,0.19331680568419396
1783245549040407300,0.7894072265625,1.4559662857979536,0.5284373066321015,0.23467410399969665
1783245549050419500,0.79941943359375,1.5545137537896632,0.5051951088629663,0.22430585472043602
1783245549060431400,0.809431396484375,1.5612065294265747,0.42218744756951926,0.19667188826575874
1783245549070443300,0.819443359375,1.491810921639204,0.3241623960167169,0.15589030747897922
1783245549080454400,0.829454345703125,1.2354466350853441,0.27684125739336013,0.09897789529822766
1783245549090466300,0.83946630859375,0.8335194468647241,0.2460987669967115,0.005638261615298688
1783245549100478200,0.849478271484375,0.47673839131593704,0.2378130230799317,-0.12612228813767432
1783245549110489300,0.8594892578125,0.17781857310533522,0.2234234093300998,-0.1890634225560352
1783245549120501200,0.869501220703125,-0.050475803261995314,0.14677344650030136,-0.2872677761984989
1783245549130513200,0.87951318359375,-0.2778600790470838,-0.007718173161894082,-0.39087395235188305
1783245549140525300,0.889525390625,-0.3427203814923763,-0.13693608922734857,-0.4126494385693222
1783245549150536200,0.8995361328125,-0.2741062794715166,-0.20178674706146119,-0.3184353966720402
1783245549160548000,0.909548095703125,-0.1995306386977434,-0.2452038639836013,-0.2502053255327046
1783245549170560300,0.919560302734375,-0.10859423023164272,-0.33056115714311596,-0.1840873511765152
1783245549180572200,0.929572265625,-0.07729249851703643,-0.3721373223736882,-0.11730433704033494
1783245549190583300,0.939583251953125,-0.07687748797535895,-0.3670546122819185,-0.028739114684984086
1783245549200595500,0.949595458984375,-0.05984218202233314,-0.4401750858113169,0.0385381127089262
1783245549210607400,0.959607421875,-0.09025427142083645,-0.5601848824180662,0.05942337208837271
1783245549220618200,0.9696181640625,-0.09873977569341659,-0.6869806859031319,0.02240172835700214
1783245549230630100,0.979630126953125,-0.08710311391353606,-0.72335197596699,-0.011552636758238076
1783245549240642300,0.989642333984375,-0.05618015238344669,-0.7019499992370605,-0.042717005828768015
1783245549250654200,0.999654296875,0.016163199293613432,-0.6726040777653456,-0.11872815929837524
1783245549260665000,1.0096650390625,0.08033727304041385,-0.6896436215020716,-0.19512202847525476
1783245549270677200,1.01967724609375,0.08329962997734547,-0.670401453154534,-0.23615451528318224
1783245549280689200,1.029689208984375,0.004175239858031273,-0.6404230789981782,-0.23017105695940554
1783245549290701300,1.039701416015625,-0.10957681152820586,-0.6446480032168328,-0.15213292770683765
1783245549300712400,1.04971240234375,-0.227310626026988,-0.6682626875601708,-0.051272944989055394
1783245549310724400,1.059724365234375,-0.46625148409307,-0.7249287237644195,0.11435622782446443
1783245549320736300,1.069736328125,-0.6853145062565803,-0.7615561805464327,0.29006029299385844
1783245549330747400,1.079747314453125,-0.8542875096052884,-0.7677909832827746,0.4563208955787122
1783245549340759300,1.08975927734375,-0.920264833381772,-0.7618317826174199,0.528272544524446
1783245549350771200,1.099771240234375,-0.979103975841403,-0.6893949074380099,0.5244686952620744
1783245549360783400,1.109783447265625,-1.1134189227849245,-0.5503942868962883,0.5968005756970495
1783245549370794200,1.119794189453125,-1.2000000586509705,-0.31841157740503545,0.7064013526227325
1783245549380806100,1.12980615234375,-1.1777595852702856,-0.06286372180059552,0.7378212308242916
1783245549390818300,1.139818359375,-1.116353222671151,0.06474120611026883,0.6635886313345283
1783245549400830200,1.149830322265625,-1.0223334612369537,0.0993595150269568,0.6027716129306704
1783245549410841300,1.15984130859375,-0.9368728538334369,0.15624591598361728,0.6316377149961888
1783245549420853500,1.169853515625,-0.9084399555534124,0.17487857413068414,0.7338970431178807
1783245549430865400,1.179865478515625,-0.8976929360896349,0.12538842090517283,0.7774027151063084
1783245549440876300,1.189876220703125,-1.0236427902698517,-0.02324994268417358,0.6522891656197607
1783245549450888400,1.199888427734375,-1.1904472174078224,-0.13753420125097035,0.4366685389950871
1783245549460900400,1.209900390625,-1.3348831608712672,-0.11750278222188353,0.19693550763800738
1783245549470912300,1.219912353515625,-1.464270588284731,-0.05533829473182559,-0.04813333178907633
1783245549480923100,1.229923095703125,-1.3192974692046642,0.03941270358636975,-0.2235185402676463
1783245549490935300,1.239935302734375,-0.9595067104458809,0.15727788937985895,-0.34154870736449955
1783245549500947200,1.249947265625,-0.488428244587779,0.16654957559406755,-0.4496523776002228
1783245549510959400,1.25995947265625,0.030775662013888358,0.12861498173624275,-0.5076753813713789
1783245549520970200,1.26997021484375,0.39500820261240005,0.06723112322986126,-0.5178713428236544
1783245549530982100,1.279982177734375,0.5978466506838798,0.06918211116716265,-0.44629108447358007
1783245549540994000,1.289994140625,0.7275245854765177,0.14488383336141705,-0.2502924192942679
1783245549551005400,1.30000537109375,0.8694412395954132,0.15835253287404774,-0.11939721766635775
1783245549561017300,1.310017333984375,0.8877817829281092,0.15224837078005074,0.050082566160708664
1783245549571029200,1.320029296875,0.974741688978672,0.201986653547734,0.29408465313911436
1783245549581041400,1.33004150390625,0.9934475584924221,0.2662587808415294,0.5224824898809194
1783245549591052300,1.34005224609375,0.9905839857548475,0.3579636894620955,0.6555531358517706
1783245549601064200,1.350064208984375,1.0098679474174976,0.4460644361108541,0.7046890688121319
1783245549611076400,1.360076416015625,0.918358707499504,0.5704354966670274,0.7203811434626579
1783245549621087200,1.370087158203125,0.7362731245994567,0.7365491650618612,0.7501335999086499
1783245549631099100,1.38009912109375,0.5887029747635126,0.8869618448473513,0.8521072429567575
1783245549641111300,1.390111328125,0.4049778079628944,0.944801747136563,1.0080790181741117
1783245549651123200,1.400123291015625,0.21210487358868121,0.886679666905105,1.190323298767209
1783245549661134300,1.41013427734375,0.04587035529315471,0.7980847069986164,1.418421714171022
1783245549671146500,1.420146484375,-0.044480946761369704,0.7337832074798644,1.6518154595039785
1783245549681158400,1.430158447265625,-0.16961130125224588,0.7170020224183797,1.765682369441539
1783245549691170300,1.44017041015625,-0.28412089300751686,0.6645252545975149,1.6694712354429064
1783245549701181200,1.45018115234375,-0.42063247321248054,0.5942306521438062,1.4421855977267026
1783245549711193300,1.460193359375,-0.5063385798096657,0.590321954267472,1.1044285377301275
1783245549721205200,1.470205322265625,-0.5166355174183845,0.6505396916039288,0.756325148025155
1783245549731217400,1.480217529296875,-0.4982148945868015,0.7467011412419379,0.3688023327320814
1783245549741228300,1.490228271484375,-0.4409463624447584,0.8616502934582531,-0.0380696184143424
1783245549751240200,1.500240234375,-0.24174890122413634,0.9169961869746446,-0.4410160666801035
1783245549761252000,1.510252197265625,0.04138414978981018,0.8839749379910529,-0.7443333891972899
1783245549771263500,1.520263427734375,0.29729250926971434,0.8211641154214739,-0.9433673304192721
1783245549781275400,1.530275390625,0.5363239682286978,0.7734957707956432,-1.0157343552328646
1783245549791287300,1.540287353515625,0.762625124952197,0.7098571190997958,-0.9941279419720173
1783245549801299500,1.550299560546875,1.011398225724697,0.6506815842926502,-0.8701501185171305
1783245549811309600,1.5603095703125,1.1727741980731488,0.5281606816478074,-0.6613535657588392
1783245549821321500,1.570321533203125,1.277806936430931,0.36396307600736616,-0.3258472072985023
1783245549831333600,1.580333740234375,1.2919284007638692,0.21353899804502724,0.0636473464589566
1783245549841345500,1.590345458984375,1.256513973033428,0.12610066082775592,0.4179887537706643
1783245549851356400,1.6003564453125,1.2152473121434448,0.10180310878679155,0.6922614027850329
1783245549861368300,1.610368408203125,1.153202067118883,0.12960121629461646,0.8733779945224523
1783245549871380500,1.62038037109375,1.209113339433074,0.13648206184953451,0.9651561875749379
1783245549881391600,1.6303916015625,1.2279770298570394,0.1295024320952594,0.9783991155076771
1783245549891403500,1.640403564453125,1.1762439200103283,0.10686024604588747,0.8886860382914543
1783245549901415700,1.650415771484375,1.1347475420176982,0.017685732685774565,0.7410390238270164
1783245549911427600,1.660427490234375,1.0576561190307139,-0.039210897403955454,0.6698118166983127
1783245549921438500,1.6704384765625,0.9333259750068187,-0.09280322525128722,0.6091948509112
1783245549931450600,1.68045068359375,0.8234282609611749,-0.1420731598548591,0.5673050896868109
1783245549941462500,1.690462646484375,0.789162418743968,-0.21885493237078188,0.5536798113729804
1783245549951473400,1.700473388671875,0.7958803288221359,-0.2533952076151967,0.5382311900895088
1783245549961485600,1.710485595703125,0.8570195649176835,-0.2804530181497335,0.49418636972308155
1783245549971497500,1.72049755859375,0.9570008651047944,-0.31075317160636184,0.4145565142996609
1783245549981509400,1.73050927734375,1.0563508816510438,-0.3535004264429211,0.2731548239655793
1783245549991520800,1.740520751953125,1.1084785437732934,-0.3671687401808798,0.07152304827012121
1783245550001532700,1.75053271484375,1.0982488261818886,-0.3811922970972955,-0.10942216895576566
1783245550011544600,1.760544677734375,1.0192577070534228,-0.37523704195469615,-0.2294343401826918
1783245550021556700,1.770556640625,0.9271984320372343,-0.33682708567008374,-0.27022300829738377
1783245550031567600,1.780567626953125,0.8592682206273078,-0.3122432640336454,-0.3042630058694631
1783245550041579500,1.79057958984375,0.7514940746068954,-0.3395587025910616,-0.2542317680371925
1783245550051591700,1.800591796875,0.6614268501907586,-0.4024360145255923,-0.1617418099861592
1783245550061603600,1.810603515625,0.4982078803241253,-0.5142014221392571,-0.042381819057650864
1783245550071614500,1.820614501953125,0.1948784289777279,-0.5990855448290705,0.15709891608376056
1783245550081626400,1.83062646484375,-0.26291093171834945,-0.6632517275303602,0.30188279620204117
1783245550091638500,1.840638427734375,-0.8192080129176378,-0.793029469435662,0.35406807026304304
1783245550101649400,1.8506494140625,-1.2463403695434332,-0.8345927751846611,0.36675789435766637
1783245550111661300,1.860661376953125,-1.5791852537095545,-0.8029621037766337,0.3691790936226025
1783245550121673500,1.870673583984375,-1.8297727104276418,-0.659012044133991,0.41067430257145315
1783245550131685400,1.880685302734375,-1.9132845218509436,-0.4180297433681786,0.44568011296838517
1783245550141696500,1.890696533203125,-1.8517741143554447,-0.25319047882333395,0.37730877019483594
1783245550151708700,1.900708740234375,-1.7258482255727052,-0.22115867926850913,0.1949967946603894
1783245550161720600,1.910720458984375,-1.6056512358307837,-0.25094386894032356,-0.05328877832349389
1783245550171732500,1.920732421875,-1.5522586683392523,-0.2948160361535847,-0.28162513066902756
1783245550181743600,1.93074365234375,-1.5305091933459043,-0.26671047013178467,-0.37245895554348823
1783245550191755500,1.940755615234375,-1.567554437148571,-0.17004574714675544,-0.39866975732725113
1783245550201767400,1.950767333984375,-1.5765817932128905,-0.08943681755810975,-0.4063394882375374
1783245550211778600,1.960778564453125,-1.4880208817064762,-0.027265461935847998,-0.39602366326525806
1783245550221790500,1.97079052734375,-1.3001362571388482,0.030587445965409278,-0.30835111543331295
1783245550231802400,1.98080224609375,-1.0160188712626694,0.03644055590778589,-0.24480160332564263
1783245550241814500,1.990814453125,-0.7677963901102542,-0.09918898076564073,-0.17696122562363742
1783245550251825700,2.00082568359375,-0.6429121193349361,-0.3155748926743865,-0.05755684756413102
1783245550261837600,2.010837646484375,-0.6630307782560586,-0.4804403145737946,0.10883424953259527
1783245550271849700,2.020849609375,-0.6668389383673667,-0.5246162870392203,0.29509938313961026
1783245550281861600,2.030861572265625,-0.5629764128327369,-0.3918681510210037,0.42071795953884716
1783245550291872500,2.04087255859375,-0.26005612680912016,-0.12164324302747845,0.4445405875444412
1783245550301884400,2.050884521484375,0.23073066360354422,0.08090455153435468,0.31854967070147394
1783245550311896600,2.060896484375,0.8021879045337438,0.2502208153627813,0.1529440979592502
1783245550321908500,2.070908447265625,1.21477151132524,0.4096580747336149,-0.0016931407187134027
1783245550331919400,2.08091943359375,1.491488265556097,0.5545601744040847,-0.047203101734258235
1783245550341931500,2.090931640625,1.688140133947134,0.6935366834178567,-0.07247538055889308
1783245550351943400,2.100943359375,1.7448276513308285,0.7568577935971319,-0.09307802360467612
1783245550361954600,2.11095458984375,1.7592291016489265,0.7715227171570063,-0.034142398500628765
1783245550371966700,2.120966796875,1.7318085952818392,0.7840104428082704,0.061976088778488335
1783245550381978600,2.130978515625,1.5671704062670468,0.7814655806310474,0.06803308726251125
1783245550391990500,2.140990478515625,1.270607964837551,0.7195243805028497,0.011203896385803817
1783245550402001700,2.151001708984375,0.753829824078083,0.6736648388646542,0.005416581688635051
1783245550412013600,2.161013671875,0.006172551155090331,0.6022006081096828,-0.027582053604349493
1783245550422025500,2.171025390625,-0.7632844656437635,0.41873964520320295,-0.037070633972249925
1783245550432037600,2.18103759765625,-1.4363409633517263,0.14390885084941982,0.037473479152098296
1783245550442048500,2.191048583984375,-1.9993881033331156,-0.1452751707665622,0.07773140139095484
1783245550452060400,2.201060302734375,-2.3821494033128023,-0.23377003129944204,0.21829919818416235
1783245550462072600,2.211072509765625,-2.429960371279716,-0.11521291771903633,0.43589054035991426
1783245550472083500,2.22108349609375,-1.982532830122113,0.11370543576553463,0.557298221065849
1783245550482095400,2.231095458984375,-1.3107926757097244,0.2079544759109616,0.5169561276748776
1783245550492107500,2.241107421875,-0.5458990213036536,0.10001593310907482,0.2623915109541267
1783245550502119400,2.251119384765625,0.1741302399814129,-0.07380933257639408,0.04857347677201032
1783245550512130600,2.261130615234375,0.647899260097742,-0.11985299860984086,0.016251023707538843
1783245550522142500,2.271142578125,0.80165423604846,-0.10974997613802552,0.21084687288422135
1783245550532154600,2.281154541015625,0.8847627273678779,-0.09528568971678614,0.3463197942238301
1783245550542166500,2.29116650390625,0.9181769211918115,-0.13432692964226006,0.3864767768388614
1783245550552177400,2.301177490234375,0.9497890340298414,-0.17219985644072294,0.34205789899565275
1783245550562189600,2.311189453125,0.9880021525681019,-0.1280433193281293,0.3495874177176505
1783245550572201500,2.321201416015625,1.0329244133561848,-0.03043766223117709,0.3815050163082778
1783245550582212400,2.33121240234375,1.1145248382002115,0.07680369208678603,0.33999168718084694
1783245550592224500,2.341224609375,1.1713164004802703,0.11556421537473797,0.1978016960132867
1783245550602236400,2.351236328125,1.193219604730606,0.07784604074656963,-0.01665551285520196
1783245550612248300,2.361248291015625,1.2140414434850215,0.002009293995797634,-0.2234261127438396
1783245550622259700,2.371259765625,1.1393763708621263,-0.04341916274875402,-0.3229952154008671
1783245550632271600,2.381271728515625,0.9352560662865638,-0.17109627911299466,-0.40803120418414474
1783245550642283500,2.391283447265625,0.6767255416095257,-0.3279965673521161,-0.4337324855431914
1783245550652295700,2.401295654296875,0.30359833141565323,-0.4393463799022138,-0.43844343971312044
1783245550662306600,2.411306640625,-0.039682022047042846,-0.5385660480670631,-0.4306804044961929
1783245550672318500,2.421318359375,-0.2517079851806164,-0.6034165597707033,-0.45071244457978754
1783245550682330600,2.43133056640625,-0.4252957888484001,-0.6517033285558224,-0.5387380436331033
1783245550692342500,2.441342529296875,-0.5496165805220604,-0.6893420082069933,-0.6413050494644791
1783245550702353400,2.451353515625,-0.5799959366947413,-0.697082247070223,-0.7054292196549474
1783245550712365600,2.461365478515625,-0.5650830297231674,-0.6956213807374239,-0.7413614607144147
1783245550722377500,2.47137744140625,-0.5547615421950817,-0.7024447970166802,-0.7376437553655356
1783245550732388600,2.481388671875,-0.4631581942528486,-0.6780455381669104,-0.6673753102663904
1783245550742400500,2.491400390625,-0.4088268846064806,-0.7316990946821867,-0.5281698878675699
1783245550752412700,2.50141259765625,-0.3116992202848196,-0.7444760125383735,-0.36973588725514706
1783245550762424600,2.511424560546875,-0.2581950091123581,-0.7385853470645845,-0.19664010488800704
1783245550772435500,2.521435546875,-0.30283377678394313,-0.7061554881028831,-0.08817600384205579
1783245550782447600,2.531447509765625,-0.3804337338149547,-0.6809142254710197,0.023488208419457077
1783245550792459500,2.54145947265625,-0.5525298376202583,-0.6485749674022198,0.08448365213014185
1783245550802471700,2.5514716796875,-0.7506558702170848,-0.6437512005075812,0.10601042428351938
1783245550812483000,2.561483154296875,-1.001760044285655,-0.6700631611108779,0.09141586254611611
1783245550822495000,2.571494873046875,-1.2681325146347284,-0.6873119636841118,0.09734196465946733
1783245550832507100,2.581507080078125,-1.5235709185153246,-0.6436234824746847,0.1502308934777975
1783245550842518000,2.59151806640625,-1.6808751113802194,-0.5475950115665793,0.2938927838288247
1783245550852530000,2.601530029296875,-1.7140473131418228,-0.3515310260660946,0.5092410963181406
1783245550862541800,2.611541748046875,-1.5697686060667038,-0.12720920659154653,0.6882340469650924
1783245550872554000,2.621553955078125,-1.3216741352081298,-0.04613441305682063,0.7300394909068941
1783245550882565000,2.631565185546875,-1.0820903030633926,-0.06918167277574538,0.7194147095832973
1783245550892577000,2.641576904296875,-0.8970669131457805,-0.05991846212893724,0.749136551695317
1783245550902589200,2.651589111328125,-0.7184744330585002,-0.03637406654283404,0.7727486056901514
1783245550912601000,2.66160107421875,-0.6700140612721442,-0.05395195493996143,0.6477743916090577
1783245550922612000,2.671612060546875,-0.7654477811574936,-0.10536664648726582,0.41800051727369425
1783245550932624100,2.6816240234375,-0.986129344433546,-0.1269024787299335,0.08638561329394578
1783245550942636000,2.691635986328125,-1.2990356024205685,-0.1673607458464801,-0.29758805815018713
1783245550952648000,2.70164794921875,-1.4616174434274434,-0.17977584465295077,-0.5706330650657415
1783245550962659000,2.7116591796875,-1.479417888534069,-0.10929039580225944,-0.7507005861416458
1783245550972671000,2.7216708984375,-1.32275550070405,-0.013502309521287678,-0.9010600744351744
1783245550982683000,2.731682861328125,-0.9234265122830867,0.06112652274444699,-1.1027766788698732
1783245550992694000,2.741694091796875,-0.456928359952569,0.16556290264427662,-1.200689575285092
1783245551002706200,2.7517060546875,0.017809212934970856,0.16023644692450761,-1.2598217824071645
1783245551012718000,2.761718017578125,0.41322482730448246,0.11152136972472071,-1.286065061688423
1783245551022730200,2.771730224609375,0.6175842013329267,0.13794921179264782,-1.233865503373742
1783245551032741000,2.7817412109375,0.7298539052069186,0.2671756034255028,-1.1016753665644674
1783245551042753000,2.7917529296875,0.7565180402487516,0.4161361847065389,-0.9109296534772962
1783245551052765200,2.80176513671875,0.7612298712015152,0.5461836834639311,-0.6475524924866854
1783245551062777000,2.811777099609375,0.7410510065257548,0.6739120916239917,-0.30674744309633967
1783245551072788000,2.8217880859375,0.7310445762962102,0.8127550373859703,0.08804112541601061
1783245551082799900,2.8317998046875,0.6671914050668477,0.8887751778796315,0.399051998110488
1783245551092812000,2.84181201171875,0.6246253520160913,0.8723942441821098,0.6554723987657577
1783245551102824000,2.851823974609375,0.48693654472529885,0.7265919808015227,0.8006955470841377
1783245551112834800,2.861834716796875,0.24580080696344375,0.4898614922612905,0.8822727371830492
1783245551122847000,2.871846923828125,-0.04579436744749546,0.24691154468432067,0.9542179563879967
1783245551132859000,2.88185888671875,-0.4061111959069967,0.06376037837937473,1.0174411591507493
1783245551142870000,2.8918701171875,-0.7030512384772301,-0.06910860753953456,0.993104444143176
1783245551152882200,2.901882080078125,-0.912019567605853,-0.10666925351843237,0.8717667599335313
1783245551162894000,2.91189404296875,-1.036632035702467,-0.003136252199113369,0.6570291997537017
1783245551172906000,2.921906005859375,-0.9758522805690765,0.20558833130151033,0.4507417802721262
1783245551182917000,2.931917236328125,-0.6731926913082599,0.5061132466211915,0.28086919773519037
1783245551192929000,2.941928955078125,-0.1846995647907257,0.6874909735128283,0.035677462580800054
1783245551202941000,2.95194091796875,0.4066390191733837,0.6692512602061033,-0.24881058323867616
1783245551212953000,2.961953125,0.9340800082445144,0.589025776977092,-0.4315803490106016
1783245551222964000,2.9719638671875,1.3435364229261875,0.5619193049952388,-0.39465610123910005
1783245551232976000,2.981975830078125,1.4922785391509532,0.5039024387039244,-0.3256380215272307
1783245551242988000,2.991988037109375,1.5723264738559721,0.3974839450761676,-0.18214089328385888
1783245551253000000,3.002,1.602085067781806,0.35234935671165585,0.015121946612372993
1783245551263011000,3.012010986328125,1.4912071105271576,0.3494502742692828,0.11448445731401442
1783245551273023200,3.022023193359375,1.4541571905493735,0.3619115503050387,0.14309088553003965
1783245551283035100,3.03203515625,1.4072317732453345,0.41258316840007897,0.08583506673909723
1783245551293046000,3.0420458984375,1.4459551793932914,0.4657622392714023,0.014605667653307317
1783245551303058000,3.052057861328125,1.5088386288076638,0.4891964524812996,-0.029325097879394888
1783245551313070000,3.062070068359375,1.5398247187018395,0.40886707048639653,-0.016616422953829167
1783245551323082000,3.07208203125,1.5005442631930113,0.30304683501273394,-0.0020346476327627898
1783245551333092900,3.0820927734375,1.3579326125472784,0.18204554315060376,0.021792364287003874
1783245551343105000,3.09210498046875,1.2428881832629441,0.07338584646731615,0.11611695388667284
1783245551353117000,3.102116943359375,1.0186135639309883,0.02566270291432738,0.17025310628712176
1783245551363129000,3.112129150390625,0.7372732415527105,-0.024715485192090273,0.18557941636517644
1783245551373140200,3.12214013671875,0.5468447777211666,-0.03497735148742795,0.1372494660254568
1783245551383152000,3.132152099609375,0.48129473944604395,-0.04098024516403675,0.0017714666519314049
1783245551393164000,3.1421640625,0.4765840775370598,-0.06528934151232242,-0.14435001874566078
1783245551403176200,3.15217626953125,0.43642567014992234,-0.11733283248245716,-0.27722894153669475
1783245551413187000,3.16218701171875,0.3754419168770313,-0.24166648363769053,-0.5170973627764731
1783245551423199000,3.172198974609375,0.35439971337020393,-0.29497166510671374,-0.6497190228708088
1783245551433211100,3.182211181640625,0.2961924390733242,-0.39926951331868765,-0.7482005860194564
1783245551443222000,3.192221923828125,0.22516952234506607,-0.4594431192524731,-0.8086568813521414
1783245551453234000,3.20223388671875,0.21247429142296312,-0.4977469848141074,-0.7902376467600465
1783245551463246000,3.21224609375,0.22514321886003016,-0.503000521428138,-0.7281045042563229
1783245551473258000,3.222258056640625,0.2328834577232599,-0.5241625519223511,-0.6938103857927024
1783245551483268900,3.232268798828125,0.23811200602650642,-0.530484010028839,-0.6451310374934226
1783245551493281000,3.242281005859375,0.20762451330423354,-0.6188689804464578,-0.5946455896202475
1783245551503293000,3.25229296875,0.20676117447316644,-0.7005385250039399,-0.5029309633232653
1783245551513304800,3.262304931640625,0.1320142687857151,-0.7365376207545399,-0.3625736674755812
1783245551523316200,3.272316162109375,0.068994041249156,-0.7345743578575551,-0.15129377346895634
1783245551533328100,3.282328125,0.019263503396511075,-0.7570128380283713,0.0013220423839986324
1783245551543340000,3.292340087890625,-0.16421441064476966,-0.8387441957756876,-0.00013159049041569233
1783245551553352200,3.302352294921875,-0.46162499333620066,-0.911033186917007,0.08294087966755032
1783245551563363000,3.312363037109375,-0.8049000861018896,-0.9333163303956389,0.22413711055740712
1783245551573375000,3.322375,-1.0884341191321611,-0.918657105924189,0.350839390540123
1783245551583387100,3.33238720703125,-1.360342596298456,-0.8862634873196482,0.46225993023887274
1783245551593398000,3.34239794921875,-1.6533973218679427,-0.9260197436466813,0.4823259821899235
1783245551603410000,3.352409912109375,-1.794333732777834,-0.9432343516893684,0.45998175617381926
1783245551613421800,3.362421875,-1.792656739476323,-0.8218918451741337,0.46847266727387904
1783245551623434000,3.37243408203125,-1.6598276471763849,-0.5741061480037868,0.474596922307834
1783245551633445000,3.382445068359375,-1.4369120412379501,-0.301359758708626,0.3995611897416413
1783245551643457000,3.39245703125,-1.1172229912430047,-0.12075740010365843,0.2289516712322831
1783245551653469200,3.40246923828125,-0.8240461005985736,-0.015116905111074446,0.04387216721326113
1783245551663481000,3.412481201171875,-0.6116513041526079,0.09143120624572038,-0.013749343084916472
1783245551673492000,3.422491943359375,-0.3984913685530424,0.2128137525103986,-0.028735461423173545
1783245551683504000,3.432504150390625,-0.20178981580138206,0.26586846634969113,-0.04525551133044064
1783245551693516000,3.44251611328125,0.008113163828849792,0.3162017924010753,-0.05922711886391043
1783245551703528000,3.45252783203125,0.1646791055470705,0.38856267973482606,-0.12448913397789
1783245551713539000,3.4625390625,0.25397008489370343,0.4062481201596558,-0.2263498912360519
1783245551723551000,3.472551025390625,0.2859697357445955,0.45527080200389025,-0.23479279847592113
1783245551733563000,3.48256298828125,0.1675812567293644,0.42163638955801724,-0.2570449622943997
1783245551743575000,3.492574951171875,-0.0472562566936016,0.2552902275815606,-0.3472524719640612
1783245551753586200,3.502586181640625,-0.2818102779775858,0.13595993767157197,-0.3573596591543406
1783245551763598000,3.51259814453125,-0.5968401039898396,0.185356421264261,-0.23609109465815126
1783245551773610200,3.5226103515625,-0.9555524198621511,0.2693449102886021,-0.13936317024379968
1783245551783621000,3.53262109375,-1.2142360892742872,0.2661721254713833,-0.1173952301941812
1783245551793633000,3.542633056640625,-1.3580647144943474,0.21258973449617624,-0.07643814671002327
1783245551803645200,3.552645263671875,-1.358054777622223,0.19851357060968874,-0.06426357866115867
1783245551813657000,3.562656982421875,-1.1787339832603931,0.2856689992323518,-0.03086187899261713
1783245551823668000,3.57266796875,-0.8298322827845811,0.3875583249978721,-0.057398442132025954
1783245551833680000,3.582679931640625,-0.4086386685580015,0.520979245711118,-0.14499635382518172
1783245551843691800,3.59269189453125,-0.05964987432062625,0.6434145158991217,-0.20262224803753195
1783245551853704000,3.602703857421875,0.1921194856584072,0.7696962323822081,-0.20408859426304696
1783245551863714800,3.61271484375,0.2883919944554567,0.8448501114353537,-0.278849601541087
1783245551873726700,3.622726806640625,0.25257658470869065,0.8876610791578888,-0.3615988310940563
1783245551883739000,3.63273876953125,0.15238076498806477,0.9265329538658261,-0.5249763525232672
1783245551893750800,3.642750732421875,-0.0374444722533226,0.9219723679520189,-0.6456133411176502
1783245551903762000,3.652761962890625,-0.28509295291006564,0.8649486043512821,-0.7978172882340848
1783245551913774000,3.662774169921875,-0.5039484698027372,0.8746092898830771,-0.8428218935433774
1783245551923786000,3.672785888671875,-0.8130220177590847,0.9032128685548901,-0.7545848071638495
1783245551933796900,3.682796875,-1.1010942787408828,0.8474186467491089,-0.6405755661461502
1783245551943809000,3.69280908203125,-1.3176555472165346,0.7039220299623906,-0.5218915382504463
1783245551953821000,3.702821044921875,-1.4960171411573886,0.5625657862052321,-0.42126178409196435
1783245551963832800,3.712832763671875,-1.5746066937476395,0.48472968233078717,-0.2648551245886832
1783245551973844000,3.722843994140625,-1.5777701262146233,0.48390389903113246,-0.06051533204354345
1783245551983855900,3.73285595703125,-1.4221686456143856,0.5078967690370977,0.14226451770849524
1783245551993867800,3.74286767578125,-1.0579875429421663,0.4670305056415498,0.26726335477419194
1783245552003880000,3.7528798828125,-0.6012146658122539,0.3940697527185082,0.3327438349444419
1783245552013891000,3.76289111328125,-0.1631412284553051,0.3247933873966336,0.38700690166018903
1783245552023903000,3.772903076171875,0.20256956800222395,0.2896218285113573,0.4689006103623658
1783245552033915100,3.7829150390625,0.4816361002296209,0.28956191501766443,0.5231638232085853
1783245552043927000,3.792927001953125,0.7209253333419561,0.2843073554903269,0.6106652887899429
1783245552053938000,3.80293798828125,0.8911936371982098,0.30528219284936786,0.5656221050359308
1783245552063950000,3.8129501953125,1.029466381856799,0.3241553817540407,0.5561889446496964
1783245552073962000,3.8229619140625,1.1645745250046253,0.3063742258697748,0.5810460302695631
1783245552083972900,3.832972900390625,1.2858400207608938,0.33492855857238174,0.5911598663963377
1783245552093984800,3.84298486328125,1.4423480948120355,0.3972264631837606,0.5536223820973187
1783245552103997000,3.852996826171875,1.5890385392040014,0.407452527513355,0.4832205198768526
1783245552114008800,3.8630087890625,1.6444138049453496,0.3498039100125432,0.3793199273541569
1783245552124020000,3.87302001953125,1.6884774030774832,0.28598420266136526,0.32771022469140587
1783245552134032100,3.8830322265625,1.6479577611625194,0.2713166487529874,0.3054283233217895
1783245552144044000,3.8930439453125,1.4890367807507514,0.18043138595223426,0.2065325533490628
1783245552154056000,3.903055908203125,1.2716764708518982,0.045761195830255744,0.0837913590170443
1783245552164067000,3.913067138671875,1.0238649085879326,-0.048087592951208354,-0.024088293204456566
1783245552174079000,3.923078857421875,0.702903938961029,-0.08916618392318487,-0.14008384920116512
1783245552184091000,3.9330908203125,0.5023492179125547,-0.13257102588564157,-0.17022000773511825
1783245552194103000,3.94310302734375,0.4236515287727117,-0.17185703435242175,-0.17228234709240495
1783245552204114000,3.953114013671875,0.4019213430017233,-0.16430559605956077,-0.09780980136692523
1783245552214125800,3.963125732421875,0.44653263814449307,-0.19279606974571942,-0.02240362805314362
1783245552224138000,3.973137939453125,0.4964063838601112,-0.2865137794934213,0.06579707183875143
1783245552234150000,3.98314990234375,0.5722784941852093,-0.3754068455636501,0.1259635904446244
1783245552244160800,3.993160888671875,0.5968383504241704,-0.44198038166761394,0.13083572652563452
1783245552254173000,4.0031728515625,0.5937094047486782,-0.5126834187917411,0.074217913377285
1783245552264184800,4.013184814453125,0.5395172113120555,-0.5376499561354517,0.02699607040993869
1783245552274196000,4.023196044921875,0.40382980697154996,-0.5527493255898356,-0.05708564985580742
1783245552284208000,4.0332080078125,0.3321469650298357,-0.5329617983192205,-0.15627112349011002
1783245552294220000,4.043219970703125,0.3307774302423,-0.48769598479047416,-0.21703933431617914
1783245552304232000,4.05323193359375,0.35168051753938195,-0.4568602631524205,-0.2961177664019167
1783245552314242800,4.063242919921875,0.39675007784366606,-0.42426673806160686,-0.38506504687741394
1783245552324255000,4.0732548828125,0.3566092061132192,-0.4343102854311466,-0.5529935826744884
1783245552334267000,4.083266845703125,0.23154665616154668,-0.4415767693027854,-0.62858621847108
1783245552344279000,4.093279052734375,-0.09863280818760395,-0.46148967651873823,-0.639355230570957
1783245552354290000,4.1032900390625,-0.43822015235126016,-0.5141321562953293,-0.6566173310171812
1783245552364301800,4.1133017578125,-0.6947218015491962,-0.5499670013949275,-0.6453288250878453
1783245552374313700,4.123313720703125,-0.8126713046252727,-0.4254857584625482,-0.5462249653223902
1783245552384326000,4.133325927734375,-0.8759574896216392,-0.2201533016182482,-0.44678588225319976
1783245552394337000,4.1433369140625,-0.9296528394520283,-0.10265972561612724,-0.4372321642272174
1783245552404349000,4.153348876953125,-0.9517384145319461,-0.10251827131882309,-0.5093902224652469
1783245552414361000,4.163361083984375,-1.1041238556951283,-0.13926277860924602,-0.6253500860940665
1783245552424373000,4.173373046875,-1.302143505308032,-0.13671148669123648,-0.6348076502691954
1783245552434384000,4.1833837890625,-1.473265211123228,-0.08079203107059002,-0.5184993385288864
1783245552444396000,4.19339599609375,-1.5985446186959742,0.011643968303501605,-0.36034678520634766
1783245552454408000,4.203407958984375,-1.637182100126147,0.10200944501385092,-0.25756350627578795
1783245552464418800,4.213418701171875,-1.6174211686015127,0.058061143824458115,-0.32374738547503945
1783245552474431000,4.223430908203125,-1.5011504123926163,-0.03301218889430165,-0.463599508279562
1783245552484443000,4.23344287109375,-1.3526771762371061,-0.08331248945891857,-0.6073824677269906
1783245552494454800,4.243454833984375,-1.1498662006944418,-0.03133285750523209,-0.7812546412941068
1783245552504466200,4.253466064453125,-0.9342875135153531,0.01883241850286722,-0.9747400815434754
1783245552514478000,4.26347802734375,-0.7053425642848015,0.09545490880385041,-1.1201747537206859
1783245552524490000,4.273489990234375,-0.49568508384823795,0.10888634504601359,-1.2747659612998365
1783245552534502100,4.283502197265625,-0.2550344992548227,0.06670739161670207,-1.4158365199834106
1783245552544513000,4.293512939453125,-0.11587386584579944,0.025302783560752867,-1.534924087178707
1783245552554525000,4.30352490234375,-0.07585808179974556,0.053112435375899075,-1.5906465589225292
1783245552564537000,4.313537109375,-0.10648761334121226,0.0951361982434988,-1.6333473442688584
1783245552574549000,4.323549072265625,-0.19991291601359842,0.0716748047657311,-1.6761194412857292
1783245552584559900,4.333559814453125,-0.35113574313819407,0.04568009341806173,-1.6961346398323773
1783245552594571800,4.34357177734375,-0.3502379175156355,0.15003610155805944,-1.5759939103223382
1783245552604584000,4.353583984375,-0.2373807691425085,0.3765644911661744,-1.3966966429665684
1783245552614594800,4.3635947265625,-0.08171031495928764,0.5245891067713498,-1.2426055669292806
1783245552624606700,4.373606689453125,0.18697335494160652,0.5872583289131522,-1.1189762646511197
1783245552634619000,4.383618896484375,0.4514426220178604,0.6383617625541985,-1.0073740847751498
1783245552644630800,4.393630859375,0.6253817233413458,0.6677002313718199,-0.8694830329105258
1783245552654642000,4.403641845703125,0.7037076565593481,0.7318228671923279,-0.699662107495591
1783245552664654000,4.413654052734375,0.6893260799854993,0.78522332572937,-0.525460775039345
1783245552674666000,4.423666015625,0.5215197823286056,0.7124250698916613,-0.43255335876122114
1783245552684678000,4.433677978515625,0.2622363934576511,0.5619762958794832,-0.3865633226111531
1783245552694689000,4.44368896484375,-0.09160451698601245,0.4675771797388792,-0.3784481129556894
1783245552704701000,4.453700927734375,-0.49986090822815893,0.48424818242415785,-0.39609482880532737
1783245552714712800,4.463712890625,-0.8740934493154286,0.5469790716253221,-0.4701584284037351
1783245552724725000,4.47372509765625,-1.1361720218628644,0.572911239130795,-0.6059042849332094
1783245552734736000,4.48373583984375,-1.3077286119639873,0.5417288960121571,-0.7732486641667783
1783245552744747800,4.493747802734375,-1.3390513864666223,0.5686242094613612,-0.9521474337242544
1783245552754760000,4.503760009765625,-1.1888345215141773,0.6431339453920721,-1.0774988836199044
1783245552764771800,4.513771728515625,-0.9259744432002306,0.6909224092662334,-1.3089517240181565
1783245552774783000,4.523782958984375,-0.6050467913210391,0.6500678363084793,-1.6092198880977928
1783245552784795100,4.533795166015625,-0.35078561452627177,0.6171716750092804,-1.88602475900352
1783245552794807000,4.54380712890625,-0.21799802328050136,0.6319592020355165,-2.088615515924245
1783245552804819000,4.55381884765625,-0.17176175728440285,0.693303897575289,-2.2226158439606425
1783245552814829800,4.563829833984375,-0.21866379371285438,0.7953875768691301,-2.3062959976881743
1783245552824842000,4.573842041015625,-0.31635026096105573,0.8687265154547988,-2.3429138098590077
1783245552834854000,4.58385400390625,-0.38358313775658603,0.91355452208817,-2.2967910872399804
1783245552844864800,4.59386474609375,-0.442881129899621,0.9192924812182783,-2.217080421665311
1783245552854877000,4.603876953125,-0.4016916258990764,0.9864527311690151,-2.017664787649363
1783245552864888800,4.613888916015625,-0.33239655587673184,1.0421994605712592,-1.7615432238101958
1783245552874900700,4.623900634765625,-0.1864034460991621,1.067484562344849,-1.514942206379771
1783245552884912000,4.633912109375,-0.06881693111658096,1.072177104075253,-1.307290805068612
1783245552894924000,4.643924072265625,0.07386310859024524,1.111092233403027,-1.132879044732079
1783245552904936000,4.65393603515625,0.1862982321590185,1.1614423644587397,-0.9586107114542275
1783245552914948000,4.663947998046875,0.20968144583404064,1.2073074590548871,-0.8220663980234414
1783245552924959000,4.673958984375,0.17043606163859365,1.2329378671348095,-0.725841381629929
1783245552934971000,4.683970947265625,0.08231471059322357,1.2786214676842094,-0.6520052341118454
1783245552944983000,4.693983154296875,-0.030661680245399472,1.3156377776533363,-0.5986646160032599
1783245552954995000,4.703994873046875,-0.06222936941981315,1.4555349086433649,-0.5193609237942844
1783245552965005800,4.714005859375,-0.09786533094644546,1.5923141998738048,-0.4390909438364207
1783245552975017700,4.724017822265625,-0.001647182685136795,1.62066205021888,-0.26210019985735417
1783245552985030000,4.73402978515625,0.1265413903325796,1.5873051395401359,-0.09887034327052532
1783245552995041800,4.744041748046875,0.25009762737452984,1.5030711513221262,-0.009872866977751254
1783245553005053000,4.754052978515625,0.3842600141048431,1.480281519626081,0.06268726925514638
1783245553015064800,4.76406494140625,0.3909364231288433,1.5142083391472696,0.09826470552757381
1783245553025077000,4.774076904296875,0.30761750392913817,1.5453674475207924,0.10838804013505578
1783245553035088000,4.784087890625,0.2776829689145088,1.5184130973607302,0.12204225228242575
1783245553045100000,4.79410009765625,0.2393459317356348,1.5105249744594096,0.14111154828108846
1783245553055112000,4.80411181640625,0.18459668893814085,1.5426362689912319,0.15948182916492223
1783245553065123800,4.814123779296875,0.1299140816360712,1.538092780342698,0.1427778009928763
1783245553075135000,4.824135009765625,0.1393938576430082,1.5238672711133956,0.10450297886263578
1783245553085147000,4.83414697265625,0.10690846910178661,1.528566242584586,0.08608027367182075
1783245553095158800,4.84415869140625,0.020934651479125023,1.519865926517546,0.059659518931806085
1783245553105171000,4.8541708984375,-0.12209785492718218,1.4512886493757367,0.07812620939482003
1783245553115181800,4.864181884765625,-0.2870084311425686,1.4694497444882988,0.17656784239187837
1783245553125193700,4.87419384765625,-0.37594577474594115,1.5351824458539485,0.3199028023434803
1783245553135206000,4.884205810546875,-0.41404841864705083,1.561873761163652,0.40665239011161025
1783245553145217800,4.8942177734375,-0.4167950870066881,1.5374883847087621,0.4916359911205247
1783245553155229000,4.90422900390625,-0.3771715171486139,1.5152517107203602,0.5572318778313696
1783245553165241000,4.914240966796875,-0.36290859851837154,1.4751406496062873,0.5462440353490412
1783245553175253000,4.9242529296875,-0.3385170845836401,1.4771642643883824,0.5352324466649443
1783245553185265000,4.934264892578125,-0.2615489957153797,1.5601161038413642,0.5720443931683897
1783245553195275800,4.94427587890625,-0.1961106011211872,1.6777245383948087,0.5981164440685883
1783245553205288000,4.954287841796875,-0.10009294386804103,1.7362787264332173,0.6046903790988027
1783245553215299800,4.9642998046875,-0.007948328655958176,1.7780135893568396,0.6291529124431312
1783245553225310700,4.974310791015625,0.031415128961205484,1.856820584090054,0.6864487709835171
1783245553235323000,4.984322998046875,-0.0243558580994606,1.9465613530308008,0.7518464682411402
1783245553245334800,4.994334716796875,-0.259532395195961,1.8924910324081778,0.7988517458483576
1783245553255347000,5.004346923828125,-0.6623784518271685,1.6586507123515009,0.7593513639785349
1783245553265358000,5.014358154296875,-1.25112058955729,1.3368985923469066,0.7140183304324745
1783245553275370000,5.024369873046875,-1.8858388810425997,1.0920476334542035,0.6609374592386186
1783245553285382000,5.0343818359375,-2.443836336418986,0.9559674304038286,0.5208783426199108
1783245553295394000,5.04439404296875,-2.718102190366387,0.8851005810201168,0.5222155825730412
1783245553305405000,5.054405029296875,-2.721625688317418,0.837811006578803,0.506029221599549
1783245553315416800,5.064416748046875,-2.460384735637903,0.9051517276629805,0.4684552777476608
1783245553325429000,5.074428955078125,-1.9192828854829072,0.9874328282475471,0.40412535585202275
1783245553335441000,5.08444091796875,-1.2668529962182045,1.069310316467285,0.2592668030623346
1783245553345451800,5.09445166015625,-0.713527039784193,1.177517154816538,0.17903182135261594
1783245553355464000,5.1044638671875,-0.3020838351994753,1.2218114929646253,0.16173991029001772
1783245553365475800,5.114475830078125,-0.009900631767511367,1.2086851771488785,0.15761735046729444
1783245553375487700,5.12448779296875,0.3669628423452377,1.180685117328167,0.17082272286862135
1783245553385499000,5.134498779296875,0.7520534620553254,1.1648442818567155,0.24966917282938955
1783245553395510800,5.1445107421875,1.04720077598989,1.1559016814664005,0.3059353229958564
1783245553405523000,5.15452294921875,1.3228396718561648,1.0564461587190628,0.3342019247982651
1783245553415534800,5.164534912109375,1.5359394017010926,0.9005340047344564,0.3157034874901175
1783245553425546000,5.1745458984375,1.5492378592133522,0.8479086222231388,0.3406734954325482
1783245553435558000,5.184557861328125,1.4581412917494774,0.882559956626594,0.3553041148640215
1783245553445570000,5.194570068359375,1.1667062763363123,0.856285697685182,0.32901045710239557
1783245553455581000,5.204580810546875,0.7179138765662908,0.7450584886014461,0.22592297106087206
1783245553465592800,5.2145927734375,0.22487200070321559,0.6144222301706671,0.0512999791264534
1783245553475605000,5.22460498046875,-0.21921382881104945,0.5155693494915962,-0.06443634141217917
1783245553485617000,5.234616943359375,-0.5715004955500363,0.5124254985079169,-0.1122132609790191
1783245553495627800,5.244627685546875,-0.7522451852351426,0.4729869298279285,-0.19930293088909237
1783245553505639700,5.2546396484375,-0.8272685697764158,0.40477351756244895,-0.2709239961735904
1783245553515651800,5.26465185546875,-0.7332149060726165,0.4198337240502238,-0.3231290343809873
1783245553525663700,5.274663818359375,-0.6644593497544526,0.4445741975530982,-0.4162348958406597
1783245553535675000,5.2846748046875,-0.44224750817120073,0.49051440321207046,-0.40014567509870974
1783245553545687000,5.29468701171875,-0.32724633350670335,0.46574353457093237,-0.35466420952528716
1783245553555699000,5.304698974609375,-0.17803192359507083,0.4645718604430556,-0.3242902236474678
1783245553565710800,5.3147109375,0.025539514926075934,0.5200172688111663,-0.24099340668171643
1783245553575722000,5.324721923828125,0.3061655515551567,0.5775187329262494,-0.2741514337874949
1783245553585734000,5.33473388671875,0.47008828577697276,0.570587472358346,-0.2982990559637546
1783245553595745800,5.344745849609375,0.4880839611947536,0.51278351816535,-0.32340825318116695
1783245553605758000,5.354758056640625,0.38236733222603797,0.4609714978635311,-0.3385441917862743
1783245553615768800,5.364768798828125,0.38557460383474823,0.48529520725905895,-0.35865605564042924
1783245553625780700,5.37478076171875,0.28214871615171433,0.5955347204796969,-0.3572456773858517
1783245553635793000,5.38479296875,0.2692944952756166,0.7084734096564352,-0.36804669205918905
1783245553645804800,5.3948046875,0.2222609414219856,0.3361576619759202,-0.6985383641626686
1783245553655816000,5.40481591796875,0.26423428927659987,0.17761033718213437,-0.7367168497789651
1783245553665828000,5.414828125,0.13521744874119757,0.29240619853287936,-0.6148102065749466
1783245553675840000,5.424840087890625,-0.0812368522286415,0.21226561710834502,-0.6147394794262945
1783245553685851000,5.434850830078125,-0.13480419176518915,0.1359473704509437,-0.6987846670739353
1783245553695863000,5.444863037109375,-0.2639437818974256,0.09323241044878959,-0.7608071157447993
1783245553705875000,5.454875,-0.3707271633148193,0.08045169320032,-0.847147282461822
1783245553715886800,5.464886962890625,-0.45011225019693374,0.026169921784102917,-0.9452092319589108
1783245553725897700,5.474897705078125,-0.46703941960036754,-0.0031853520378470417,-1.0179333265818655
1783245553735910000,5.484909912109375,-0.3546773612678051,0.003358662778139114,-1.010736620010808
1783245553745921800,5.494921875,-0.2484779172182083,0.06155702311620116,-1.0770096387982369
1783245553755934000,5.504933837890625,-0.289182268050313,0.06202332545369863,-1.222388123808801
1783245553765944800,5.51494482421875,-0.25901041714847084,-0.006358136855065822,-1.4985563042461871
1783245553775957000,5.52495703125,-0.20457330904006957,-0.10480448255985975,-1.7073652050293981
1783245553785969000,5.534968994140625,-0.1862421180576086,-0.08525120243653654,-1.7734914357572793
1783245553795981000,5.54498095703125,-0.21465338902771472,-0.027878040876239536,-1.7911447274781762
1783245553805992000,5.554991943359375,-0.19067337850332258,-0.014637158770114183,-1.8171410462610422
1783245553816004400,5.56500439453125,-0.08007482271194458,-0.02203092228323221,-1.7737836967021225
1783245553826016500,5.5750166015625,-0.08142389923334122,0.00027136428728699683,-1.657198613847047
1783245553836028400,5.5850283203125,-0.20202830073237418,0.006602905396372079,-1.6025512239888309
1783245553846039300,5.595039306640625,-0.22283903357088564,-0.057111734145134686,-1.5426095271147786
1783245553856051200,5.60505126953125,-0.21008944211304187,-0.09006181758865714,-1.5002758215151726
1783245553866063400,5.6150634765625,-0.23538813402056694,-0.09843962370306253,-1.439956231239438
1783245553876074200,5.62507421875,-0.2530792735338211,-0.08720832785367966,-1.3685270717978477
1783245553886086100,5.635086181640625,-0.17009996155202387,0.0060267129436135285,-1.3121410215787588
1783245553896098300,5.645098388671875,-0.1867512366235256,0.06460311281383037,-1.2572574848771094
1783245553906110200,5.655110107421875,-0.18193828338384627,0.04212751550301909,-1.1097020211536437
1783245553916121300,5.665121337890625,-0.17377251258492468,-0.08492313952594994,-1.046280592405051
1783245553926133500,5.675133544921875,-0.179279293307662,-0.16891382050737738,-0.9009710809774696
1783245553936145400,5.6851455078125,-0.1786222907036543,-0.24789295693710445,-0.7686279455635696
1783245553946157300,5.6951572265625,-0.1711480093002319,-0.3697407826259732,-0.702470369849354
1783245553956168400,5.70516845703125,-0.18051380353868007,-0.4673842875152826,-0.645087855938822
1783245553966180400,5.715180419921875,-0.17056173384487627,-0.5037313199207186,-0.596671505957283
1783245553976192300,5.725192138671875,-0.23449323100745675,-0.4771171615004539,-0.5501005281141027
1783245553986204400,5.735204345703125,-0.2693272285014391,-0.4561782722376287,-0.3846541645215824
1783245553996215300,5.74521533203125,-0.2889239093750715,-0.5037269360065459,-0.3722920745439827
1783245554006227200,5.755227294921875,-0.495880898681283,-0.6002749007441103,-0.41780842876769597
1783245554016239400,5.7652392578125,-0.6300152283608913,-0.612522972420603,-0.488990043189004
1783245554026251300,5.775251220703125,-0.696212332367897,-0.6064848613001406,-0.5209801955591887
1783245554036262400,5.785262451171875,-0.7521329570323229,-0.6059886022157966,-0.5447947863887995
1783245554046274300,5.7952744140625,-0.8148854735434055,-0.5740807213015854,-0.6214724409431219
1783245554056286200,5.8052861328125,-0.9164870684087276,-0.6192791686825454,-0.7335335435677319
1783245554066298400,5.81529833984375,-1.0662912609070538,-0.6226644272066653,-0.8489032592836767
1783245554076309200,5.825309326171875,-1.1578823338896036,-0.6025250177584588,-0.8811098308835178
1783245554086321400,5.8353212890625,-1.1040788475096226,-0.462302308075875,-0.9151628340676426
1783245554096333300,5.845333251953125,-1.0964286250174045,-0.3917262583322823,-0.8603397953815758
1783245554106344200,5.85534423828125,-0.9131851042538881,-0.3109910720154643,-0.786248138732463
1783245554116356400,5.8653564453125,-0.7747294042438269,-0.2184567268334329,-0.6884494432814419
1783245554126368300,5.8753681640625,-0.6526531766265631,-0.25433891820609567,-0.6570921819873153
1783245554136380400,5.88538037109375,-0.4728671028405428,-0.3606932605564594,-0.6853345261313021
1783245554146391300,5.895391357421875,-0.3289706730812788,-0.3844493991971016,-0.6535254294164479
1783245554156403200,5.9054033203125,-0.24348200862705707,-0.3803330499194562,-0.5878367498556152
1783245554166415000,5.9154150390625,-0.06507131484746932,-0.37671091389954087,-0.5032385314350948
1783245554176427300,5.92542724609375,0.13325754684507846,-0.2926616345986724,-0.49786100311521436
1783245554186438400,5.9354384765625,0.3476993389487266,-0.16709113512486218,-0.5227318249994889
1783245554196450300,5.9454501953125,0.6709259154200553,-0.08834580745100974,-0.608331219819188
1783245554206462500,5.95546240234375,0.8264087380766868,-0.07978592276796698,-0.6794411572437733
1783245554216474400,5.965474365234375,1.0712275482654572,-0.07940247640833258,-0.7709037084758281
1783245554226485200,5.9754853515625,1.180560029643774,-0.10902809160426258,-0.8344080662675202
1783245554236497400,5.985497314453125,1.0781202303886412,-0.19159677695855498,-0.8365867254808544
1783245554246509300,5.99550927734375,0.8320213172614574,-0.36001784551292654,-0.8030858762867749
1783245554256521200,6.005521240234375,0.49347149945199487,-0.4909352589726448,-0.6614268501907586
1783245554266532400,6.015532470703125,0.20004618700444698,-0.4908309218153357,-0.4256570233762264
1783245554276544300,6.025544189453125,-0.07092237896323203,-0.36374417255967856,-0.19577289359942077
1783245554286556200,6.03555615234375,-0.2620189513146877,-0.17299977464675903,-0.13311992847267537
1783245554296568300,6.045568359375,-0.3277028451025486,-0.05247442973330617,-0.21987806487344205
1783245554306579500,6.055579345703125,-0.1830523821055889,0.02867474421188235,-0.4079639476342127
1783245554316591400,6.06559130859375,0.06537818883955478,0.1330707921013236,-0.6017183410180732
1783245554326603500,6.075603515625,0.32018414003551005,0.22715105155110357,-0.7818814679555595
1783245554336615400,6.085615478515625,0.45783144627213473,0.2684162511363625,-0.9366761622175573
1783245554346626300,6.095626220703125,0.5825578961372375,0.33339477313384414,-0.9869180105932056
1783245554356638500,6.105638427734375,0.7599521063506602,0.41746188035234805,-0.918590908820182
1783245554366650400,6.115650390625,0.7398188343822956,0.42885391972139475,-0.8829838811270893
1783245554376661200,6.1256611328125,0.6369482424944639,0.42757118643447756,-0.8937887682579457
1783245554386673200,6.135673095703125,0.6145838504731654,0.4873899875812232,-0.81142685752213
1783245554396685300,6.145685302734375,0.6185387255787849,0.5782509927235543,-0.6594647563375532
1783245554406697200,6.155697265625,0.6644248629629611,0.5910682425901294,-0.47328967563416807
1783245554416708400,6.165708251953125,0.7043792722105979,0.5474428897447884,-0.27885730992350727
1783245554426720300,6.17572021484375,0.6219762988120318,0.5084207929112017,-0.05795826797187328
1783245554436732400,6.185732421875,0.5842185228258371,0.45462139818444847,0.1577223452117294
1783245554446744300,6.195744384765625,0.48949908868968484,0.34733576633334157,0.28923805335815994
1783245554456755500,6.20575537109375,0.3982604824066162,0.2802287078745663,0.4573091028984636
1783245554466767400,6.215767333984375,0.255091782400012,0.22753917408585547,0.5792025212947279
1783245554476779300,6.225779296875,0.20198504611253737,0.20972163171395658,0.6365887615323066
1783245554486791400,6.23579150390625,0.11925883210897445,0.22127105360180138,0.6575724397849291
1783245554496802300,6.24580224609375,-0.03401625137031078,0.2751709860935807,0.6939631652016193
1783245554506814200,6.255814208984375,-0.23442542646825312,0.35871231587231156,0.8053241567328572
1783245554516826400,6.265826416015625,-0.42565117815732956,0.38942251143455503,0.8865852666199207
1783245554526838300,6.27583837890625,-0.7156354102402925,0.27707448162734505,0.8935884233802557
1783245554536849200,6.28584912109375,-1.0315490333497523,0.15257657982110975,0.8967705605477094
1783245554546861300,6.295861328125,-1.2523416557848452,0.11326879791393875,0.9805521288231015
1783245554556873200,6.305873291015625,-1.3628186310231685,0.19891060710325836,1.1286180993519723
1783245554566885000,6.315885009765625,-1.3212334057033062,0.2677690392740071,1.180940918720141
1783245554576896500,6.325896484375,-1.1596312233835457,0.28117066489979625,1.155924331689626
1783245554586908400,6.335908447265625,-0.8905863189548253,0.21017361326515674,0.9629908992998302
1783245554596920300,6.34592041015625,-0.6486597230762243,0.17911036648154258,0.7143210397060961
1783245554606932500,6.355932373046875,-0.5006657948702573,0.13070757010132072,0.5279228543039411
1783245554616943400,6.365943359375,-0.32164369119405745,0.05726560953259468,0.40938619898967443
1783245554626955300,6.375955322265625,-0.09204057031571865,0.039029695618152616,0.3620757278908044
1783245554636967400,6.385967529296875,0.14373334815204142,0.07441592016741633,0.3693377547830343
1783245554646978300,6.395978271484375,0.3789250828176737,0.14369900749102235,0.475719131270796
1783245554656990200,6.405990234375,0.6190484286665916,0.17694705096781252,0.5974514042885973
1783245554667002000,6.416002197265625,0.9581050269544124,0.20351868542060256,0.7082530449040234
1783245554677014300,6.42601416015625,1.2467699931323528,0.24216756502762435,0.8360122865937649
1783245554687025400,6.436025390625,1.4278081128060818,0.12060367084667085,1.0225470309223978
1783245554697037300,6.446037353515625,1.5405647234141826,-0.12093041858300566,1.3312543028496204
1783245554707049500,6.456049560546875,1.823763240879774,-0.02229629522114992,1.4021535931982099
1783245554717061400,6.466061279296875,1.7133768665343523,-0.12343480261936783,1.4549189687021076
1783245554727072300,6.476072265625,1.4331371988743542,-0.42920492511615155,1.4700873117394744
1783245554737084400,6.48608447265625,1.3641402350157499,-0.5503369306858629,1.393353470018506
1783245554747096300,6.496096435546875,0.9192278915494679,-0.6226288444366306,1.3171250936016439
1783245554757108200,6.506108154296875,0.5022767371982336,-0.7269703856598585,1.147981263730675
1783245554767119400,6.516119384765625,0.16285247464179992,-0.8218613039053976,1.0326888510346413
1783245554777131300,6.52613134765625,-0.0654553457289934,-0.8124556160479783,0.9557567102625966
1783245554787143200,6.53614306640625,-0.21822832490503788,-0.7568683880563825,0.8249604389645159
1783245554797155300,6.5461552734375,-0.35772155126929284,-0.6936686392344534,0.6694182873360812
1783245554807166500,6.55616650390625,-0.30418460687100884,-0.5977775675030425,0.54562604958117
1783245554817178400,6.566178466796875,-0.1726870554357767,-0.609803082470037,0.47778424710705875
1783245554827190300,6.576190185546875,-0.20466858610808847,-0.7928007021810859,0.34187410339396446
1783245554837202400,6.586202392578125,-0.34416356603801246,-1.0037281294882296,0.32618637612499296
1783245554847213300,6.59621337890625,-0.505877392038703,-1.1607422533653675,0.5593612545428798
1783245554857225200,6.60622509765625,-0.3084960403293371,-1.2415095883861182,0.5740776160290464
1783245554867237400,6.6162373046875,0.07695990556180476,-1.0884511433321982,0.452308919990994
1783245554877249300,6.626249267578125,0.37672143529355523,-0.9021620443277061,0.35048849474322047
1783245554887260200,6.63626025390625,0.33802900880575176,-0.7862293609667569,0.17155103714317083
1783245554897272300,6.646272216796875,0.23934300912618636,-0.6827379337668419,0.01681530652679503
1783245554907284200,6.6562841796875,0.42111411924958225,-0.6971546547193079,-0.07392934222687035
1783245554917295000,6.666295166015625,0.6329086117148399,-0.7457736511334776,-0.09250782250128686
1783245554927307300,6.676307373046875,0.5733791489034891,-0.7911352531868964,-0.03429579896405339
1783245554937319200,6.686319091796875,0.33474516482949257,-0.719327250495553,0.15244133606888352
1783245554947331000,6.6963310546875,0.11782675347924232,-0.47836416588686403,0.4863748922545463
1783245554957342500,6.706342529296875,-0.09197159673273562,-0.2982363659910858,0.8258971352927387
1783245554967354400,6.716354248046875,-0.26092472633719443,-0.17256795910075307,1.0698626165878027
1783245554977366300,6.7263662109375,-0.3323211525529623,0.007462737096101045,1.148148656186834
1783245554987378400,6.73637841796875,-0.43518297661244865,0.19862411831207571,1.0459721109777689
1783245554997389300,6.746389404296875,-0.6948597487151622,0.3594923603340983,0.7686483307644725
1783245555007401200,6.756401123046875,-1.1175327878445387,0.44918059537000954,0.4441708774492144
1783245555017413400,6.766413330078125,-1.5039678079009056,0.4079142998062074,0.09430683474726974
1783245555027425300,6.77642529296875,-1.7994272565245628,0.44168841298371553,-0.1523749928344041
1783245555037436200,6.786436279296875,-1.969910664436221,0.6330873292826116,-0.39426987840048966
1783245555047448000,6.796447998046875,-1.7664882789969443,0.893133519219607,-0.6235699977442621
1783245555057460200,6.806460205078125,-1.3114391569197177,1.0997805657938122,-0.7256512658853084
1783245555067472100,6.81647216796875,-0.7604828522264957,1.2116896196618676,-0.6481777847781777
1783245555077483300,6.826483154296875,-0.2527817518919706,1.1794058911725878,-0.4318947487220168
1783245555087495400,6.836495361328125,0.2998433627963066,0.9818525438971817,-0.20252295238152146
1783245555097507300,6.84650732421875,0.6539654282689095,0.6842972920380532,0.07926051065437495
1783245555107519500,6.85651953125,0.7652823614627122,0.37999958018139,0.3678255235891789
1783245555117530400,6.8665302734375,0.5701052417993545,0.03909048589468002,0.5515052438128739
1783245555127542300,6.876542236328125,0.19874387223422527,-0.2571523681916296,0.6487178830042482
1783245555137554200,6.88655419921875,-0.1973532946586609,-0.33962679939121004,0.7179935907389968
1783245555147566300,6.89656640625,-0.5979103635698556,-0.28227321931421756,0.6964600965838879
1783245555157577200,6.9065771484375,-0.977725673225522,-0.18318492244407533,0.5309475358873605
1783245555167589000,6.916589111328125,-1.1243442214250563,-0.049752457423508166,0.21629721071198582
1783245555177601300,6.926601318359375,-1.1037491771638392,0.03769669344872236,-0.16718728897571564
1783245555187613200,6.93661328125,-0.9935404974728822,0.232272486218065,-0.43861309719160196
1783245555197624300,6.946624267578125,-0.7060773083001375,0.4371193515025079,-0.6565724689621478
1783245555207636500,6.956636474609375,-0.37298283328711984,0.5933031620353459,-0.8551800745308399
1783245555217648400,6.9666484375,-0.008949614652991295,0.7370803493291139,-1.0741296263825149
1783245555227659300,6.9766591796875,0.32074235844016075,0.8390341186329722,-1.2734838125348091
1783245555237671400,6.98667138671875,0.5703168387234211,0.8632457459561527,-1.3887214263036847
1783245555247683300,6.996683349609375,0.7566799528121948,0.7908664461828768,-1.3522928530946372
1783245555257695200,7.0066953125,0.843562701973319,0.659025926528871,-1.266486208732426
1783245555267706400,7.016706298828125,0.8016706026613711,0.5299772295504808,-1.2054079821091144
1783245555277718300,7.02671826171875,0.6897188786953687,0.4664465682737529,-1.1136223364025353
1783245555287730200,7.036730224609375,0.5329290650933981,0.5069372763551772,-0.9307753406759351
1783245555297742300,7.046742431640625,0.3554132743269205,0.5395120967455208,-0.7412696907777339
1783245555307753200,7.056753173828125,0.2253986549258232,0.48708428263291714,-0.6111070412080735
1783245555317765000,7.06676513671875,-0.09658230539858341,0.33622678168937564,-0.5518587334256619
1783245555327777300,7.07677734375,-0.47471126940250397,0.11453531071841716,-0.4624330217834562
1783245555337789200,7.0867890625,-0.6899404124915599,-0.025763386809825897,-0.36670378955025223
1783245555347800300,7.09680029296875,-0.8507026368558407,-0.051195203577727076,-0.2801259416198358
1783245555357812200,7.106812255859375,-0.9892688115030527,0.014535598091781139,-0.21054204471874982
1783245555367824400,7.116824462890625,-1.1035083541452884,0.031032851645350454,-0.12861410495340822
1783245555377836300,7.126836181640625,-0.9712491706877946,0.004967120888084173,-0.15490513236653058
1783245555387847200,7.13684716796875,-0.7806383360266685,-0.09581658172309399,-0.24589381900914012
1783245555397859300,7.146859375,-0.4732312599778175,-0.2486097269043326,-0.34530601407140493
1783245555407871200,7.156871337890625,-0.0779863260000944,-0.28547070018127557,-0.3410385293526575
1783245555417883100,7.166883056640625,0.264834593257308,-0.17237535913810134,-0.27807872676644474
1783245555427894300,7.176894287109375,0.5069382992684841,-0.029668723685294388,-0.2312779587553814
1783245555437906200,7.18690625,0.8264385486930609,0.009136661657691001,-0.2470986282216385
1783245555447918000,7.19691796875,1.1012351485162972,-0.039407589019834995,-0.3380212273580953
1783245555457930200,7.20693017578125,1.2544073561429976,-0.074697221326828,-0.45916948994286355
1783245555467941400,7.21694140625,1.2777987531244754,-0.05004413384646177,-0.5177803766045719
1783245555477953300,7.226953369140625,1.2319383347034454,-0.09460954402089118,-0.5160623571729287
1783245555487965400,7.23696533203125,1.1561527336180208,-0.10917290690243243,-0.49096222004480655
1783245555497977300,7.246977294921875,0.9933499433368443,-0.05680500628352165,-0.4365179515432566
1783245555507988200,7.25698828125,0.9108698130488395,-0.050193625319749115,-0.38456886085830627
1783245555518000400,7.26700048828125,0.8378601064175367,-0.07816022126227617,-0.36122882873788476
1783245555528012300,7.27701220703125,0.6087713648021221,-0.16790815059617162,-0.31273053609393536
1783245555538024200,7.287024169921875,0.3475917869210243,-0.23085918535403907,-0.1839244156997651
1783245555548035300,7.297035400390625,0.16144903758466242,-0.30840711993686853,-0.04970416130237281
1783245555558047200,7.307047119140625,0.018803484669327734,-0.3828676829636097,0.01250277708992362
1783245555568059100,7.31705908203125,0.03507365146875381,-0.43519649368114766,-0.09100125386323779
1783245555578070300,7.3270703125,0.17587796043157577,-0.40619675529859955,-0.15691044430695472
1783245555588082400,7.33708251953125,0.22847557815313338,-0.39499621991366146,-0.2522265656946227
1783245555598094300,7.34709423828125,0.28915245743393897,-0.3612897651448846,-0.25968320184350013
1783245555608106500,7.3571064453125,0.20575112064778803,-0.3492395541280508,-0.15499788868390021
1783245555618117400,7.367117431640625,0.08960486760139465,-0.3923242242254317,-0.12940277111306786
1783245555628129300,7.37712939453125,-0.05415244594812393,-0.4912886755201965,-0.10802249475829302
1783245555638141400,7.387141357421875,-0.24599077657759189,-0.5679270209774374,-0.04142086507100612
1783245555648153300,7.3971533203125,-0.39063364078998564,-0.5501608434665948,0.07535700040981173
1783245555658164200,7.407164306640625,-0.5014151519328356,-0.4705659132260829,0.17609598709642887
1783245555668176100,7.417176025390625,-0.6243874516069888,-0.4437536018852144,0.2056589853849262
1783245555678188300,7.427188232421875,-0.6537596765637398,-0.4838252808369696,0.16009901121519504
1783245555688200200,7.4372001953125,-0.7141513091623782,-0.4862976622998714,-0.006002455285191536
1783245555698211000,7.447211181640625,-0.9513777645260095,-0.5549247699327766,-0.19088793456945566
1783245555708223200,7.45722314453125,-0.9489040678888558,-0.7344486125860363,-0.3149470430996269
1783245555718235100,7.467235107421875,-0.7391705996066331,-0.7189655045110732,-0.2671600405301899
1783245555728247000,7.4772470703125,-0.6468506278276444,-0.45134697962366044,0.1129443882651627
1783245555738258400,7.487258544921875,-0.710084205853939,-0.16324147395938635,0.5192592169854789
1783245555748270300,7.497270263671875,-0.9642851768940687,-0.012402823846787214,0.7560439929962158
1783245555758282200,7.5072822265625,-1.4712626391291617,0.06805456844195723,0.8126683089505881
1783245555768294400,7.51729443359375,-1.8524872310608624,0.06463065840788185,0.911798106874898
