time,seconds_elapsed,z,y,x
1783245490038535700,0.06253564453125,-0.2534911036491394,-0.39456993341445923,-0.08113113790750504
1783245490048547600,0.072547607421875,-0.238533616065979,-0.4428388178348541,-0.06316487491130829
1783245490058559700,0.082559814453125,-0.2153627872467041,-0.4607224762439728,-0.023133836686611176
1783245490068570600,0.092570556640625,-0.2083183228969574,-0.4328584671020508,0.008297272957861423
1783245490078582500,0.10258251953125,-0.21446861326694489,-0.3632138669490814,0.021022122353315353
1783245490088593400,0.112593505859375,-0.2255467027425766,-0.2720101475715637,0.012532146647572517
1783245490098605600,0.12260546875,-0.2321619987487793,-0.18705131113529205,-0.013899194076657295
1783245490108617500,0.132617431640625,-0.23563537001609802,-0.1335231065750122,-0.052159473299980164
1783245490118628600,0.142628662109375,-0.2440091371536255,-0.12814217805862427,-0.07918310165405273
1783245490128640800,0.152640869140625,-0.24529755115509033,-0.16846618056297302,-0.08019626140594482
1783245490138652700,0.162652587890625,-0.24380618333816528,-0.2655716836452484,-0.045169565826654434
1783245490148663600,0.17266357421875,-0.23841604590415955,-0.3788449168205261,0.028217550367116928
1783245490158675700,0.18267578125,-0.22573833167552948,-0.4725002944469452,0.1195802167057991
1783245490168687600,0.1926875,-0.21406584978103638,-0.5267459750175476,0.20454588532447815
1783245490178698500,0.202698486328125,-0.2071855664253235,-0.5094937682151794,0.2639857828617096
1783245490188710700,0.212710693359375,-0.21584370732307434,-0.407096803188324,0.27655813097953796
1783245490198721500,0.222721435546875,-0.21485966444015503,-0.2580561935901642,0.245639368891716
1783245490208733400,0.2327333984375,-0.21006745100021362,-0.1444709599018097,0.2071124017238617
1783245490218745300,0.242745361328125,-0.18680314719676971,-0.0895714983344078,0.18013565242290497
1783245490228756700,0.2527568359375,-0.1501576006412506,-0.10254363715648651,0.1688729077577591
1783245490238768600,0.2627685546875,-0.1137593686580658,-0.143452450633049,0.17501682043075562
1783245490248780500,0.272780517578125,-0.09591291844844818,-0.1832580268383026,0.1824350208044052
1783245490258791700,0.282791748046875,-0.09894253313541412,-0.21387693285942078,0.1842997670173645
1783245490268803600,0.292803466796875,-0.12384174764156342,-0.2305096983909607,0.172273188829422
1783245490278815500,0.3028154296875,-0.15704631805419922,-0.2390509843826294,0.15958935022354126
1783245490288826400,0.312826416015625,-0.17726050317287445,-0.24055349826812744,0.14771632850170135
1783245490298838500,0.322838623046875,-0.18016548454761505,-0.22179259359836578,0.14369522035121918
1783245490308850400,0.332850341796875,-0.1603991538286209,-0.19378019869327545,0.14424659311771393
1783245490318861600,0.342861572265625,-0.13255740702152252,-0.16666094958782196,0.13919298350811005
1783245490328873700,0.352873779296875,-0.10652290284633636,-0.14313936233520508,0.12436433881521225
1783245490338884600,0.362884521484375,-0.08628474175930023,-0.12120158225297928,0.0967063382267952
1783245490348896500,0.372896484375,-0.06980887800455093,-0.09690190106630325,0.053652673959732056
1783245490358908700,0.38290869140625,-0.05829842761158943,-0.07112836092710495,-0.0037815903779119253
1783245490368919600,0.39291943359375,-0.04673183336853981,-0.052127838134765625,-0.06046478450298309
1783245490378931500,0.402931396484375,-0.04209926724433899,-0.0490817166864872,-0.10052165389060974
1783245490388943600,0.412943603515625,-0.03194424510002136,-0.056345634162425995,-0.10924878716468811
1783245490398954800,0.422954833984375,-0.01827557198703289,-0.055199675261974335,-0.10833585262298584
1783245490408966700,0.432966552734375,-0.003296768758445978,-0.031484805047512054,-0.10255048424005508
1783245490418978800,0.442978759765625,0.007369724102318287,0.005741660483181477,-0.09392370283603668
1783245490428989700,0.45298974609375,0.00667771277949214,0.05509583279490471,-0.08640284836292267
1783245490439001600,0.463001708984375,0.0028885670471936464,0.11205579340457916,-0.0829673707485199
1783245490449012500,0.473012451171875,0.0007268793415278196,0.15398965775966644,-0.08139771223068237
1783245490459024600,0.483024658203125,0.015997445210814476,0.16782477498054504,-0.08046320080757141
1783245490469036500,0.49303662109375,0.029367629438638687,0.18438203632831573,-0.08081228286027908
1783245490479047400,0.50304736328125,0.04293457046151161,0.17830736935138702,-0.0743170976638794
1783245490489059600,0.5130595703125,0.06209719926118851,0.16622726619243622,-0.07251221686601639
1783245490499071500,0.523071533203125,0.08924493193626404,0.16700172424316406,-0.0742989331483841
1783245490509082600,0.53308251953125,0.10849012434482574,0.16524836421012878,-0.07379355281591415
1783245490519094500,0.543094482421875,0.1198708713054657,0.17243222892284393,-0.07514031231403351
1783245490529106700,0.553106689453125,0.11519065499305725,0.1963965743780136,-0.0809631422162056
1783245490539117600,0.56311767578125,0.09517699480056763,0.22649163007736206,-0.07726720720529556
1783245490549129500,0.57312939453125,0.06893197447061539,0.2440723031759262,-0.06279106438159943
1783245490559141600,0.5831416015625,0.039155974984169006,0.26012688875198364,-0.030081856995821
1783245490569152500,0.593152587890625,0.007277337368577719,0.2816941440105438,0.00725341122597456
1783245490579164400,0.603164306640625,-0.026496605947613716,0.319749653339386,0.04254082962870598
1783245490589175600,0.613175537109375,-0.05809738114476204,0.37268516421318054,0.06373070925474167
1783245490599187700,0.623187744140625,-0.07850944995880127,0.41901618242263794,0.07170367985963821
1783245490609199600,0.63319970703125,-0.08390138298273087,0.44875988364219666,0.06540794670581818
1783245490619210500,0.64321044921875,-0.07062339782714844,0.46959856152534485,0.042681336402893066
1783245490629222700,0.65322265625,-0.05245993286371231,0.48608142137527466,0.017636291682720184
1783245490639234600,0.663234619140625,-0.03815370053052902,0.49556148052215576,0.0019140522927045822
1783245490649245400,0.673245361328125,-0.02874595858156681,0.5204488635063171,-0.005694285035133362
1783245490659257600,0.683257568359375,-0.01276938896626234,0.560426652431488,-0.010399291291832924
1783245490669269500,0.69326953125,0.014142458327114582,0.5978277325630188,-0.021085914224386215
1783245490679280600,0.70328076171875,0.048374731093645096,0.6041479706764221,-0.040886517614126205
1783245490689292500,0.71329248046875,0.07077249139547348,0.5472136735916138,-0.05735210329294205
1783245490699304700,0.7233046875,0.07477468997240067,0.45205941796302795,-0.061206232756376266
1783245490709315600,0.733315673828125,0.061362169682979584,0.36147379875183105,-0.051408134400844574
1783245490719327700,0.74332763671875,0.03575587645173073,0.30350664258003235,-0.0229908749461174
1783245490729338600,0.753338623046875,0.013287726789712906,0.2953295409679413,0.01132524386048317
1783245490739350500,0.7633505859375,-0.0028648781590163708,0.3377920389175415,0.04442993178963661
1783245490749362400,0.773362548828125,-0.015017654746770859,0.4011456370353699,0.057951368391513824
1783245490759373300,0.783373291015625,-0.027156077325344086,0.4535555839538574,0.05719929188489914
1783245490769385200,0.79338525390625,-0.040209103375673294,0.5037627220153809,0.04411321133375168
1783245490779397000,0.803397216796875,-0.04645181819796562,0.5486167669296265,0.018138602375984192
1783245490789408300,0.813408203125,-0.038692574948072433,0.5646401047706604,-0.013466019183397293
1783245490799420200,0.823420166015625,-0.01361012551933527,0.5517567992210388,-0.03649943321943283
1783245490809432000,0.83343212890625,0.027490146458148956,0.5141417384147644,-0.058323804289102554
1783245490819443200,0.843443115234375,0.0821099802851677,0.446259081363678,-0.0692419707775116
1783245490829455000,0.853455078125,0.14044874906539917,0.3575568199157715,-0.06500819325447083
1783245490839466000,0.863466064453125,0.19378414750099182,0.27589869499206543,-0.045143142342567444
1783245490849478000,0.873477783203125,0.22458818554878235,0.21075502038002014,-0.008293705061078072
1783245490859490000,0.883489990234375,0.22934192419052124,0.15979063510894775,0.039452776312828064
1783245490869501200,0.893501220703125,0.21814890205860138,0.14655914902687073,0.08468785136938095
1783245490879513000,0.90351318359375,0.19824737310409546,0.1846277117729187,0.1302231252193451
1783245490889525200,0.913525146484375,0.17555217444896698,0.24887992441654205,0.17706705629825592
1783245490899536100,0.9235361328125,0.15825867652893066,0.3007596433162689,0.22649958729743958
1783245490909548000,0.933548095703125,0.14744098484516144,0.31829574704170227,0.2722529172897339
1783245490919560200,0.943560302734375,0.15669040381908417,0.3037026822566986,0.30407610535621643
1783245490929571000,0.953571044921875,0.18477904796600342,0.29747527837753296,0.31290119886398315
1783245490939583000,0.9635830078125,0.23186640441417694,0.3188692629337311,0.2879079580307007
1783245490949595100,0.97359521484375,0.2827441990375519,0.3765508532524109,0.23649810254573822
1783245490959606300,0.983606201171875,0.3321892321109772,0.45153748989105225,0.16559383273124695
1783245490969618200,0.9936181640625,0.37768620252609253,0.5194172859191895,0.09979265183210373
1783245490979629000,1.003629150390625,0.42316368222236633,0.5416469573974609,0.05886199697852135
1783245490989641200,1.01364111328125,0.4785771071910858,0.4830842912197113,0.05954493582248688
1783245490999653000,1.023653076171875,0.5454003214836121,0.35002291202545166,0.10617156326770782
1783245491009664000,1.0336640625,0.6099123358726501,0.18354347348213196,0.1980709433555603
1783245491019676200,1.04367626953125,0.6569021940231323,0.03667333349585533,0.32147595286369324
1783245491029688000,1.05368798828125,0.6731806397438049,-0.05482867732644081,0.45704934000968933
1783245491039699200,1.06369921875,0.6564029455184937,-0.0435137078166008,0.5601746439933777
1783245491049711000,1.073711181640625,0.6107879877090454,0.04021221026778221,0.6084640026092529
1783245491059723300,1.08372314453125,0.5457690358161926,0.12227699160575867,0.59754478931427
1783245491069734100,1.093734130859375,0.46260866522789,0.20237375795841217,0.552800178527832
1783245491079746000,1.10374609375,0.37135279178619385,0.27253100275993347,0.5005542635917664
1783245491089757200,1.113757080078125,0.2936188876628876,0.35241737961769104,0.4530281722545624
1783245491099769000,1.12376904296875,0.2446499913930893,0.43612825870513916,0.4224340617656708
1783245491109781000,1.133781005859375,0.2168671190738678,0.5183639526367188,0.4120509624481201
1783245491119792000,1.143792236328125,0.2173675298690796,0.5726889371871948,0.40352538228034973
1783245491129804000,1.153803955078125,0.241729274392128,0.5821971297264099,0.3924870193004608
1783245491139816000,1.16381591796875,0.28679290413856506,0.5496618151664734,0.3613530695438385
1783245491149827000,1.1738271484375,0.35270923376083374,0.491324782371521,0.31100112199783325
1783245491159839200,1.183839111328125,0.44269612431526184,0.4383164048194885,0.24925597012043
1783245491169851100,1.19385107421875,0.5488513708114624,0.3848719894886017,0.19205890595912933
1783245491179862000,1.203862060546875,0.660505473613739,0.34439966082572937,0.13804654777050018
1783245491189874200,1.213874267578125,0.7809109687805176,0.3142210841178894,0.09052003920078278
1783245491199886000,1.223885986328125,0.9015135765075684,0.28976553678512573,0.03683551028370857
1783245491209897000,1.23389697265625,1.0115022659301758,0.24186410009860992,-0.01657910831272602
1783245491219909000,1.2439091796875,1.0894252061843872,0.18075254559516907,-0.06109970435500145
1783245491229920300,1.253920166015625,1.136152744293213,0.11738701164722443,-0.09313873946666718
1783245491239932200,1.26393212890625,1.1471158266067505,0.029548242688179016,-0.10261879861354828
1783245491249944300,1.2739443359375,1.1314095258712769,-0.038082342594861984,-0.08383569121360779
1783245491259955200,1.283955078125,1.0996841192245483,-0.067833311855793,-0.04311276227235794
1783245491269967000,1.293967041015625,1.0598750114440918,-0.06294760853052139,0.003350221086293459
1783245491279979300,1.303979248046875,0.9993336200714111,-0.02693501114845276,0.04435411095619202
1783245491289990100,1.313990234375,0.9226033687591553,0.050241872668266296,0.059662483632564545
1783245491300002000,1.324001953125,0.8385769128799438,0.17772898077964783,0.03645649552345276
1783245491310014000,1.334013916015625,0.7636248469352722,0.3141991198062897,-0.020286710932850838
1783245491320025000,1.344025146484375,0.7137894034385681,0.4134300947189331,-0.09973227232694626
1783245491330037000,1.354037109375,0.6896770000457764,0.48905691504478455,-0.19308635592460632
1783245491340049200,1.364049072265625,0.6828651428222656,0.5347722172737122,-0.27540573477745056
1783245491350060300,1.374060302734375,0.6922511458396912,0.5210055708885193,-0.3281339704990387
1783245491360072200,1.384072265625,0.7139641642570496,0.4544215202331543,-0.34921926259994507
1783245491370083000,1.3940830078125,0.7488073706626892,0.3588421046733856,-0.3582259714603424
1783245491380095000,1.404094970703125,0.7802704572677612,0.256073921918869,-0.3660958707332611
1783245491390107100,1.414107177734375,0.8018347024917603,0.15733809769153595,-0.3730345666408539
1783245491400118000,1.424117919921875,0.8063791394233704,0.06962980329990387,-0.37159430980682373
1783245491410130000,1.4341298828125,0.794441282749176,0.024663060903549194,-0.3579027056694031
1783245491420142000,1.44414208984375,0.7756825089454651,0.05123262107372284,-0.3339827358722687
1783245491430153200,1.4541533203125,0.7492232322692871,0.10374729335308075,-0.30049940943717957
1783245491440165000,1.4641650390625,0.713209867477417,0.14640288054943085,-0.25778016448020935
1783245491450177300,1.47417724609375,0.6701685786247253,0.17602777481079102,-0.2249913066625595
1783245491460188200,1.484188232421875,0.6297199130058289,0.18094824254512787,-0.20190036296844482
1783245491470200000,1.494199951171875,0.5978975296020508,0.1498926877975464,-0.1869238018989563
1783245491480212200,1.504212158203125,0.5721147060394287,0.1022639125585556,-0.17364501953125
1783245491490223000,1.51422314453125,0.5445922613143921,0.06187301501631737,-0.15596798062324524
1783245491500235000,1.524235107421875,0.5042240619659424,0.04877878352999687,-0.1364789754152298
1783245491510246100,1.53424609375,0.45967069268226624,0.05710369721055031,-0.12384554743766785
1783245491520258300,1.54425830078125,0.40895506739616394,0.06132054701447487,-0.1162792444229126
1783245491530270200,1.554270263671875,0.36297255754470825,0.06666307151317596,-0.10885977745056152
1783245491540281000,1.564281005859375,0.3137320578098297,0.07866886258125305,-0.11114077270030975
1783245491550293200,1.574293212890625,0.27036017179489136,0.08797525614500046,-0.11248073726892471
1783245491560305200,1.58430517578125,0.22758954763412476,0.08194532990455627,-0.09635103493928909
1783245491570316000,1.59431591796875,0.18113060295581818,0.06995159387588501,-0.06046149134635925
1783245491580328200,1.604328125,0.13501130044460297,0.0776025801897049,-0.00640544667840004
1783245491590340000,1.614340087890625,0.08340921998023987,0.09406625479459763,0.061265796422958374
1783245491600351000,1.62435107421875,0.053191930055618286,0.11444130539894104,0.12946827709674835
1783245491610363000,1.63436279296875,0.04988076910376549,0.14031502604484558,0.18308523297309875
1783245491620375000,1.644375,0.07067473232746124,0.13437297940254211,0.22138868272304535
1783245491630386200,1.65438623046875,0.09485683590173721,0.09426730871200562,0.2530156970024109
1783245491640398000,1.664398193359375,0.12778043746948242,0.04856054112315178,0.2795935273170471
1783245491650409200,1.6744091796875,0.16769477725028992,-0.010199245996773243,0.2987329065799713
1783245491660421000,1.684421142578125,0.22687794268131256,-0.08089499175548553,0.30904918909072876
1783245491670433000,1.69443310546875,0.30375465750694275,-0.14129891991615295,0.3053458631038666
1783245491680444000,1.70444384765625,0.3836524188518524,-0.15976181626319885,0.28793224692344666
1783245491690456000,1.7144560546875,0.4439440369606018,-0.13071833550930023,0.25275570154190063
1783245491700468000,1.724468017578125,0.47232377529144287,-0.08163867145776749,0.19699789583683014
1783245491710479000,1.73447900390625,0.4665357172489166,-0.024724526330828667,0.12247117608785629
1783245491720491300,1.7444912109375,0.4115755259990692,0.033711351454257965,0.05808526650071144
1783245491730503200,1.754503173828125,0.326707124710083,0.09358686953783035,0.02120429463684559
1783245491740514000,1.76451416015625,0.24877476692199707,0.15214446187019348,0.034611184149980545
1783245491750526200,1.774526123046875,0.2097489833831787,0.17187833786010742,0.10681332647800446
1783245491760536800,1.784536865234375,0.22233907878398895,0.14526164531707764,0.23287326097488403
1783245491770549000,1.794549072265625,0.2739711105823517,0.09473498165607452,0.3781135380268097
1783245491780561000,1.804560791015625,0.3526102602481842,0.07925083488225937,0.5090683698654175
1783245491790572000,1.814572021484375,0.44699376821517944,0.11991681903600693,0.5837733745574951
1783245491800584000,1.824583984375,0.531456708908081,0.18836645781993866,0.5953554511070251
1783245491810596000,1.83459619140625,0.5904396772384644,0.21540258824825287,0.568939745426178
1783245491820607000,1.84460693359375,0.6186801195144653,0.19155211746692657,0.5370965600013733
1783245491830619000,1.854618896484375,0.6412140130996704,0.14648936688899994,0.5103482604026794
1783245491840631000,1.864631103515625,0.663504421710968,0.09430553019046783,0.4890904128551483
1783245491850642000,1.874641845703125,0.6874168515205383,0.07573717087507248,0.4521734118461609
1783245491860653800,1.88465380859375,0.6956638693809509,0.10976731032133102,0.3842487037181854
1783245491870666000,1.894666015625,0.676791787147522,0.15988846123218536,0.2968735992908478
1783245491880676900,1.9046767578125,0.630244255065918,0.20160554349422455,0.21065616607666016
1783245491890689000,1.91468896484375,0.5670531988143921,0.23581597208976746,0.14711448550224304
1783245491900700000,1.924699951171875,0.5178403854370117,0.2926259934902191,0.10201200097799301
1783245491910712000,1.934712158203125,0.4664830267429352,0.349149614572525,0.08808478713035583
1783245491920724000,1.944723876953125,0.41219156980514526,0.40457212924957275,0.09726869314908981
1783245491930734800,1.95473486328125,0.3655213415622711,0.4667743146419525,0.11598167568445206
1783245491940747000,1.9647470703125,0.3335956335067749,0.5439527034759521,0.11263088136911392
1783245491950759000,1.974759033203125,0.31533050537109375,0.6240469217300415,0.0769541934132576
1783245491960769800,1.984769775390625,0.3066355586051941,0.684304416179657,0.017310306429862976
1783245491970782000,1.994781982421875,0.30745071172714233,0.7100939750671387,-0.04639746993780136
1783245491980793900,2.0047939453125,0.32949212193489075,0.7050845623016357,-0.10349909961223602
1783245491990805000,2.014804931640625,0.38233932852745056,0.6643640398979187,-0.13228921592235565
1783245492000817200,2.024817138671875,0.4543403089046478,0.5834622383117676,-0.12495725601911545
1783245492010829000,2.0348291015625,0.5339548587799072,0.4888013005256653,-0.08350160717964172
1783245492020840000,2.04483984375,0.6125662922859192,0.43229809403419495,-0.028952348977327347
1783245492030851800,2.054851806640625,0.6702771782875061,0.4266412556171417,0.02176881954073906
1783245492040863000,2.064863037109375,0.6953607201576233,0.4377964437007904,0.07058269530534744
1783245492050875000,2.074875,0.6928356289863586,0.44441813230514526,0.1164756640791893
1783245492060886800,2.08488671875,0.6777331233024597,0.4674057364463806,0.15862391889095306
1783245492070898200,2.094898193359375,0.6544018387794495,0.5232598781585693,0.1914791464805603
1783245492080910000,2.10491015625,0.6299439072608948,0.5942046046257019,0.20762696862220764
1783245492090922000,2.114921875,0.5945619940757751,0.644225001335144,0.21568366885185242
1783245492100932900,2.124932861328125,0.5529109835624695,0.6687649488449097,0.21604479849338531
1783245492110945000,2.134945068359375,0.5133935213088989,0.6775683760643005,0.2129606008529663
1783245492120957000,2.14495703125,0.4754309356212616,0.6793699860572815,0.21494625508785248
1783245492130967800,2.1549677734375,0.4430186152458191,0.678469181060791,0.22575701773166656
1783245492140980000,2.16497998046875,0.4182264506816864,0.6898720264434814,0.24539996683597565
1783245492150992000,2.174991943359375,0.40838906168937683,0.7158296704292297,0.26900213956832886
1783245492161002800,2.185002685546875,0.41596519947052,0.7455244064331055,0.2888541519641876
1783245492171015000,2.195014892578125,0.4392993748188019,0.7797398567199707,0.2967902421951294
1783245492181026000,2.205026123046875,0.48134323954582214,0.8070380687713623,0.2918306589126587
1783245492191038000,2.215037841796875,0.5375092029571533,0.8119640946388245,0.280166357755661
1783245492201050000,2.225050048828125,0.6087080240249634,0.8016294240951538,0.25725892186164856
1783245492211061000,2.23506103515625,0.6919692158699036,0.8077325820922852,0.21101650595664978
1783245492221073000,2.245072998046875,0.7797073125839233,0.8452866077423096,0.13226816058158875
1783245492231085000,2.2550849609375,0.856611430644989,0.889700710773468,0.039039723575115204
1783245492241096000,2.265095947265625,0.908848762512207,0.9051595330238342,-0.047788117080926895
1783245492251107800,2.27510791015625,0.9480618238449097,0.8785677552223206,-0.09080565720796585
1783245492261119700,2.28511962890625,0.9757546782493591,0.815843403339386,-0.08307023346424103
1783245492271131100,2.295131103515625,0.9912500977516174,0.7453014254570007,-0.032267168164253235
1783245492281143000,2.30514306640625,0.9902803897857666,0.6902691125869751,0.052746258676052094
1783245492291154000,2.31515380859375,0.9713191390037537,0.6917678713798523,0.13962139189243317
1783245492301166000,2.325166015625,0.942672073841095,0.7559620141983032,0.1985321044921875
1783245492311178000,2.335177978515625,0.9089459180831909,0.8407958149909973,0.23045554757118225
1783245492321188900,2.34518896484375,0.87217116355896,0.9037595987319946,0.2477748841047287
1783245492331200800,2.35520068359375,0.8404581546783447,0.9481357336044312,0.24289235472679138
1783245492341213000,2.365212890625,0.8258795142173767,0.9848080277442932,0.21136611700057983
1783245492351224000,2.37522412109375,0.8300217390060425,1.0058789253234863,0.15569759905338287
1783245492361236000,2.385236083984375,0.8535121083259583,1.0299030542373657,0.07613619416952133
1783245492371248000,2.395248046875,0.8907591104507446,1.0540045499801636,-0.013359030708670616
1783245492381259000,2.405259033203125,0.9438774585723877,1.0711954832077026,-0.09767764061689377
1783245492391271000,2.41527099609375,1.0028594732284546,1.0635557174682617,-0.16066192090511322
1783245492401283000,2.425282958984375,1.0573015213012695,1.031538963317871,-0.19220386445522308
1783245492411294000,2.4352939453125,1.0952050685882568,0.9826464056968689,-0.18489636480808258
1783245492421305900,2.445305908203125,1.1087416410446167,0.9147073030471802,-0.13052447140216827
1783245492431316700,2.455316650390625,1.0933948755264282,0.8486611843109131,-0.04996304586529732
1783245492441329000,2.465328857421875,1.0563262701034546,0.8439711332321167,0.04208911582827568
1783245492451340800,2.4753408203125,0.986690104007721,0.908538281917572,0.13101698458194733
1783245492461352000,2.48535205078125,0.8955146670341492,1.0047327280044556,0.20223763585090637
1783245492471364000,2.495364013671875,0.8181763291358948,1.1046479940414429,0.236890971660614
1783245492481376000,2.5053759765625,0.7730535864830017,1.2281126976013184,0.21686187386512756
1783245492491387000,2.515386962890625,0.7828058004379272,1.3574241399765015,0.1398731768131256
1783245492501399000,2.52539892578125,0.8316505551338196,1.4491093158721924,0.028692850843071938
1783245492511411000,2.535410888671875,0.9054204225540161,1.4606518745422363,-0.09592614322900772
1783245492521421800,2.545421875,0.9910075068473816,1.3665635585784912,-0.18582086265087128
1783245492531434000,2.55543408203125,1.0845187902450562,1.1904195547103882,-0.21789802610874176
1783245492541446000,2.56544580078125,1.1894252300262451,1.006467342376709,-0.19089862704277039
1783245492551457000,2.57545703125,1.2978315353393555,0.8693921566009521,-0.12624676525592804
1783245492561469000,2.585468994140625,1.3991410732269287,0.8085434436798096,-0.06324489414691925
1783245492571480000,2.59547998046875,1.4681122303009033,0.833125114440918,-0.03185199573636055
1783245492581492000,2.605491943359375,1.4934017658233643,0.9050222635269165,-0.032669588923454285
1783245492591504000,2.61550390625,1.4856903553009033,0.9676665663719177,-0.04240995645523071
1783245492601515000,2.625514892578125,1.4692453145980835,1.024680495262146,-0.04977386072278023
1783245492611527000,2.63552685546875,1.4495036602020264,1.0690947771072388,-0.05264577642083168
1783245492621538800,2.645538818359375,1.4216864109039307,1.0923079252243042,-0.032994575798511505
1783245492631550000,2.655550048828125,1.3751353025436401,1.1122616529464722,-0.005064554512500763
1783245492641562000,2.66556201171875,1.3113347291946411,1.1258748769760132,0.03092939779162407
1783245492651574000,2.675573974609375,1.2421176433563232,1.1303995847702026,0.06421693414449692
1783245492661585000,2.6855849609375,1.1847646236419678,1.1499056816101074,0.0845392495393753
1783245492671597000,2.69559716796875,1.1497008800506592,1.2003201246261597,0.08455085009336472
1783245492681609000,2.70560888671875,1.1376338005065918,1.2752397060394287,0.05709952116012573
1783245492691619800,2.715619873046875,1.1462211608886719,1.3609778881072998,0.0074891154654324055
1783245492701632000,2.725632080078125,1.1750400066375732,1.4482020139694214,-0.07151515781879425
1783245492711643000,2.735642822265625,1.23247492313385,1.5330030918121338,-0.18723607063293457
1783245492721654800,2.74565478515625,1.3292152881622314,1.5936030149459839,-0.3402242958545685
1783245492731667000,2.7556669921875,1.4622384309768677,1.6166338920593262,-0.5192671418190002
1783245492741678000,2.765677978515625,1.616971731185913,1.5940066576004028,-0.6940687894821167
1783245492751690000,2.77568994140625,1.768145203590393,1.4562487602233887,-0.8092040419578552
1783245492761702100,2.7857021484375,1.900239109992981,1.2067339420318604,-0.8298333883285522
1783245492771713000,2.795713134765625,2.000145196914673,0.9192019701004028,-0.7531898617744446
1783245492781725000,2.805724853515625,2.050055980682373,0.6566345691680908,-0.592131495475769
1783245492791737000,2.815737060546875,2.0406816005706787,0.5126459002494812,-0.39156246185302734
1783245492801748000,2.825748046875,1.9799201488494873,0.49069082736968994,-0.19287894666194916
1783245492811759900,2.835759765625,1.8857499361038208,0.559927225112915,-0.019925042986869812
1783245492821772000,2.84577197265625,1.7646379470825195,0.7062615156173706,0.10824384540319443
1783245492831783200,2.855783203125,1.6510810852050781,0.9028372168540955,0.1741529256105423
1783245492841795000,2.865795166015625,1.5578137636184692,1.1161702871322632,0.1821911484003067
1783245492851806000,2.875805908203125,1.493287205696106,1.3040837049484253,0.13488376140594482
1783245492861818000,2.885818115234375,1.454809308052063,1.4138325452804565,0.04627000167965889
1783245492871830000,2.895830078125,1.44970703125,1.417212963104248,-0.05629119277000427
1783245492881841000,2.9058408203125,1.4747095108032227,1.3300881385803223,-0.13897329568862915
1783245492891853000,2.91585302734375,1.5066856145858765,1.210140347480774,-0.17085622251033783
1783245492901865000,2.925864990234375,1.550645351409912,1.0526087284088135,-0.13995343446731567
1783245492911875800,2.935875732421875,1.595794677734375,0.8863214254379272,-0.04776565730571747
1783245492921888000,2.945887939453125,1.638480305671692,0.7578902244567871,0.07152026146650314
1783245492931900000,2.95589990234375,1.6639426946640015,0.6857327222824097,0.18522971868515015
1783245492941911000,2.9659111328125,1.6662402153015137,0.6677724123001099,0.2714519500732422
1783245492951923000,2.9759228515625,1.6411795616149902,0.6995948553085327,0.30900755524635315
1783245492961935000,2.98593505859375,1.600541353225708,0.767257809638977,0.3010404407978058
1783245492971946000,2.995946044921875,1.5634435415267944,0.8714914917945862,0.2536904513835907
1783245492981958000,3.0059580078125,1.5440865755081177,0.9668273329734802,0.18581633269786835
1783245492991969000,3.015968994140625,1.559287667274475,1.003406286239624,0.09946838766336441
1783245493001981000,3.02598095703125,1.6060011386871338,0.9808645844459534,-0.02435821294784546
1783245493011992800,3.035992919921875,1.663268804550171,0.9334388971328735,-0.17766475677490234
1783245493022004000,3.04600390625,1.7203103303909302,0.8278757333755493,-0.3278665244579315
1783245493032016100,3.05601611328125,1.7671809196472168,0.6570237874984741,-0.43970924615859985
1783245493042028000,3.066028076171875,1.8007553815841675,0.4662948548793793,-0.4852900505065918
1783245493052039000,3.076038818359375,1.81687331199646,0.305162638425827,-0.45950284600257874
1783245493062051000,3.086051025390625,1.8056373596191406,0.21161963045597076,-0.37341615557670593
1783245493072063000,3.09606298828125,1.761428713798523,0.20048388838768005,-0.23873603343963623
1783245493082073900,3.106073974609375,1.6808854341506958,0.270457923412323,-0.0870027020573616
1783245493092086000,3.1160859375,1.574051856994629,0.3987124264240265,0.0441400445997715
1783245493102098000,3.126097900390625,1.453454613685608,0.5449855327606201,0.13970784842967987
1783245493112109000,3.136109130859375,1.3327499628067017,0.647223949432373,0.20910903811454773
1783245493122121200,3.146121337890625,1.2197768688201904,0.7151665687561035,0.2841302752494812
1783245493132132000,3.156132080078125,1.1387510299682617,0.766477108001709,0.39561066031455994
1783245493142144000,3.16614404296875,1.1097681522369385,0.7864689826965332,0.5413550734519958
1783245493152156000,3.176156005859375,1.1246272325515747,0.7841166257858276,0.6910387873649597
1783245493162167000,3.1861669921875,1.1432008743286133,0.788568377494812,0.7994957566261292
1783245493172179000,3.196178955078125,1.1401565074920654,0.7953051328659058,0.8387089967727661
1783245493182190800,3.20619091796875,1.129876971244812,0.7770611047744751,0.786486804485321
1783245493192202000,3.216201904296875,1.1201658248901367,0.7473276853561401,0.6486450433731079
1783245493202214000,3.2262138671875,1.1091206073760986,0.7387973070144653,0.44806379079818726
1783245493212225800,3.236225830078125,1.1002894639968872,0.7522737383842468,0.20259612798690796
1783245493222237200,3.2462373046875,1.1054966449737549,0.7871316075325012,-0.042936936020851135
1783245493232249000,3.2562490234375,1.1253304481506348,0.8504523634910583,-0.22188715636730194
1783245493242261000,3.266260986328125,1.1599384546279907,0.8911209106445312,-0.2697012722492218
1783245493252271900,3.27627197265625,1.2037248611450195,0.8882781267166138,-0.17432698607444763
1783245493262284000,3.286283935546875,1.2549561262130737,0.858828604221344,0.02955104596912861
1783245493272296000,3.2962958984375,1.2889078855514526,0.8488444685935974,0.27784278988838196
1783245493282306800,3.306306884765625,1.3012686967849731,0.8665523529052734,0.5055906772613525
1783245493292319000,3.316319091796875,1.2826753854751587,0.8667879104614258,0.6815668344497681
1783245493302330000,3.326330078125,1.2372519969940186,0.8323236703872681,0.8124194145202637
1783245493312342000,3.336342041015625,1.1819868087768555,0.8013220429420471,0.8992711901664734
1783245493322354200,3.346354248046875,1.1275146007537842,0.7943999767303467,0.952424943447113
1783245493332365000,3.356364990234375,1.0738177299499512,0.8017458319664001,0.9737608432769775
1783245493342377000,3.366376953125,1.0226293802261353,0.832015872001648,0.9660485982894897
1783245493352389000,3.37638916015625,0.9760660529136658,0.8497769832611084,0.9346792101860046
1783245493362400000,3.38639990234375,0.943844199180603,0.9220959544181824,0.8704286217689514
1783245493372412000,3.396411865234375,0.9120911955833435,1.0168277025222778,0.7846371531486511
1783245493382423800,3.406423828125,0.8745427131652832,1.104584813117981,0.6918337345123291
1783245493392435200,3.416435302734375,0.8410692811012268,1.1838279962539673,0.5911696553230286
1783245493402447000,3.426447021484375,0.8149625658988953,1.242453932762146,0.4849657118320465
1783245493412459000,3.436458984375,0.8050879836082458,1.2757019996643066,0.37876033782958984
1783245493422470100,3.44647021484375,0.8246459364891052,1.2905054092407227,0.28346017003059387
1783245493432482000,3.45648193359375,0.8723621368408203,1.3093317747116089,0.19870434701442719
1783245493442493000,3.466492919921875,0.9368785619735718,1.325613260269165,0.12262316048145294
1783245493452504800,3.4765048828125,0.997616708278656,1.3328741788864136,0.04647456109523773
1783245493462517000,3.48651708984375,1.0507795810699463,1.327532410621643,-0.037392377853393555
1783245493472528000,3.49652783203125,1.1031774282455444,1.301230549812317,-0.11931046098470688
1783245493482539800,3.506539794921875,1.1582928895950317,1.2285292148590088,-0.17793409526348114
1783245493492552000,3.516552001953125,1.202848196029663,1.1341222524642944,-0.19127105176448822
1783245493502563000,3.52656298828125,1.2316228151321411,1.0213509798049927,-0.14109790325164795
1783245493512575000,3.536574951171875,1.238609790802002,0.9073705673217773,-0.028501741588115692
1783245493522587100,3.546587158203125,1.2062251567840576,0.81122887134552,0.13316677510738373
1783245493532598000,3.556597900390625,1.144312858581543,0.7577599287033081,0.3007788360118866
1783245493542610000,3.56660986328125,1.0795366764068604,0.7616028785705566,0.4342181086540222
1783245493552622000,3.5766220703125,1.0170122385025024,0.8212695717811584,0.511788010597229
1783245493562633000,3.586633056640625,0.9583651423454285,0.9371581077575684,0.5285992622375488
1783245493572644900,3.596644775390625,0.9096986651420593,1.0768303871154785,0.4931130111217499
1783245493582656000,3.606656005859375,0.8733001947402954,1.1867787837982178,0.4287121891975403
1783245493592668200,3.616668212890625,0.8393939137458801,1.261273980140686,0.3474099338054657
1783245493602680000,3.62668017578125,0.8205046653747559,1.298872709274292,0.26535314321517944
1783245493612691000,3.63669091796875,0.8104643225669861,1.3099502325057983,0.20416578650474548
1783245493622703000,3.646703125,0.8084254264831543,1.3209632635116577,0.17186403274536133
1783245493632715000,3.656715087890625,0.7914096713066101,1.2821046113967896,0.1697608381509781
1783245493642726000,3.666725830078125,0.7679794430732727,1.2020395994186401,0.17210601270198822
1783245493652738000,3.676738037109375,0.7467086315155029,1.135016679763794,0.1623937487602234
1783245493662750000,3.68675,0.7222296595573425,1.0553200244903564,0.13931772112846375
1783245493672761000,3.696760986328125,0.718356192111969,0.964971125125885,0.10813967138528824
1783245493682773000,3.70677294921875,0.7266876101493835,0.8768761157989502,0.08348119258880615
1783245493692785200,3.71678515625,0.7431542277336121,0.8060963749885559,0.08286936581134796
1783245493702796000,3.726796142578125,0.7614530920982361,0.7649774551391602,0.10838884115219116
1783245493712808000,3.736807861328125,0.788855254650116,0.7596507668495178,0.14107806980609894
1783245493722820000,3.746820068359375,0.8220350742340088,0.7795563340187073,0.15705624222755432
1783245493732831000,3.7568310546875,0.8469030857086182,0.7994265556335449,0.14478690922260284
1783245493742843000,3.7668427734375,0.8585448265075684,0.8193187713623047,0.08988796919584274
1783245493752854000,3.77685400390625,0.8495277762413025,0.854596734046936,-0.007376672234386206
1783245493762866700,3.78686669921875,0.8243622183799744,0.8785241842269897,-0.10758049786090851
1783245493772878600,3.796878662109375,0.7974522709846497,0.880669355392456,-0.16825415194034576
1783245493782889700,3.8068896484375,0.7767494320869446,0.8363847136497498,-0.1683225929737091
1783245493792901600,3.816901611328125,0.7428044676780701,0.7751713991165161,-0.11468785256147385
1783245493802913800,3.826913818359375,0.694469690322876,0.7280465364456177,-0.041163306683301926
1783245493812924700,3.836924560546875,0.6283564567565918,0.7258555293083191,0.03186243399977684
1783245493822936800,3.846936767578125,0.5486083626747131,0.7552688121795654,0.08214718103408813
1783245493832948700,3.85694873046875,0.4675530195236206,0.8387455344200134,0.09282363206148148
1783245493842959600,3.866959716796875,0.40460121631622314,0.934126079082489,0.07284779101610184
1783245493852971800,3.8769716796875,0.3664890229701996,1.007697343826294,0.03490634635090828
1783245493862983700,3.886983642578125,0.35210397839546204,1.0674307346343994,-0.014098483137786388
1783245493872994600,3.89699462890625,0.35087844729423523,1.0882887840270996,-0.0671580359339714
1783245493883006700,3.9070068359375,0.3441225290298462,1.0776150226593018,-0.13146404922008514
1783245493893017900,3.917017822265625,0.3275614082813263,1.0159944295883179,-0.1848401427268982
1783245493903029800,3.92702978515625,0.28780093789100647,0.8452637791633606,-0.18926739692687988
1783245493913041700,3.937041748046875,0.23270483314990997,0.6478493809700012,-0.13861113786697388
1783245493923052800,3.947052734375,0.18279239535331726,0.5036855340003967,-0.04459703341126442
1783245493933064700,3.957064697265625,0.14936159551143646,0.4634787142276764,0.04842176288366318
1783245493943076600,3.96707666015625,0.12555080652236938,0.5219148993492126,0.09147149324417114
1783245493953087700,3.977087646484375,0.10862252861261368,0.644720196723938,0.05694975703954697
1783245493963099600,3.987099609375,0.12887294590473175,0.8427485823631287,-0.05844768136739731
1783245493973111600,3.997111572265625,0.20010681450366974,1.051112413406372,-0.23332428932189941
1783245493983122700,4.007122802734375,0.3117939233779907,1.1560417413711548,-0.4342177212238312
1783245493993134800,4.017134765625,0.4369037449359894,1.1412248611450195,-0.6336102485656738
1783245494003146800,4.027146728515625,0.5481677055358887,1.0097270011901855,-0.7917881608009338
1783245494013157600,4.03715771484375,0.6199979782104492,0.8046168088912964,-0.8620173931121826
1783245494023169800,4.047169677734375,0.6668398380279541,0.57407146692276,-0.8322120904922485
1783245494033180700,4.0571806640625,0.6770119071006775,0.35816726088523865,-0.7096750736236572
1783245494043192600,4.067192626953125,0.66143798828125,0.2067396640777588,-0.5295164585113525
1783245494053204700,4.077204833984375,0.6140117049217224,0.16100919246673584,-0.34095534682273865
1783245494063215600,4.087215576171875,0.5244208574295044,0.2064690887928009,-0.15332262217998505
1783245494073227500,4.0972275390625,0.4039655029773712,0.30893009901046753,0.032631803303956985
1783245494083239700,4.10723974609375,0.2745257616043091,0.444841593503952,0.21571587026119232
1783245494093250800,4.117250732421875,0.17102888226509094,0.5872762799263,0.38578885793685913
1783245494103262700,4.1272626953125,0.11228994280099869,0.6924407482147217,0.5257235765457153
1783245494113275000,4.13727490234375,0.09753595292568207,0.7275934815406799,0.6196355819702148
1783245494123285800,4.14728564453125,0.11374368518590927,0.7117764353752136,0.6543775796890259
1783245494133297700,4.157297607421875,0.15288549661636353,0.6668741106987,0.6165292859077454
1783245494143309600,4.1673095703125,0.21058528125286102,0.6180823445320129,0.5102015137672424
1783245494153320700,4.17732080078125,0.28732064366340637,0.5496295094490051,0.35358303785324097
1783245494163332600,4.18733251953125,0.3870096802711487,0.45000383257865906,0.16555079817771912
1783245494173344500,4.197344482421875,0.5014967322349548,0.364452064037323,-0.028708036988973618
1783245494183356000,4.20735595703125,0.6234354376792908,0.2986370921134949,-0.2088748812675476
1783245494193367800,4.217367919921875,0.7357516288757324,0.24207168817520142,-0.34729835391044617
1783245494203378700,4.227378662109375,0.8313964009284973,0.20067231357097626,-0.42960068583488464
1783245494213390600,4.237390625,0.8990963697433472,0.181710883975029,-0.46037426590919495
1783245494223402800,4.24740283203125,0.9375441670417786,0.17791375517845154,-0.453011155128479
1783245494233413600,4.25741357421875,0.9423654675483704,0.18537499010562897,-0.41411662101745605
1783245494243425500,4.267425537109375,0.9193664193153381,0.20702436566352844,-0.3673962652683258
1783245494253437700,4.277437744140625,0.8801471590995789,0.21622703969478607,-0.3177473843097687
1783245494263448800,4.28744873046875,0.8405059576034546,0.19064576923847198,-0.2679896950721741
1783245494273460700,4.297460693359375,0.8033807277679443,0.14184275269508362,-0.22614739835262299
1783245494283473000,4.307472900390625,0.7651894092559814,0.09458521753549576,-0.19409838318824768
1783245494293483800,4.31748388671875,0.7315046787261963,0.05222317948937416,-0.1788090467453003
1783245494303495700,4.32749560546875,0.7060185074806213,0.017955752089619637,-0.18383894860744476
1783245494313507800,4.3375078125,0.6845848560333252,0.003963237628340721,-0.21578623354434967
1783245494323518700,4.347518798828125,0.6646444201469421,0.006894579157233238,-0.2684880793094635
1783245494333530600,4.357530517578125,0.6496621966362,0.028720319271087646,-0.33113282918930054
1783245494343542800,4.367542724609375,0.6387767791748047,0.055121567100286484,-0.3923399746417999
1783245494353553700,4.3775537109375,0.6330013871192932,0.06371185928583145,-0.4279959499835968
1783245494363565600,4.387565673828125,0.643691897392273,0.061082255095243454,-0.4258963167667389
1783245494373576700,4.39757666015625,0.6527628898620605,0.04306470602750778,-0.3890283703804016
1783245494383588900,4.4075888671875,0.6569168567657471,0.018107691779732704,-0.3187693953514099
1783245494393600800,4.417600830078125,0.6478855609893799,0.010535724461078644,-0.2356957495212555
1783245494403611600,4.427611572265625,0.6261104941368103,0.0350479893386364,-0.15113745629787445
1783245494413623800,4.437623779296875,0.5860164165496826,0.0714649185538292,-0.08517104387283325
1783245494423635700,4.4476357421875,0.5346035361289978,0.11122511327266693,-0.04009890928864479
1783245494433646600,4.457646484375,0.4749145209789276,0.14524340629577637,-0.024262098595499992
1783245494443658500,4.467658447265625,0.4113541841506958,0.15498711168766022,-0.024507109075784683
1783245494453670700,4.477670654296875,0.35252130031585693,0.13452810049057007,-0.02602527290582657
1783245494463681800,4.487681884765625,0.2978106439113617,0.09277746081352234,-0.019584152847528458
1783245494473693700,4.497693603515625,0.24701863527297974,0.035544008016586304,-0.005865343846380711
1783245494483705900,4.507705810546875,0.1999155730009079,-0.019502200186252594,0.01661759428679943
1783245494493716700,4.517716796875,0.15108530223369598,-0.04701152443885803,0.048256661742925644
1783245494503728600,4.527728759765625,0.10377663373947144,-0.045287925750017166,0.08871779590845108
1783245494513739500,4.537739501953125,0.06458565592765808,-0.012825779616832733,0.1296101212501526
1783245494523751700,4.547751708984375,0.04468998312950134,0.042346131056547165,0.149118572473526
1783245494533763600,4.557763671875,0.032762426882982254,0.11763373762369156,0.12831829488277435
1783245494543774700,4.567774658203125,0.006218967959284782,0.1888384222984314,0.0725833848118782
1783245494553787000,4.577786865234375,-0.02828070893883705,0.23579880595207214,0.005377678200602531
1783245494563798800,4.587798828125,-0.05728838965296745,0.23925639688968658,-0.05794057250022888
1783245494573809700,4.5978095703125,-0.06505193561315536,0.21415328979492188,-0.10583072155714035
1783245494583821800,4.60782177734375,-0.05764276161789894,0.1587693989276886,-0.13201145827770233
1783245494593833700,4.617833740234375,-0.022296946495771408,0.05198749527335167,-0.1250474601984024
1783245494603844600,4.6278447265625,0.03347736969590187,-0.13828417658805847,-0.07597711682319641
1783245494613856800,4.637856689453125,0.0907234475016594,-0.3491947054862976,0.007373047061264515
1783245494623868700,4.64786865234375,0.13509277999401093,-0.48004379868507385,0.09718762338161469
1783245494633879600,4.657879638671875,0.15330135822296143,-0.46969741582870483,0.13890887796878815
1783245494643891700,4.6678916015625,0.14762456715106964,-0.3082701563835144,0.08778630197048187
1783245494653902800,4.67790283203125,0.11076610535383224,-0.08410802483558655,-0.037832148373126984
1783245494663914800,4.687914794921875,0.05012059956789017,0.1326703429222107,-0.18025293946266174
1783245494673926700,4.6979267578125,-0.01742110773921013,0.3013280928134918,-0.2661171853542328
1783245494683937800,4.707937744140625,-0.0641033947467804,0.38893571496009827,-0.24965937435626984
1783245494693949700,4.71794970703125,-0.07826845347881317,0.3861558437347412,-0.14014749228954315
1783245494703961600,4.727961669921875,-0.08706460893154144,0.3117404580116272,0.02594294399023056
1783245494713972700,4.73797265625,-0.11960729956626892,0.19774730503559113,0.20442211627960205
1783245494723984600,4.747984619140625,-0.1946123093366623,0.08307050913572311,0.3620450496673584
1783245494733996500,4.75799658203125,-0.29373255372047424,0.006078530102968216,0.45321863889694214
1783245494744007700,4.768007568359375,-0.3844699263572693,0.0004752393579110503,0.45853087306022644
1783245494754019800,4.778019775390625,-0.44948863983154297,0.04260797053575516,0.39536169171333313
1783245494764031500,4.788031494140625,-0.4743351340293884,0.08264699578285217,0.29757681488990784
1783245494774042400,4.79804248046875,-0.44000300765037537,0.08499085903167725,0.20531702041625977
1783245494784054300,4.80805419921875,-0.3520611822605133,0.04673055186867714,0.1412874311208725
1783245494794066400,4.81806640625,-0.24112439155578613,-0.0339430533349514,0.11854652315378189
1783245494804077300,4.828077392578125,-0.1450985223054886,-0.12670494616031647,0.12266111373901367
1783245494814089200,4.838089111328125,-0.08397164195775986,-0.17051614820957184,0.12005262821912766
1783245494824100400,4.848100341796875,-0.06753088533878326,-0.15460775792598724,0.10100996494293213
1783245494834112500,4.858112548828125,-0.08747074007987976,-0.12110685557126999,0.07037778198719025
1783245494844124400,4.86812451171875,-0.12492303550243378,-0.08206597715616226,0.0390494242310524
1783245494854135300,4.87813525390625,-0.1542482227087021,-0.03688918426632881,0.010652867145836353
1783245494864147500,4.8881474609375,-0.17984147369861603,0.026042375713586807,-0.013116644695401192
1783245494874159400,4.898159423828125,-0.19298450648784637,0.08461940288543701,-0.03471432626247406
1783245494884170200,4.908170166015625,-0.186232328414917,0.11465480178594589,-0.05348801240324974
1783245494894182400,4.918182373046875,-0.17055277526378632,0.10084125399589539,-0.08178700506687164
1783245494904194300,4.9281943359375,-0.1399911344051361,0.0467924028635025,-0.11097711324691772
1783245494914205400,4.938205322265625,-0.0979229062795639,-0.035479042679071426,-0.13542312383651733
1783245494924217300,4.94821728515625,-0.051286157220602036,-0.12821216881275177,-0.13114102184772491
1783245494934229200,4.958229248046875,-0.011188731528818607,-0.2192220389842987,-0.1085599735379219
1783245494944240400,4.968240478515625,0.014631147496402264,-0.2878580689430237,-0.0670948177576065
1783245494954252300,4.978252197265625,0.017552975565195084,-0.30164292454719543,-0.026485230773687363
1783245494964264400,4.988264404296875,-0.012567908503115177,-0.2539592981338501,0.007066601887345314
1783245494974275300,4.998275390625,-0.07706541568040848,-0.15877839922904968,0.03969525545835495
1783245494984287200,5.008287353515625,-0.16241519153118134,-0.036897238343954086,0.0828147605061531
1783245494994298000,5.018298095703125,-0.24495086073875427,0.08503706008195877,0.1368427723646164
1783245495004310300,5.028310302734375,-0.29357990622520447,0.17864903807640076,0.18982023000717163
1783245495014322200,5.038322265625,-0.3095586895942688,0.23034925758838654,0.21853312849998474
1783245495024333300,5.048333251953125,-0.30878689885139465,0.2527376711368561,0.20835186541080475
1783245495034345500,5.058345458984375,-0.3048734962940216,0.2437317669391632,0.15738733112812042
1783245495044357400,5.068357421875,-0.3006438612937927,0.21112295985221863,0.07270786911249161
1783245495054368300,5.0783681640625,-0.29563677310943604,0.1708575040102005,-0.032090604305267334
1783245495064380400,5.08838037109375,-0.2891400158405304,0.13768915832042694,-0.1356300413608551
1783245495074392300,5.098392333984375,-0.27165213227272034,0.1213294118642807,-0.21546728909015656
1783245495084403200,5.1084033203125,-0.2475803643465042,0.10151895135641098,-0.25358298420906067
1783245495094415400,5.118415283203125,-0.21758241951465607,0.08116941154003143,-0.2596057057380676
1783245495104427300,5.12842724609375,-0.19398947060108185,0.06469962000846863,-0.24532291293144226
1783245495114438400,5.1384384765625,-0.18720939755439758,0.056289300322532654,-0.218356654047966
1783245495124450300,5.1484501953125,-0.20567069947719574,0.05321627855300903,-0.17603608965873718
1783245495134461400,5.15846142578125,-0.22584481537342072,0.08361200243234634,-0.12068571150302887
1783245495144473300,5.168473388671875,-0.22638490796089172,0.14993484318256378,-0.06080107018351555
1783245495154485200,5.1784853515625,-0.20878158509731293,0.1984407752752304,-0.006024357862770557
1783245495164496400,5.188496337890625,-0.18544882535934448,0.1785922348499298,0.030068930238485336
1783245495174508300,5.19850830078125,-0.16973184049129486,0.13338108360767365,0.04320388659834862
1783245495184520200,5.208520263671875,-0.1718788743019104,0.1317341923713684,0.028506699949502945
1783245495194531300,5.21853125,-0.18071827292442322,0.15836815536022186,-0.012727302499115467
1783245495204543200,5.228543212890625,-0.18730001151561737,0.17556019127368927,-0.06935276091098785
1783245495214555100,5.23855517578125,-0.1867731660604477,0.19389984011650085,-0.11785441637039185
1783245495224566300,5.248566162109375,-0.1749226301908493,0.2141347974538803,-0.14697927236557007
1783245495234578400,5.258578369140625,-0.14580847322940826,0.21435801684856415,-0.1588987112045288
1783245495244590300,5.26859033203125,-0.11754381656646729,0.18913735449314117,-0.15800230205059052
1783245495254601200,5.278601318359375,-0.09837333858013153,0.1556457132101059,-0.15006546676158905
1783245495264613400,5.28861328125,-0.09884578734636307,0.11388708651065826,-0.13889217376708984
1783245495274625300,5.298625244140625,-0.11165430396795273,0.09316123276948929,-0.13616317510604858
1783245495284636200,5.30863623046875,-0.12483987212181091,0.11677734553813934,-0.1568591296672821
1783245495294648300,5.3186484375,-0.12914127111434937,0.17365440726280212,-0.19836707413196564
1783245495304659500,5.328659423828125,-0.1125311404466629,0.2126486897468567,-0.2466144859790802
1783245495314671400,5.33867138671875,-0.06260185688734055,0.2171134650707245,-0.2983908951282501
1783245495324683500,5.34868359375,0.014389066025614738,0.20212945342063904,-0.3695952892303467
1783245495334694400,5.3586943359375,0.10223256051540375,0.1746497005224228,-0.4651155471801758
1783245495344706300,5.368706298828125,0.17981337010860443,0.13847757875919342,-0.5654423832893372
1783245495354718200,5.37871826171875,0.23323369026184082,0.05870611593127251,-0.6600036025047302
1783245495364729300,5.388729248046875,0.26821035146713257,-0.06898420304059982,-0.7186186909675598
1783245495374741200,5.3987412109375,0.29802611470222473,-0.22791171073913574,-0.7242483496665955
1783245495384753200,5.408753173828125,0.33002132177352905,-0.36439207196235657,-0.6648598313331604
1783245495394764500,5.4187646484375,0.3404626250267029,-0.4545673727989197,-0.5497883558273315
1783245495404776400,5.4287763671875,0.33033517003059387,-0.4589346945285797,-0.39082902669906616
1783245495414788400,5.438788330078125,0.29378071427345276,-0.37350839376449585,-0.2159472107887268
1783245495424799500,5.448799560546875,0.23604445159435272,-0.20556840300559998,-0.036821410059928894
1783245495434811400,5.458811279296875,0.16545239090919495,-0.0032824240624904633,0.14331121742725372
1783245495444822300,5.468822265625,0.0896734818816185,0.17894355952739716,0.3136443495750427
1783245495454834200,5.478834228515625,0.02132464200258255,0.30370646715164185,0.4778768718242645
1783245495464846300,5.488846435546875,-0.031296491622924805,0.3396040201187134,0.6110655665397644
1783245495474857200,5.498857177734375,-0.06035714969038963,0.29169929027557373,0.7056538462638855
1783245495484869000,5.508869140625,-0.05881704017519951,0.1981285959482193,0.7526171207427979
1783245495494881300,5.51888134765625,-0.034979820251464844,0.1122899129986763,0.7524140477180481
1783245495504892400,5.528892333984375,0.004683704115450382,0.07128521800041199,0.7100332975387573
1783245495514904300,5.538904296875,0.050269901752471924,0.05788925290107727,0.6184991002082825
1783245495524916500,5.54891650390625,0.09968538582324982,0.11206860095262527,0.4742599129676819
1783245495534927400,5.55892724609375,0.15564322471618652,0.20321163535118103,0.2961304187774658
1783245495544939300,5.568939208984375,0.2143598049879074,0.2920413613319397,0.11915429681539536
1783245495554951400,5.578951416015625,0.269812673330307,0.34803086519241333,-0.02673446759581566
1783245495564962300,5.58896240234375,0.3154648542404175,0.35148313641548157,-0.1291186362504959
1783245495574974200,5.59897412109375,0.35795000195503235,0.29201555252075195,-0.1747439056634903
1783245495584986000,5.608986083984375,0.40134647488594055,0.17441007494926453,-0.17516842484474182
1783245495594997500,5.61899755859375,0.4332437515258789,0.029505088925361633,-0.138821080327034
1783245495605009400,5.629009521484375,0.447767049074173,-0.10506896674633026,-0.0790427029132843
1783245495615020300,5.639020263671875,0.43971553444862366,-0.18178412318229675,-0.026328280568122864
1783245495625032400,5.649032470703125,0.4153795838356018,-0.18423449993133545,0.002480730414390564
1783245495635044400,5.65904443359375,0.37886306643486023,-0.14012762904167175,0.00852070190012455
1783245495645055200,5.66905517578125,0.33969011902809143,-0.0685754045844078,0.0024018227122724056
1783245495655067400,5.6790673828125,0.30392158031463623,0.0182529017329216,0.006058960221707821
1783245495665079300,5.689079345703125,0.2821691334247589,0.09888782352209091,0.02395220659673214
1783245495675090400,5.69909033203125,0.27652090787887573,0.15087951719760895,0.050652600824832916
1783245495685102300,5.709102294921875,0.2829902470111847,0.18354664742946625,0.06213802099227905
1783245495695114500,5.719114501953125,0.30262044072151184,0.20406703650951385,0.04324080049991608
1783245495705125400,5.72912548828125,0.3279705345630646,0.19859769940376282,-0.011276504024863243
1783245495715137300,5.73913720703125,0.3502349257469177,0.158419668674469,-0.08643130213022232
1783245495725149400,5.7491494140625,0.35852667689323425,0.10347066819667816,-0.15956756472587585
1783245495735160300,5.759160400390625,0.34979578852653503,0.06269685924053192,-0.21253474056720734
1783245495745172200,5.769172119140625,0.3348400294780731,0.061638522893190384,-0.2373466193675995
1783245495755183000,5.77918310546875,0.31370899081230164,0.08931635320186615,-0.2294619083404541
1783245495765195800,5.78919580078125,0.2859508693218231,0.14395856857299805,-0.1880606710910797
1783245495775207700,5.799207763671875,0.2502076327800751,0.21815823018550873,-0.12227097153663635
1783245495785218800,5.80921875,0.21480678021907806,0.29831671714782715,-0.05350814759731293
1783245495795231000,5.81923095703125,0.19194431602954865,0.3677196204662323,-0.002168694045394659
1783245495805243000,5.829242919921875,0.1838829219341278,0.41562721133232117,0.018468940630555153
1783245495815253800,5.839253662109375,0.18884120881557465,0.4066368639469147,0.0005409377627074718
1783245495825266000,5.849265869140625,0.19663813710212708,0.33343589305877686,-0.05559423565864563
1783245495835277800,5.85927783203125,0.1984107345342636,0.23355190455913544,-0.13604646921157837
1783245495845288700,5.869288818359375,0.20392242074012756,0.1258707195520401,-0.22214406728744507
1783245495855300900,5.87930078125,0.20828251540660858,0.013026642613112926,-0.2902906537055969
1783245495865312800,5.889312744140625,0.2190275639295578,-0.08306127786636353,-0.31646233797073364
1783245495875323600,5.89932373046875,0.23466059565544128,-0.13649900257587433,-0.3063720166683197
1783245495885335800,5.909335693359375,0.24131982028484344,-0.1269417107105255,-0.27122417092323303
1783245495895347700,5.91934765625,0.22936475276947021,-0.06760061532258987,-0.23556385934352875
1783245495905358800,5.92935888671875,0.1824560910463333,-0.00043062842451035976,-0.20003461837768555
1783245495915371000,5.93937109375,0.11833792924880981,0.056995097547769547,-0.17261271178722382
1783245495925382000,5.9493818359375,0.039758168160915375,0.11527571827173233,-0.14594142138957977
1783245495935393800,5.959393798828125,-0.03485905006527901,0.15113605558872223,-0.11888580024242401
1783245495945405700,5.96940576171875,-0.0966009795665741,0.1576962172985077,-0.09126561880111694
1783245495955416800,5.979416748046875,-0.13991378247737885,0.13618811964988708,-0.06509093940258026
1783245495965428700,5.9894287109375,-0.14707262814044952,0.07060645520687103,-0.04251798242330551
1783245495975440600,5.999440673828125,-0.11569678783416748,-0.04131188616156578,-0.023869354277849197
1783245495985452000,6.0094521484375,-0.05395326018333435,-0.18462911248207092,-0.007987326942384243
1783245495995464000,6.0194638671875,0.019896287471055984,-0.32291778922080994,-0.005277546122670174
1783245496005475800,6.029475830078125,0.091636523604393,-0.4209493100643158,-0.031035641208291054
1783245496015486700,6.03948681640625,0.144420325756073,-0.45536836981773376,-0.09953461587429047
1783245496025499000,6.049498779296875,0.1465764194726944,-0.4649112820625305,-0.17870187759399414
1783245496035510800,6.0595107421875,0.10498147457838058,-0.4580495357513428,-0.23019477725028992
1783245496045521700,6.069521728515625,0.0339730829000473,-0.4037812352180481,-0.2375434935092926
1783245496055533800,6.079533935546875,-0.05375572666525841,-0.27563145756721497,-0.1942213624715805
1783245496065545000,6.089544921875,-0.14276336133480072,-0.09376976639032364,-0.12202891707420349
1783245496075556900,6.099556884765625,-0.22941167652606964,0.09377875924110413,-0.03348064422607422
1783245496085569000,6.109569091796875,-0.3024299740791321,0.21136531233787537,0.05792703852057457
1783245496095580000,6.119579833984375,-0.3418773114681244,0.204880028963089,0.15696509182453156
1783245496105591800,6.129591796875,-0.3354247510433197,0.09442436695098877,0.25605306029319763
1783245496115604000,6.13960400390625,-0.2883775532245636,-0.06528013944625854,0.3321167826652527
1783245496125614800,6.14961474609375,-0.22605982422828674,-0.20943811535835266,0.3754570782184601
1783245496135626800,6.159626708984375,-0.1582786738872528,-0.32898783683776855,0.3954803943634033
1783245496145639000,6.169638916015625,-0.08680236339569092,-0.41497543454170227,0.3810255527496338
1783245496155649800,6.17964990234375,-0.02796538732945919,-0.4469603896141052,0.348829984664917
1783245496165661700,6.18966162109375,0.011623301543295383,-0.44556304812431335,0.31540384888648987
1783245496175673600,6.199673583984375,0.026812665164470673,-0.42721450328826904,0.2898818552494049
1783245496185685000,6.20968505859375,0.006711125373840332,-0.41677969694137573,0.28708741068840027
1783245496195697000,6.21969677734375,-0.030617166310548782,-0.37944233417510986,0.2890697121620178
1783245496205708800,6.229708740234375,-0.08169766515493393,-0.30375078320503235,0.29005640745162964
1783245496215720000,6.239719970703125,-0.14227049052715302,-0.21931958198547363,0.2824413478374481
1783245496225731800,6.24973193359375,-0.2151803821325302,-0.12733079493045807,0.2580167055130005
1783245496235742700,6.25974267578125,-0.29220297932624817,-0.030742011964321136,0.21701446175575256
1783245496245754600,6.269754638671875,-0.3672439157962799,0.048867061734199524,0.16882190108299255
1783245496255766800,6.279766845703125,-0.42382922768592834,0.0807337835431099,0.121757373213768
1783245496265778000,6.28977783203125,-0.44250065088272095,0.060173384845256805,0.08829022198915482
1783245496275789800,6.299789794921875,-0.42726242542266846,0.017388965934515,0.07504375278949738
1783245496285802000,6.309802001953125,-0.38269203901290894,-0.04801454022526741,0.08098287135362625
1783245496295812900,6.319812744140625,-0.31592458486557007,-0.11842978000640869,0.10942363739013672
1783245496305824800,6.32982470703125,-0.23338176310062408,-0.1558905988931656,0.13847419619560242
1783245496315837000,6.3398369140625,-0.16092580556869507,-0.12496677041053772,0.14604401588439941
1783245496325847800,6.349847900390625,-0.1092466413974762,-0.05219642072916031,0.12514007091522217
1783245496335859700,6.359859619140625,-0.08272060751914978,0.008334824815392494,0.09072291851043701
1783245496345872000,6.369871826171875,-0.06601007282733917,0.05501178279519081,0.053378745913505554
1783245496355883000,6.379883056640625,-0.05943015217781067,0.11376257240772247,0.019094349816441536
1783245496365895000,6.38989501953125,-0.06266909092664719,0.1421031355857849,-0.012664910405874252
1783245496375905800,6.39990576171875,-0.08688167482614517,0.16330982744693756,-0.037617024034261703
1783245496385918000,6.40991796875,-0.13243184983730316,0.15077325701713562,-0.053692664951086044
1783245496395929900,6.419929931640625,-0.18367914855480194,0.11702203005552292,-0.05300212278962135
1783245496405940700,6.429940673828125,-0.23007887601852417,0.053280867636203766,-0.02667597495019436
1783245496415953000,6.439952880859375,-0.26060301065444946,-0.011832690797746181,0.020842868834733963
1783245496425964800,6.44996484375,-0.27866458892822266,-0.06335154175758362,0.07822466641664505
1783245496435975700,6.4599755859375,-0.288465678691864,-0.08414597064256668,0.13731800019741058
1783245496445987800,6.46998779296875,-0.3061400353908539,-0.04858105629682541,0.1859118938446045
1783245496455999700,6.479999755859375,-0.327309787273407,0.023535361513495445,0.22122295200824738
1783245496466011000,6.490010986328125,-0.34771332144737244,0.10889100283384323,0.237224280834198
1783245496476022800,6.500022705078125,-0.368484765291214,0.17572535574436188,0.23652997612953186
1783245496486035000,6.510034912109375,-0.3770598769187927,0.21908561885356903,0.21373680233955383
1783245496496045800,6.5200458984375,-0.36777615547180176,0.252882182598114,0.16465653479099274
1783245496506057700,6.5300576171875,-0.34303006529808044,0.29147806763648987,0.10255906730890274
1783245496516070000,6.54006982421875,-0.3134751319885254,0.29475489258766174,0.04298047721385956
1783245496526080800,6.550080810546875,-0.2938319444656372,0.2829933166503906,-0.0015584933571517467
1783245496536092700,6.5600927734375,-0.26465553045272827,0.276901513338089,-0.030245445668697357
1783245496546103800,6.570103759765625,-0.23740871250629425,0.2704574465751648,-0.037454623728990555
1783245496556116000,6.580115966796875,-0.21326512098312378,0.22710350155830383,-0.01071125827729702
1783245496566127900,6.5901279296875,-0.20180580019950867,0.15964776277542114,0.03518113121390343
1783245496576138800,6.600138671875,-0.18058326840400696,0.1114058792591095,0.08811502903699875
1783245496586151000,6.61015087890625,-0.1724659502506256,0.07794485986232758,0.1449705809354782
1783245496596162800,6.620162841796875,-0.17709676921367645,0.06622175872325897,0.18530383706092834
1783245496606173700,6.630173583984375,-0.19580626487731934,0.08357731252908707,0.20894284546375275
1783245496616185900,6.640185791015625,-0.21498426795005798,0.11715018004179001,0.1977015733718872
1783245496626197800,6.65019775390625,-0.22380998730659485,0.15725766122341156,0.15722952783107758
1783245496636209000,6.660208984375,-0.21159552037715912,0.19211331009864807,0.09693138301372528
1783245496646220800,6.670220703125,-0.18336068093776703,0.21069897711277008,0.027560295537114143
1783245496656233000,6.68023291015625,-0.146906778216362,0.1705348640680313,-0.03501516953110695
1783245496666243800,6.690243896484375,-0.11495417356491089,0.06066135689616203,-0.07176706194877625
1783245496676256000,6.700256103515625,-0.08134394884109497,-0.08178761601448059,-0.07653773576021194
1783245496686267000,6.710266845703125,-0.043698836117982864,-0.18267269432544708,-0.06860391050577164
1783245496696278800,6.72027880859375,-0.010169636458158493,-0.2246963083744049,-0.05322175845503807
1783245496706290700,6.730290771484375,0.003291842993348837,-0.22325552999973297,-0.043189894407987595
1783245496716301800,6.7403017578125,0.009051025845110416,-0.20260924100875854,-0.046336542814970016
1783245496726313700,6.750313720703125,0.03192624822258949,-0.17270460724830627,-0.06922614574432373
1783245496736325600,6.76032568359375,0.08161630481481552,-0.11603733152151108,-0.10876183956861496
1783245496746337000,6.7703369140625,0.15192696452140808,-0.020176580175757408,-0.17050695419311523
1783245496756349000,6.780348876953125,0.2378164678812027,0.11034640669822693,-0.27765700221061707
1783245496766359800,6.79035986328125,0.3392845094203949,0.24802890419960022,-0.4391705095767975
1783245496776370700,6.80037060546875,0.44514769315719604,0.3540123403072357,-0.6345219016075134
1783245496786382800,6.8103828125,0.5306369662284851,0.40799328684806824,-0.812836766242981
1783245496796394800,6.820394775390625,0.5937303304672241,0.4133612811565399,-0.9102199077606201
1783245496806406000,6.830406005859375,0.6455394625663757,0.36107197403907776,-0.899100661277771
1783245496816418000,6.84041796875,0.6824983954429626,0.2592625319957733,-0.7782802581787109
1783245496826430000,6.850429931640625,0.694872260093689,0.1531595140695572,-0.5827549695968628
1783245496836440800,6.86044091796875,0.6541026830673218,0.10273363441228867,-0.3548397421836853
1783245496846452700,6.87045263671875,0.5652343034744263,0.12974634766578674,-0.1223873496055603
1783245496856464000,6.8804638671875,0.44277918338775635,0.19473133981227875,0.08461396396160126
1783245496866475800,6.890475830078125,0.31553441286087036,0.27271801233291626,0.26837074756622314
1783245496876487700,6.90048779296875,0.20152299106121063,0.3379219174385071,0.43350204825401306
1783245496886498800,6.910498779296875,0.11609303206205368,0.396877646446228,0.5850271582603455
1783245496896510700,6.9205107421875,0.07601778209209442,0.44957372546195984,0.6938309073448181
1783245496906522600,6.930522705078125,0.07285208255052567,0.5167917013168335,0.739118218421936
1783245496916533800,6.94053369140625,0.09713725745677948,0.6066280007362366,0.7179385423660278
1783245496926546000,6.9505458984375,0.15028570592403412,0.677280604839325,0.6365893483161926
1783245496936557800,6.960557861328125,0.23411056399345398,0.6971022486686707,0.5131221413612366
1783245496946568700,6.970568603515625,0.34384050965309143,0.6648148894309998,0.36545735597610474
1783245496956580900,6.980580810546875,0.4583592414855957,0.5919342637062073,0.20600877702236176
1783245496966592800,6.9905927734375,0.5739772319793701,0.4856376647949219,0.04544227197766304
1783245496976603600,7.000603759765625,0.6789575815200806,0.342147558927536,-0.10195368528366089
1783245496986615800,7.01061572265625,0.7712278962135315,0.18487218022346497,-0.2158626765012741
1783245496996627000,7.020626953125,0.8442757725715637,0.04274778813123703,-0.2997336983680725
1783245497006638800,7.030638916015625,0.9039513468742371,-0.04848971590399742,-0.3383367657661438
1783245497016651000,7.040651123046875,0.9510740041732788,-0.11012185364961624,-0.3400435745716095
1783245497026662000,7.050661865234375,0.9891454577445984,-0.13730072975158691,-0.3131733536720276
1783245497036673800,7.060673828125,1.0187292098999023,-0.15637129545211792,-0.27434876561164856
1783245497046686000,7.07068603515625,1.0303817987442017,-0.1675613671541214,-0.236228808760643
1783245497056696800,7.08069677734375,1.0220831632614136,-0.14572475850582123,-0.20037218928337097
1783245497066708700,7.090708740234375,0.9965437054634094,-0.08783669024705887,-0.17773984372615814
1783245497076720600,7.100720703125,0.9524432420730591,-0.024632645770907402,-0.16954335570335388
1783245497086732000,7.11073193359375,0.9207308292388916,0.030122479423880577,-0.17879144847393036
1783245497096744000,7.120743896484375,0.9101484417915344,0.07859153300523758,-0.20795315504074097
1783245497106755800,7.130755859375,0.922519326210022,0.08862926065921783,-0.25125670433044434
1783245497116767000,7.14076708984375,0.9571458101272583,0.05601518973708153,-0.3124431371688843
1783245497126779000,7.15077880859375,0.9942750930786133,-0.02412571758031845,-0.3904167711734772
1783245497136790800,7.160790771484375,1.01983642578125,-0.32760193943977356,-0.4960018992424011
1783245497146801700,7.1708017578125,0.9761866927146912,-0.2967124879360199,-0.626990795135498
1783245497156813800,7.180813720703125,0.928674042224884,-0.19880971312522888,-0.7168717980384827
1783245497166824700,7.19082470703125,0.9189298152923584,-0.18108610808849335,-0.7138533592224121
1783245497176836600,7.200836669921875,0.9414138197898865,-0.17916063964366913,-0.6376092433929443
1783245497186848800,7.210848876953125,0.9520784616470337,-0.12091518193483353,-0.5126379728317261
1783245497196860000,7.22085986328125,0.929405689239502,0.008251078426837921,-0.36524736881256104
1783245497206871800,7.230871826171875,0.8739432692527771,0.13264572620391846,-0.21470576524734497
1783245497216884000,7.240884033203125,0.7889768481254578,0.25146085023880005,-0.0676589161157608
1783245497226894800,7.250894775390625,0.6991891860961914,0.32142770290374756,0.055506959557533264
1783245497236906800,7.26090673828125,0.6107851266860962,0.30759716033935547,0.15401074290275574
1783245497246919000,7.2709189453125,0.5302489995956421,0.2286115139722824,0.22219592332839966
1783245497256929800,7.2809296875,0.45822039246559143,0.11379067599773407,0.2579878270626068
1783245497266941700,7.290941650390625,0.4049651622772217,0.008608597330749035,0.26457327604293823
1783245497276953900,7.300953857421875,0.3769095540046692,-0.07694704830646515,0.2476067990064621
1783245497286965000,7.310965087890625,0.36796772480010986,-0.14215348660945892,0.1992054432630539
1783245497296977000,7.320976806640625,0.36161378026008606,-0.1739329844713211,0.12051958590745926
1783245497306987800,7.33098779296875,0.343612939119339,-0.13562928140163422,0.02852335013449192
1783245497317000000,7.341,0.30740585923194885,-0.016645032912492752,-0.032748810946941376
1783245497327011800,7.35101171875,0.2622136175632477,0.14654655754566193,-0.0438627153635025
1783245497337022700,7.361022705078125,0.23100651800632477,0.3181365430355072,-0.013138215988874435
1783245497347035000,7.371034912109375,0.2086985558271408,0.41665032505989075,0.07075615227222443
1783245497357046800,7.381046875,0.18705318868160248,0.41164398193359375,0.18301042914390564
1783245497367058000,7.391057861328125,0.16101786494255066,0.3294511139392853,0.3002808690071106
1783245497377069800,7.40106982421875,0.12672287225723267,0.20399394631385803,0.4049842953681946
1783245497387082000,7.41108203125,0.08147762715816498,0.0023931749165058136,0.4900839924812317
1783245497397092900,7.4210927734375,0.04231199249625206,-0.2526674270629883,0.5307305455207825
1783245497407104800,7.431104736328125,0.01914249360561371,-0.46008825302124023,0.5026283264160156
1783245497417117000,7.441116943359375,0.012241128832101822,-0.5489409565925598,0.4123597741127014
1783245497427127800,7.4511279296875,0.014253146946430206,-0.5301569104194641,0.28600290417671204
1783245497437139700,7.4611396484375,0.02612883597612381,-0.4336579740047455,0.1519789844751358
1783245497447150600,7.471150634765625,0.04984481632709503,-0.30637484788894653,0.034096285700798035
1783245497457162800,7.481162841796875,0.09408668428659439,-0.18752263486385345,-0.060255106538534164
1783245497467174700,7.491174560546875,0.13831272721290588,-0.11626896262168884,-0.12677261233329773
1783245497477185800,7.501185791015625,0.1654043197631836,-0.11262121796607971,-0.17364656925201416
1783245497487198000,7.511197998046875,0.1631547510623932,-0.1890038698911667,-0.1955026090145111
1783245497497209900,7.5212099609375,0.13625453412532806,-0.32574814558029175,-0.1796652376651764
1783245497507220700,7.531220703125,0.11416520923376083,-0.4459182322025299,-0.13174273073673248
1783245497517233000,7.54123291015625,0.09362787008285522,-0.4763259291648865,-0.06375496089458466
1783245497527244800,7.551244873046875,0.07209887355566025,-0.44826582074165344,0.011619155295193195
1783245497537255700,7.561255615234375,0.054793454706668854,-0.43330118060112,0.09072500467300415
1783245497547267800,7.571267822265625,0.025622786954045296,-0.46288490295410156,0.1746225655078888
1783245497557279700,7.58127978515625,0.0027899236883968115,-0.505068838596344,0.24690493941307068
1783245497567291000,7.591290771484375,-0.020126577466726303,-0.5440687537193298,0.3040230870246887
1783245497577303000,7.601302978515625,-0.0453537218272686,-0.5812875032424927,0.3428202271461487
1783245497587315000,7.61131494140625,-0.08417434990406036,-0.6152251958847046,0.35689130425453186
1783245497597325800,7.621325927734375,-0.12672877311706543,-0.6255943179130554,0.3419232666492462
1783245497607337700,7.631337646484375,-0.1646854728460312,-0.576549768447876,0.30346909165382385
1783245497617348900,7.641348876953125,-0.19970780611038208,-0.44797787070274353,0.24550819396972656
1783245497627360800,7.65136083984375,-0.220596045255661,-0.2570241689682007,0.16787438094615936
1783245497637372700,7.66137255859375,-0.22014383971691132,-0.05435018986463547,0.07692090421915054
1783245497647383800,7.6713837890625,-0.21429793536663055,0.08323696255683899,-0.013560524210333824
1783245497657395700,7.681395751953125,-0.21247299015522003,0.10670393705368042,-0.08769338577985764
1783245497667408000,7.691407958984375,-0.20666010677814484,0.042218152433633804,-0.13485316932201385
1783245497677418800,7.701418701171875,-0.19558356702327728,-0.08407767117023468,-0.1542070060968399
1783245497687431000,7.711430908203125,-0.17382100224494934,-0.23775698244571686,-0.13303142786026
1783245497697442800,7.72144287109375,-0.1346980333328247,-0.3730328381061554,-0.0778985470533371
1783245497707453700,7.73145361328125,-0.09440040588378906,-0.458427369594574,-0.006452327594161034
1783245497717465900,7.7414658203125,-0.07001391798257828,-0.4777432680130005,0.06400934606790543
1783245497727477800,7.751477783203125,-0.06879871338605881,-0.4417455792427063,0.11665045469999313
1783245497737488600,7.761488525390625,-0.09046091139316559,-0.3992464542388916,0.13308314979076385
1783245497747500800,7.771500732421875,-0.11121892184019089,-0.32080116868019104,0.10303976386785507
1783245497757512000,7.781511962890625,-0.13415902853012085,-0.23092037439346313,0.04860556125640869
1783245497767524400,7.7915244140625,-0.1604984998703003,-0.19750568270683289,-0.0032736165449023247
1783245497777536500,7.80153662109375,-0.1879146695137024,-0.19488246738910675,-0.028597882017493248
1783245497787547400,7.81154736328125,-0.2524590492248535,-0.2077801674604416,-0.015355845913290977
1783245497797559300,7.821559326171875,-0.3194350302219391,-0.17469431459903717,0.03815549984574318
1783245497807571500,7.831571533203125,-0.3082905113697052,0.03445091098546982,0.21320322155952454
1783245497817582300,7.841582275390625,-0.2548973560333252,0.4314723312854767,0.20065823197364807
1783245497827594200,7.85159423828125,-0.23536571860313416,0.7480457425117493,0.09842000156641006
1783245497837606400,7.8616064453125,-0.2868582010269165,0.886928141117096,-0.05334825813770294
1783245497847617300,7.8716171875,-0.32605302333831787,0.9167832732200623,-0.21197278797626495
1783245497857629200,7.881629150390625,-0.30323711037635803,0.875361442565918,-0.31566938757896423
1783245497867641000,7.89164111328125,-0.2278803139925003,0.789367139339447,-0.34092068672180176
1783245497877652500,7.901652587890625,-0.13423748314380646,0.6558291912078857,-0.2854765057563782
