time,seconds_elapsed,z,y,x
1783245508264142300,0.070142333984375,0.7758052945137024,0.025926198810338974,0.06857360899448395
1783245508274154200,0.080154296875,0.7107325792312622,0.03078966587781906,0.10960546880960464
1783245508284165400,0.090165283203125,0.6548194289207458,0.028555739670991898,0.1307068169116974
1783245508294177300,0.10017724609375,0.6185067296028137,0.025597499683499336,0.13680492341518402
1783245508304189200,0.110189208984375,0.6138988137245178,0.0264865905046463,0.1489749699831009
1783245508314200300,0.120200439453125,0.631897509098053,0.052923258394002914,0.16436457633972168
1783245508324212200,0.130212158203125,0.6563563942909241,0.10061323642730713,0.17628030478954315
1783245508334224100,0.14022412109375,0.6748735904693604,0.1645147204399109,0.1834556609392166
1783245508344235300,0.1502353515625,0.6643385291099548,0.23082295060157776,0.18832336366176605
1783245508354247400,0.160247314453125,0.6294524669647217,0.2933739423751831,0.19081421196460724
1783245508364259300,0.17025927734375,0.5779915452003479,0.3350992798805237,0.19719572365283966
1783245508374270200,0.180270263671875,0.5202768445014954,0.3445814549922943,0.20849551260471344
1783245508384282400,0.190282470703125,0.4755788743495941,0.3267896771430969,0.21639391779899597
1783245508394294300,0.200294189453125,0.44257307052612305,0.2854193449020386,0.22330980002880096
1783245508404305200,0.21030517578125,0.4204709231853485,0.2656582295894623,0.2282824069261551
1783245508414317300,0.2203173828125,0.40972426533699036,0.2723656892776489,0.2329181730747223
1783245508424329200,0.2303291015625,0.4049557149410248,0.31113407015800476,0.23011095821857452
1783245508434340400,0.24034033203125,0.3988032639026642,0.3544437289237976,0.22728560864925385
1783245508444352500,0.2503525390625,0.3899896442890167,0.36746615171432495,0.22556941211223602
1783245508454364400,0.260364501953125,0.3862476348876953,0.35989052057266235,0.2324369102716446
1783245508464375300,0.270375244140625,0.3971872329711914,0.3300657868385315,0.24001967906951904
1783245508474387500,0.280387451171875,0.4176703989505768,0.31355899572372437,0.24025218188762665
1783245508484399400,0.2903994140625,0.434331476688385,0.30408135056495667,0.23727208375930786
1783245508494410200,0.30041015625,0.43199747800827026,0.2701316475868225,0.2481497824192047
1783245508504422100,0.310422119140625,0.4157460331916809,0.2204161286354065,0.2659755349159241
1783245508514433300,0.320433349609375,0.3858613967895508,0.17419403791427612,0.28229618072509766
1783245508524445200,0.330445068359375,0.3541027307510376,0.17005296051502228,0.2844734787940979
1783245508534457000,0.34045703125,0.3285744786262512,0.22101201117038727,0.2774896025657654
1783245508544469200,0.35046923828125,0.3132861256599426,0.30623742938041687,0.26536285877227783
1783245508554480400,0.36048046875,0.3095366656780243,0.40775659680366516,0.25662556290626526
1783245508564492300,0.3704921875,0.3150690793991089,0.5252197980880737,0.24835626780986786
1783245508574504400,0.38050439453125,0.3326400816440582,0.6389098763465881,0.23499998450279236
1783245508584515300,0.390515380859375,0.3578073978424072,0.6851478815078735,0.22104476392269135
1783245508594527200,0.40052734375,0.38952699303627014,0.6392326354980469,0.20784400403499603
1783245508604539400,0.410539306640625,0.433948814868927,0.5241517424583435,0.19858995079994202
1783245508614550300,0.42055029296875,0.4767913520336151,0.3624192476272583,0.18142427504062653
1783245508624562200,0.430562255859375,0.4991171658039093,0.18307282030582428,0.16115765273571014
1783245508634574000,0.440573974609375,0.49221956729888916,-0.025959748774766922,0.14117303490638733
1783245508644585500,0.45058544921875,0.45085811614990234,-0.19298961758613586,0.13501036167144775
1783245508654597400,0.460597412109375,0.3746701180934906,-0.28672143816947937,0.14259903132915497
1783245508664608300,0.470608154296875,0.2837143540382385,-0.3306940793991089,0.17020121216773987
1783245508674620400,0.480620361328125,0.19649982452392578,-0.32761117815971375,0.2167854905128479
1783245508684632300,0.49063232421875,0.14324572682380676,-0.2663284242153168,0.27094224095344543
1783245508694644200,0.500644287109375,0.12106984108686447,-0.17303895950317383,0.33042022585868835
1783245508704655400,0.5106552734375,0.1206609457731247,-0.04399348795413971,0.3954392969608307
1783245508714667300,0.520667236328125,0.11908115446567535,0.10637844353914261,0.48810237646102905
1783245508724679200,0.53067919921875,0.11377853155136108,0.217206671833992,0.6128366589546204
1783245508734690300,0.540690185546875,0.10881759971380234,0.2998477518558502,0.7666698694229126
1783245508744702500,0.550702392578125,0.11637432128190994,0.41779544949531555,0.9232429265975952
1783245508754714400,0.56071435546875,0.12714122235774994,0.5952402353286743,1.060667634010315
1783245508764725200,0.570725341796875,0.13011915981769562,0.8085587024688721,1.161280632019043
1783245508774736600,0.580736572265625,0.1273936778306961,1.009617567062378,1.224019169807434
1783245508784747500,0.59074755859375,0.13465465605258942,1.127279281616211,1.2400240898132324
1783245508794759400,0.600759521484375,0.1510605365037918,1.1556942462921143,1.1585729122161865
1783245508804771600,0.610771484375,0.18099230527877808,1.0934860706329346,1.0154495239257812
1783245508814782700,0.62078271484375,0.18341685831546783,0.9420449137687683,0.885624349117279
1783245508824794600,0.630794677734375,0.21706996858119965,0.7480833530426025,0.7235695719718933
1783245508834806800,0.640806884765625,0.2872687578201294,0.5575720071792603,0.5548860430717468
1783245508844818700,0.650818603515625,0.37479573488235474,0.3845282793045044,0.404019296169281
1783245508854829600,0.66082958984375,0.4604414105415344,0.2487209290266037,0.2637394070625305
1783245508864841700,0.670841796875,0.5284380316734314,0.13695301115512848,0.14181111752986908
1783245508874853600,0.680853515625,0.5664600133895874,0.05251935496926308,0.030021730810403824
1783245508884864500,0.690864501953125,0.5850145816802979,0.02626662887632847,-0.06364818662405014
1783245508894876400,0.70087646484375,0.6029461622238159,0.022216226905584335,-0.139619380235672
1783245508904887600,0.710887451171875,0.6326112151145935,0.039293281733989716,-0.19568566977977753
1783245508914899700,0.720899658203125,0.6656972765922546,0.09374081343412399,-0.22987346351146698
1783245508924911600,0.73091162109375,0.6885993480682373,0.14562790095806122,-0.24596121907234192
1783245508934922800,0.7409228515625,0.7007681131362915,0.13772815465927124,-0.2442874163389206
1783245508944934700,0.7509345703125,0.7020204663276672,0.061074599623680115,-0.23388263583183289
1783245508954946600,0.760946533203125,0.6912016272544861,-0.03444952517747879,-0.22550514340400696
1783245508964957400,0.77095751953125,0.6757333874702454,-0.13234664499759674,-0.22027277946472168
1783245508974969600,0.780969482421875,0.6611517667770386,-0.20983105897903442,-0.21920670568943024
1783245508984981500,0.7909814453125,0.6493857502937317,-0.24800720810890198,-0.2265433967113495
1783245508994993700,0.80099365234375,0.6428066492080688,-0.2678554952144623,-0.2388370782136917
1783245509005004500,0.811004638671875,0.6392816305160522,-0.2813350558280945,-0.25730589032173157
1783245509015016400,0.821016357421875,0.6329241394996643,-0.27468618750572205,-0.28624433279037476
1783245509025028400,0.8310283203125,0.6132170557975769,-0.22224974632263184,-0.3337039053440094
1783245509035039700,0.841039794921875,0.5900741815567017,-0.14124144613742828,-0.3902505338191986
1783245509045051600,0.8510517578125,0.5757770538330078,-0.08244135230779648,-0.4494577646255493
1783245509055062500,0.8610625,0.5805241465568542,-0.06583228707313538,-0.5040845274925232
1783245509065074700,0.87107470703125,0.5871134400367737,-0.08099652081727982,-0.5559012293815613
1783245509075086600,0.881086669921875,0.5832318663597107,-0.09974250942468643,-0.6005299091339111
1783245509085097500,0.891097412109375,0.5545377135276794,-0.1329059898853302,-0.6325068473815918
1783245509095109600,0.901109619140625,0.4961846172809601,-0.18973252177238464,-0.6433736085891724
1783245509105121500,0.91112158203125,0.42225733399391174,-0.2454407811164856,-0.626745879650116
1783245509115132700,0.921132568359375,0.35313019156455994,-0.2620847523212433,-0.5867007374763489
1783245509125144600,0.93114453125,0.2894717752933502,-0.24184951186180115,-0.5273790955543518
1783245509135156700,0.94115673828125,0.2233114093542099,-0.19402872025966644,-0.4552888870239258
1783245509145168600,0.951168701171875,0.15916018187999725,-0.12277506291866302,-0.3762885630130768
1783245509155179500,0.961179443359375,0.09228739887475967,-0.05570441484451294,-0.295016884803772
1783245509165191700,0.971191650390625,0.02522590011358261,-0.003976568579673767,-0.22322337329387665
1783245509175202600,0.98120263671875,-0.045696210116147995,0.031178222969174385,-0.15569812059402466
1783245509185214500,0.99121435546875,-0.11461252719163895,0.02750852145254612,-0.08884653449058533
1783245509195226600,1.0012265625,-0.17858858406543732,-0.03219768404960632,-0.021356971934437752
1783245509205237500,1.011237548828125,-0.22693203389644623,-0.11156774312257767,0.04875035211443901
1783245509215249700,1.021249755859375,-0.2657526731491089,-0.18606221675872803,0.1138092502951622
1783245509225261600,1.031261474609375,-0.2950834035873413,-0.23017027974128723,0.18619877099990845
1783245509235272700,1.041272705078125,-0.31898126006126404,-0.23074951767921448,0.26110467314720154
1783245509245284600,1.05128466796875,-0.3453291356563568,-0.1967771053314209,0.3377900719642639
1783245509255296500,1.061296630859375,-0.39452439546585083,-0.140824094414711,0.42444294691085815
1783245509265307600,1.0713076171875,-0.4435424208641052,-0.11131986975669861,0.5097787976264954
1783245509275319600,1.081319580078125,-0.48224055767059326,-0.10294902324676514,0.5985413789749146
1783245509285331500,1.09133154296875,-0.5089796185493469,-0.09662561118602753,0.6859050393104553
1783245509295342600,1.101342529296875,-0.5415410399436951,-0.10426489263772964,0.7669916749000549
1783245509305354500,1.1113544921875,-0.5741033554077148,-0.17844006419181824,0.8192119598388672
1783245509315366400,1.121366455078125,-0.5942230224609375,-0.3142351508140564,0.8386631608009338
1783245509325377500,1.13137744140625,-0.5928756594657898,-0.49069660902023315,0.8263903856277466
1783245509335389700,1.1413896484375,-0.5656943917274475,-0.6657480597496033,0.7792934775352478
1783245509345401600,1.151401611328125,-0.5210827589035034,-0.785295307636261,0.7115299105644226
1783245509355412500,1.16141259765625,-0.4924849569797516,-0.8258432745933533,0.6447375416755676
1783245509365424600,1.171424560546875,-0.5224058628082275,-0.7800247669219971,0.5844964981079102
1783245509375436500,1.1814365234375,-0.6238642930984497,-0.678641140460968,0.5257332921028137
1783245509385447400,1.191447509765625,-0.7946982979774475,-0.5769451260566711,0.49609315395355225
1783245509395459600,1.20145947265625,-1.0098721981048584,-0.5031923651695251,0.5228733420372009
1783245509405471500,1.211471435546875,-1.2105439901351929,-0.4404371678829193,0.603630542755127
1783245509415482600,1.221482666015625,-1.3574138879776,-0.38403913378715515,0.7225300073623657
1783245509425494800,1.231494873046875,-1.4480186700820923,-0.3470514714717865,0.8591001033782959
1783245509435506700,1.241506591796875,-1.4801204204559326,-0.3535919189453125,0.9914317727088928
1783245509445517600,1.251517578125,-1.4559682607650757,-0.40239250659942627,1.09100341796875
1783245509455529700,1.26152978515625,-1.3751161098480225,-0.4718509614467621,1.1418184041976929
1783245509465541600,1.271541748046875,-1.2549090385437012,-0.5681275725364685,1.1188645362854004
1783245509475552500,1.281552490234375,-1.1247289180755615,-0.6786553859710693,1.0304715633392334
1783245509485564400,1.291564453125,-1.0162618160247803,-0.7712914347648621,0.8938478827476501
1783245509495576600,1.30157666015625,-0.9312505722045898,-0.8462554216384888,0.7419132590293884
1783245509505587500,1.31158740234375,-0.8604059219360352,-0.8686017394065857,0.5806410312652588
1783245509515599600,1.321599609375,-0.8000592589378357,-0.8126325011253357,0.3951849341392517
1783245509525611500,1.331611572265625,-0.7317777872085571,-0.714961051940918,0.1847793608903885
1783245509535622700,1.34162255859375,-0.6603941321372986,-0.5947520732879639,-0.03331008553504944
1783245509545634600,1.351634521484375,-0.5973682999610901,-0.46861836314201355,-0.22009781002998352
1783245509555646700,1.361646728515625,-0.5411028861999512,-0.34907785058021545,-0.3505708575248718
1783245509565657600,1.37165771484375,-0.48339444398880005,-0.2311101108789444,-0.41504982113838196
1783245509575669500,1.38166943359375,-0.41313254833221436,-0.11912313103675842,-0.4323933720588684
1783245509585681700,1.391681640625,-0.3429054915904999,-0.020979050546884537,-0.437893807888031
1783245509595692500,1.401692626953125,-0.2858632504940033,0.07383295148611069,-0.45253586769104004
1783245509605704400,1.411704345703125,-0.26087820529937744,0.18225155770778656,-0.490506112575531
1783245509615716600,1.421716552734375,-0.2712394893169403,0.3024410903453827,-0.5311025381088257
1783245509625727700,1.431727783203125,-0.30560845136642456,0.3918793201446533,-0.5571317672729492
1783245509635739600,1.44173974609375,-0.3476373851299286,0.43144217133522034,-0.5671497583389282
1783245509645751600,1.45175146484375,-0.38525208830833435,0.424640953540802,-0.5579135417938232
1783245509655762700,1.4617626953125,-0.39733538031578064,0.36964935064315796,-0.5421196222305298
1783245509665774600,1.471774658203125,-0.37140560150146484,0.2696714997291565,-0.53270423412323
1783245509675786500,1.481786376953125,-0.32545408606529236,0.13595150411128998,-0.5187333226203918
1783245509685797600,1.491797607421875,-0.26258766651153564,0.01198630128055811,-0.49678558111190796
1783245509695809500,1.5018095703125,-0.17352943122386932,-0.09358832985162735,-0.46487584710121155
1783245509705821400,1.511821533203125,-0.062046051025390625,-0.1729327142238617,-0.4226716160774231
1783245509715832600,1.52183251953125,0.04805754870176315,-0.23155900835990906,-0.3757387399673462
1783245509725844700,1.5318447265625,0.12726837396621704,-0.29538339376449585,-0.32387080788612366
1783245509735856600,1.541856689453125,0.16563519835472107,-0.38339313864707947,-0.2664474546909332
1783245509745867500,1.551867431640625,0.17838701605796814,-0.46732985973358154,-0.22451582551002502
1783245509755879700,1.561879638671875,0.177387535572052,-0.5209482908248901,-0.20633628964424133
1783245509765891600,1.5718916015625,0.16979444026947021,-0.5310354232788086,-0.20857612788677216
1783245509775903700,1.58190380859375,0.1599535197019577,-0.5263575911521912,-0.22708164155483246
1783245509785915600,1.59191552734375,0.144405335187912,-0.5356717705726624,-0.2566317319869995
1783245509795927800,1.601927734375,0.12315677106380463,-0.5273573994636536,-0.2938491404056549
1783245509805938700,1.611938720703125,0.09461753070354462,-0.47584593296051025,-0.33700552582740784
1783245509815950600,1.62195068359375,0.047543227672576904,-0.3812083899974823,-0.3812456727027893
1783245509825962800,1.631962646484375,-0.014135700650513172,-0.2535961866378784,-0.4212143123149872
1783245509835973600,1.6419736328125,-0.0744222104549408,-0.1315765231847763,-0.45294374227523804
1783245509845985500,1.651985595703125,-0.11965084075927734,-0.05228477343916893,-0.47068318724632263
1783245509855997400,1.66199755859375,-0.14359958469867706,-0.008857139386236668,-0.47874775528907776
1783245509866008800,1.6720087890625,-0.14409926533699036,0.01701599918305874,-0.4743964374065399
1783245509876020700,1.682020751953125,-0.12017368525266647,0.01464498694986105,-0.4572422206401825
1783245509886032600,1.69203271484375,-0.0733523741364479,-0.0019385914783924818,-0.426716148853302
1783245509896043800,1.702043701171875,-0.02403143048286438,-0.007399668917059898,-0.3848341703414917
1783245509906055700,1.7120556640625,0.010932547971606255,-0.0014179383870214224,-0.33474043011665344
1783245509916067600,1.722067626953125,0.025012413039803505,0.00026890775188803673,-0.28008490800857544
1783245509926078500,1.732078369140625,0.03131912648677826,-0.016049150377511978,-0.23005759716033936
1783245509936090600,1.742090576171875,0.026125695556402206,-0.06064138561487198,-0.1904236376285553
1783245509946102500,1.7521025390625,0.01139292772859335,-0.13328269124031067,-0.168794184923172
1783245509956113700,1.76211376953125,-0.018976695835590363,-0.2133903056383133,-0.16985172033309937
1783245509966125800,1.772125732421875,-0.06271222978830338,-0.2891712188720703,-0.1770620495080948
1783245509976137700,1.7821376953125,-0.10892286896705627,-0.332233726978302,-0.18392100930213928
1783245509986148600,1.792148681640625,-0.15532538294792175,-0.3281216323375702,-0.18752659857273102
1783245509996160800,1.802160888671875,-0.20561598241329193,-0.3039766252040863,-0.18339203298091888
1783245510006172700,1.812172607421875,-0.252190500497818,-0.2749951481819153,-0.16932375729084015
1783245510016183600,1.82218359375,-0.27839547395706177,-0.20913837850093842,-0.14124338328838348
1783245510026195700,1.83219580078125,-0.2828969657421112,-0.10045383870601654,-0.10133449733257294
1783245510036207600,1.84220751953125,-0.2590547502040863,0.04150357097387314,-0.04974321275949478
1783245510046218800,1.85221875,-0.20727409422397614,0.20281215012073517,0.007986288517713547
1783245510056230700,1.862230712890625,-0.14017228782176971,0.35618335008621216,0.057070210576057434
1783245510066242800,1.872242919921875,-0.06158476695418358,0.4754970669746399,0.07829417288303375
1783245510076253700,1.882253662109375,0.00824464950710535,0.5607216954231262,0.06612006574869156
1783245510086265600,1.892265625,0.03815491497516632,0.6173771619796753,0.03253449127078056
1783245510096277800,1.90227783203125,0.027531033381819725,0.6130324602127075,-0.0008679416496306658
1783245510106288600,1.91228857421875,-0.013698077760636806,0.5463386178016663,-0.015720363706350327
1783245510116300500,1.922300537109375,-0.048613984137773514,0.44102466106414795,-0.014094769023358822
1783245510126312700,1.932312744140625,-0.06960595399141312,0.3351578712463379,0.01430901512503624
1783245510136323600,1.942323486328125,-0.08112093061208725,0.24894709885120392,0.07058107852935791
1783245510146335500,1.95233544921875,-0.08783566951751709,0.18395578861236572,0.14185553789138794
1783245510156347600,1.96234765625,-0.09488771855831146,0.14828594028949738,0.2083195149898529
1783245510166358800,1.97235888671875,-0.10048390179872513,0.15012413263320923,0.25280165672302246
1783245510176370700,1.98237060546875,-0.10159683972597122,0.16308386623859406,0.2706315219402313
1783245510186382800,1.9923828125,-0.10319790244102478,0.11680570989847183,0.27339470386505127
1783245510196393700,2.002393798828125,-0.11538798362016678,0.005702091846615076,0.27230146527290344
1783245510206405600,2.012405517578125,-0.11427463591098785,-0.10790175199508667,0.2752235233783722
1783245510216417500,2.02241748046875,-0.10501029342412949,-0.27147871255874634,0.30262187123298645
1783245510226428700,2.0324287109375,-0.09456618130207062,-0.45726776123046875,0.34993883967399597
1783245510236440600,2.042440673828125,-0.08823158591985703,-0.6159040331840515,0.4251355826854706
1783245510246452500,2.052452392578125,-0.08190509676933289,-0.7225428819656372,0.5137988924980164
1783245510256464000,2.0624638671875,-0.08553125709295273,-0.7636900544166565,0.6026871800422668
1783245510266475800,2.072475830078125,-0.09795863181352615,-0.7497001886367798,0.674687922000885
1783245510276487700,2.08248779296875,-0.1357390433549881,-0.6933554410934448,0.7284483909606934
1783245510286498600,2.09249853515625,-0.2014700025320053,-0.5838692784309387,0.7568374872207642
1783245510296510700,2.1025107421875,-0.2871316373348236,-0.41446560621261597,0.759383499622345
1783245510306522600,2.112522705078125,-0.38096076250076294,-0.21542143821716309,0.7451848387718201
1783245510316533500,2.122533447265625,-0.4642367362976074,-0.017582125961780548,0.7198850512504578
1783245510326545700,2.132545654296875,-0.5272544026374817,0.15306445956230164,0.6814329624176025
1783245510336557600,2.1425576171875,-0.5694069266319275,0.2821981906890869,0.6333999037742615
1783245510346568700,2.152568603515625,-0.5868768692016602,0.3466132879257202,0.5793344378471375
1783245510356580600,2.16258056640625,-0.5710582733154297,0.35072094202041626,0.5173206329345703
1783245510366592800,2.1725927734375,-0.5067729949951172,0.29918643832206726,0.459392786026001
1783245510376603600,2.182603759765625,-0.3892114758491516,0.21538208425045013,0.4061508774757385
1783245510386615800,2.19261572265625,-0.21279731392860413,0.11201635003089905,0.3509048819541931
1783245510396627700,2.202627685546875,-0.003380444133654237,-0.012207601219415665,0.29510605335235596
1783245510406638600,2.212638671875,0.2152397632598877,-0.1572565883398056,0.23486100137233734
1783245510416650800,2.222650634765625,0.41162607073783875,-0.30471476912498474,0.1687200665473938
1783245510426662700,2.23266259765625,0.557793140411377,-0.4258195459842682,0.10221000760793686
1783245510436673500,2.242673583984375,0.6363635659217834,-0.5010360479354858,0.034379296004772186
1783245510446685400,2.252685546875,0.6503122448921204,-0.52419114112854,-0.025845445692539215
1783245510456697600,2.262697509765625,0.600647509098053,-0.4950367212295532,-0.07511366158723831
1783245510466708700,2.272708740234375,0.5116504430770874,-0.4409672021865845,-0.09905210137367249
1783245510476720600,2.282720703125,0.41186103224754333,-0.38992321491241455,-0.10495233535766602
1783245510486732800,2.29273291015625,0.31577757000923157,-0.33419299125671387,-0.0956386923789978
1783245510496743700,2.30274365234375,0.2202339917421341,-0.2746169865131378,-0.07215519994497299
1783245510506755600,2.312755615234375,0.12293997406959534,-0.21388065814971924,-0.03526769205927849
1783245510516767700,2.322767822265625,0.028888577595353127,-0.16677360236644745,0.012709155678749084
1783245510526778600,2.332778564453125,-0.041066039353609085,-0.15601296722888947,0.06202168017625809
1783245510536790500,2.34279052734375,-0.07559578120708466,-0.17165371775627136,0.10194672644138336
1783245510546802700,2.352802734375,-0.06660810112953186,-0.19714434444904327,0.1186869665980339
1783245510556813800,2.362813720703125,-0.034852828830480576,-0.21380400657653809,0.11228685826063156
1783245510566825700,2.37282568359375,-0.0003967699594795704,-0.20439298450946808,0.0815177857875824
1783245510576838000,2.382837890625,0.008849192410707474,-0.17405478656291962,0.03573459014296532
1783245510586848800,2.392848876953125,-0.013762458227574825,-0.12823611497879028,-0.013712355867028236
1783245510596860700,2.402860595703125,-0.06170468404889107,-0.06475275009870529,-0.0594625361263752
1783245510606872600,2.41287255859375,-0.12604451179504395,-0.0038910775911062956,-0.09719648212194443
1783245510616883700,2.4228837890625,-0.1957828551530838,0.04740140587091446,-0.12688647210597992
1783245510626895600,2.4328955078125,-0.26080405712127686,0.08869712799787521,-0.14235569536685944
1783245510636907500,2.442907470703125,-0.32272762060165405,0.13136255741119385,-0.1367768943309784
1783245510646918700,2.452918701171875,-0.36064931750297546,0.15195856988430023,-0.10914218425750732
1783245510656930600,2.4629306640625,-0.37381866574287415,0.14683198928833008,-0.06451665610074997
1783245510666942700,2.472942626953125,-0.356035977602005,0.12914614379405975,-0.018294040113687515
1783245510676953600,2.48295361328125,-0.3232676386833191,0.0943484827876091,0.018696468323469162
1783245510686965800,2.4929658203125,-0.2857229709625244,0.041659824550151825,0.03317864611744881
1783245510696977700,2.502977783203125,-0.26748111844062805,0.005206211470067501,0.027886677533388138
1783245510706988500,2.512988525390625,-0.28444600105285645,0.008368182927370071,0.0032886583358049393
1783245510717000700,2.523000732421875,-0.3402775526046753,0.04218367114663124,-0.016241367906332016
1783245510727012600,2.5330126953125,-0.41482171416282654,0.0893944576382637,-0.021481793373823166
1783245510737023500,2.5430234375,-0.4935556948184967,0.14173994958400726,-0.005767012946307659
1783245510747035600,2.55303564453125,-0.5681931972503662,0.221652552485466,0.028652597218751907
1783245510757047600,2.563047607421875,-0.6369267106056213,0.31402671337127686,0.07045889645814896
1783245510767058700,2.57305859375,-0.6979105472564697,0.4008294641971588,0.11649397015571594
1783245510777070000,2.583070068359375,-0.7549413442611694,0.4763849377632141,0.15564458072185516
1783245510787082000,2.59308203125,-0.8064178824424744,0.532645583152771,0.188803568482399
1783245510797093000,2.603093017578125,-0.8510660529136658,0.5446985363960266,0.22233329713344574
1783245510807105000,2.61310498046875,-0.866298258304596,0.5123302340507507,0.2598625421524048
1783245510817117000,2.623116943359375,-0.837599515914917,0.4532245397567749,0.3003723919391632
1783245510827127800,2.6331279296875,-0.7722222208976746,0.40187567472457886,0.3416479229927063
1783245510837140000,2.643139892578125,-0.6946286559104919,0.3438304662704468,0.3844670355319977
1783245510847151900,2.65315185546875,-0.6258176565170288,0.26857832074165344,0.4176974594593048
1783245510857163000,2.6631630859375,-0.5787183046340942,0.19427399337291718,0.4284438490867615
1783245510867175200,2.673175048828125,-0.5537405610084534,0.1473461091518402,0.4084073603153229
1783245510877187000,2.68318701171875,-0.5500643253326416,0.13671423494815826,0.3546905815601349
1783245510887198000,2.693197998046875,-0.5552535653114319,0.11210711300373077,0.2739730775356293
1783245510897210000,2.703210205078125,-0.5653466582298279,0.09732017666101456,0.17659354209899902
1783245510907222000,2.713221923828125,-0.5905224084854126,0.07778076082468033,0.07352181524038315
1783245510917233000,2.72323291015625,-0.6320157647132874,0.029671555384993553,-0.013878599740564823
1783245510927245000,2.7332451171875,-0.6780800223350525,-0.045081187039613724,-0.0690915510058403
1783245510937257000,2.743257080078125,-0.7127980589866638,-0.14936073124408722,-0.08764632791280746
1783245510947268900,2.753268798828125,-0.7261282801628113,-0.2590717673301697,-0.07153633236885071
1783245510957280300,2.7632802734375,-0.7248774170875549,-0.337867796421051,-0.02613527700304985
1783245510967292200,2.773292236328125,-0.7225574254989624,-0.38706621527671814,0.04286133497953415
1783245510977303000,2.783302978515625,-0.7118946313858032,-0.4255630075931549,0.12773014605045319
1783245510987315000,2.79331494140625,-0.6838486194610596,-0.4476229250431061,0.2051931470632553
1783245510997327000,2.8033271484375,-0.6193329691886902,-0.46077680587768555,0.2540121078491211
1783245511007338000,2.813337890625,-0.5189546346664429,-0.46143072843551636,0.26331624388694763
1783245511017350000,2.823349853515625,-0.40498173236846924,-0.44659319519996643,0.22665703296661377
1783245511027362000,2.833362060546875,-0.30685925483703613,-0.3919830918312073,0.13889268040657043
1783245511037373200,2.843373291015625,-0.2479674220085144,-0.30425113439559937,0.004859248176217079
1783245511047385000,2.853385009765625,-0.23608720302581787,-0.21163202822208405,-0.16056524217128754
1783245511057397200,2.863397216796875,-0.25495997071266174,-0.11673934757709503,-0.3468743860721588
1783245511067408100,2.873408203125,-0.28529953956604004,-0.0037334684748202562,-0.5329998731613159
1783245511077420000,2.883419921875,-0.3223675489425659,0.10007255524396896,-0.6924715638160706
1783245511087432200,2.89343212890625,-0.353747695684433,0.1800578385591507,-0.8081963658332825
1783245511097444000,2.903444091796875,-0.3731951415538788,0.2165583223104477,-0.8534368276596069
1783245511107455000,2.913455078125,-0.3690226674079895,0.20147646963596344,-0.8152920603752136
1783245511117467000,2.923466796875,-0.32976874709129333,0.13678669929504395,-0.6990136504173279
1783245511127478000,2.93347802734375,-0.25937017798423767,0.029596444219350815,-0.5241117477416992
1783245511137490000,2.943489990234375,-0.17532001435756683,-0.09799240529537201,-0.32154449820518494
1783245511147501800,2.953501708984375,-0.09468687325716019,-0.2133702039718628,-0.1277368664741516
1783245511157513200,2.96351318359375,-0.028012236580252647,-0.30353844165802,0.02439887821674347
1783245511167525000,2.973525146484375,0.031628675758838654,-0.35677453875541687,0.11567472666501999
1783245511177537000,2.983537109375,0.08662348985671997,-0.37353646755218506,0.1385536789894104
1783245511187549200,2.993549072265625,0.11794691532850266,-0.3468441665172577,0.10592971742153168
1783245511197560000,3.00356005859375,0.12128812074661255,-0.26862525939941406,0.03811285272240639
1783245511207572000,3.013572021484375,0.09836910665035248,-0.17816707491874695,-0.047745514661073685
1783245511217584000,3.023584228515625,0.07222964614629745,-0.08562915027141571,-0.13039912283420563
1783245511227595000,3.033594970703125,0.06189381331205368,-0.0063147637993097305,-0.18882228434085846
1783245511237607000,3.04360693359375,0.09698282182216644,0.034995924681425095,-0.21087591350078583
1783245511247619000,3.053619140625,0.16733606159687042,0.022569218650460243,-0.19525611400604248
1783245511257630200,3.063630126953125,0.26056453585624695,-0.02853764034807682,-0.15671777725219727
1783245511267642000,3.07364208984375,0.34709930419921875,-0.07599203288555145,-0.12046441435813904
1783245511277654000,3.083654052734375,0.40938958525657654,-0.11171460896730423,-0.09781689196825027
1783245511287665200,3.0936650390625,0.4429045021533966,-0.15880581736564636,-0.09500232338905334
1783245511297677000,3.103677001953125,0.44672080874443054,-0.20203451812267303,-0.1083170622587204
1783245511307688000,3.11368798828125,0.4242493808269501,-0.2167757898569107,-0.12831299006938934
1783245511317700000,3.1237001953125,0.38914811611175537,-0.1920270323753357,-0.14640197157859802
1783245511327712000,3.1337119140625,0.3416840732097626,-0.12386828660964966,-0.1560571938753128
1783245511337724000,3.143723876953125,0.2785458564758301,-0.025152362883090973,-0.14713266491889954
1783245511347735000,3.153735107421875,0.2104814201593399,0.07906592637300491,-0.12644685804843903
1783245511357747200,3.163747314453125,0.14727875590324402,0.16868609189987183,-0.09721174091100693
1783245511367759000,3.173759033203125,0.09624388813972473,0.23814712464809418,-0.06782286614179611
1783245511377770000,3.18377001953125,0.05442133545875549,0.291859894990921,-0.041907377541065216
1783245511387782100,3.1937822265625,0.018894748762249947,0.3305564820766449,-0.023656247183680534
1783245511397794000,3.2037939453125,-0.021671319380402565,0.3583415150642395,-0.0012944818008691072
1783245511407805000,3.213804931640625,-0.05962863564491272,0.3863191604614258,0.016789881512522697
1783245511417817000,3.223817138671875,-0.07937304675579071,0.38476893305778503,0.03336593136191368
1783245511427829000,3.2338291015625,-0.07125306874513626,0.345356285572052,0.051310308277606964
1783245511437840000,3.24383984375,-0.04879942536354065,0.3005107641220093,0.060041218996047974
1783245511447852000,3.25385205078125,-0.024248355999588966,0.26994895935058594,0.05954331159591675
1783245511457864000,3.263864013671875,-0.013330462388694286,0.26629698276519775,0.050317857414484024
1783245511467875000,3.273875,-0.021470479667186737,0.29832518100738525,0.035118743777275085
1783245511477887200,3.28388720703125,-0.048118602484464645,0.3752252757549286,0.01852351799607277
1783245511487899100,3.293899169921875,-0.08882452547550201,0.4461078345775604,0.022002851590514183
1783245511497910000,3.303909912109375,-0.13496752083301544,0.46968162059783936,0.044212281703948975
1783245511507922000,3.313921875,-0.173966184258461,0.45878127217292786,0.09047435969114304
1783245511517934000,3.32393408203125,-0.1905803084373474,0.39800500869750977,0.1526743620634079
1783245511527945000,3.333945068359375,-0.17498840391635895,0.2779386639595032,0.2199639528989792
1783245511537956900,3.343956787109375,-0.13231736421585083,0.11952666938304901,0.2778184711933136
1783245511547969000,3.353968994140625,-0.08386636525392532,-0.002149365609511733,0.2983185946941376
1783245511557980200,3.363980224609375,-0.03757929429411888,-0.07392794638872147,0.2785118818283081
1783245511567992000,3.373991943359375,-0.005677534267306328,-0.10875922441482544,0.21455638110637665
1783245511578004200,3.384004150390625,0.01419337559491396,-0.11009160429239273,0.12063893675804138
1783245511588015000,3.39401513671875,0.005559620447456837,-0.044200289994478226,0.007745005656033754
1783245511598027000,3.404027099609375,-0.03248576447367668,0.10114651918411255,-0.11080161482095718
1783245511608039200,3.4140390625,-0.10181602090597153,0.28946763277053833,-0.23254293203353882
1783245511618050000,3.424050048828125,-0.1878022998571396,0.44842827320098877,-0.35000938177108765
1783245511628062000,3.43406201171875,-0.2764245271682739,0.4773007035255432,-0.43005579710006714
1783245511638074000,3.44407421875,-0.33879655599594116,0.34411337971687317,-0.4417340159416199
1783245511648085000,3.4540849609375,-0.3520521819591522,0.08812465518712997,-0.3827004134654999
1783245511658097200,3.46409716796875,-0.32842326164245605,-0.19189554452896118,-0.2739555537700653
1783245511668109000,3.474109130859375,-0.3195560574531555,-0.3966051936149597,-0.13722312450408936
1783245511678120200,3.4841201171875,-0.36392247676849365,-0.5446231365203857,0.02107197791337967
1783245511688132000,3.494132080078125,-0.4498513638973236,-0.6211339831352234,0.18140733242034912
1783245511698144000,3.50414404296875,-0.5444031357765198,-0.5775428414344788,0.3314967155456543
1783245511708155100,3.514155029296875,-0.6208687424659729,-0.42648813128471375,0.4811422526836395
1783245511718167000,3.5241669921875,-0.6617253422737122,-0.28181031346321106,0.6326332688331604
1783245511728179000,3.534178955078125,-0.6547669768333435,-0.18533988296985626,0.7709784507751465
1783245511738189800,3.54418994140625,-0.6089448928833008,-0.11845672130584717,0.8603967428207397
1783245511748202000,3.554201904296875,-0.5622250437736511,-0.07887490093708038,0.8878821134567261
1783245511758214000,3.5642138671875,-0.5449408888816833,-0.060302816331386566,0.8490790724754333
1783245511768225000,3.57422509765625,-0.5601218342781067,-0.04935210570693016,0.7570368051528931
1783245511778237200,3.5842373046875,-0.5963802337646484,-0.0544709675014019,0.636747419834137
1783245511788249300,3.594249267578125,-0.6356931328773499,-0.07869821041822433,0.5094862580299377
1783245511798260200,3.60426025390625,-0.6734482049942017,-0.115988589823246,0.39901915192604065
1783245511808272100,3.614272216796875,-0.7043792605400085,-0.1582701951265335,0.317088782787323
1783245511818284300,3.6242841796875,-0.7250137329101562,-0.21441896259784698,0.2730867266654968
1783245511828295200,3.634295166015625,-0.7270246148109436,-0.2673616409301758,0.2690819501876831
1783245511838307000,3.64430712890625,-0.7113345861434937,-0.32554879784584045,0.29552632570266724
1783245511848319000,3.654319091796875,-0.6841195225715637,-0.39597851037979126,0.3356219232082367
1783245511858330400,3.664330322265625,-0.656908392906189,-0.47206342220306396,0.36958572268486023
1783245511868342300,3.67434228515625,-0.6327648162841797,-0.5424084663391113,0.3938000798225403
1783245511878354200,3.684354248046875,-0.6183062195777893,-0.6142008900642395,0.4052010774612427
1783245511888365300,3.694365234375,-0.6100223660469055,-0.6970438957214355,0.40975064039230347
1783245511898377200,3.704377197265625,-0.6018033027648926,-0.7691519260406494,0.39818906784057617
1783245511908389000,3.71438916015625,-0.5957080125808716,-0.8135961294174194,0.37950634956359863
1783245511918400000,3.72439990234375,-0.5963879227638245,-0.8365885019302368,0.35231760144233704
1783245511928412200,3.734412109375,-0.6207822561264038,-0.8267236948013306,0.31716451048851013
1783245511938424000,3.744424072265625,-0.6660516858100891,-0.7924643158912659,0.27141883969306946
1783245511948435000,3.75443505859375,-0.7212463617324829,-0.7498698830604553,0.2105802446603775
1783245511958447000,3.764447021484375,-0.7768481373786926,-0.7149918079376221,0.13686740398406982
1783245511968459000,3.774458984375,-0.8351224660873413,-0.6723250150680542,0.05047624930739403
1783245511978470100,3.78447021484375,-0.9046490788459778,-0.6130959987640381,-0.035277802497148514
1783245511988482300,3.794482421875,-0.9829531311988831,-0.5491902232170105,-0.09936738014221191
1783245511998494200,3.804494140625,-1.0690851211547852,-0.48759767413139343,-0.13279804587364197
1783245512008505000,3.814505126953125,-1.1554374694824219,-0.41403451561927795,-0.14341948926448822
1783245512018517200,3.824517333984375,-1.239639401435852,-0.322724312543869,-0.13937309384346008
1783245512028529200,3.834529052734375,-1.326332688331604,-0.23888236284255981,-0.12761636078357697
1783245512038540000,3.8445400390625,-1.4090267419815063,-0.18312641978263855,-0.11432372033596039
1783245512048552200,3.85455224609375,-1.4868406057357788,-0.1536799818277359,-0.09606333076953888
1783245512058564000,3.864564208984375,-1.5628767013549805,-0.12764784693717957,-0.07497109472751617
1783245512068575200,3.8745751953125,-1.634444236755371,-0.1257249116897583,-0.03881321847438812
1783245512078587100,3.884587158203125,-1.7007114887237549,-0.16821643710136414,0.009680547751486301
1783245512088599300,3.894599365234375,-1.7474149465560913,-0.24180157482624054,0.06527437269687653
1783245512098610200,3.904610107421875,-1.7774503231048584,-0.3394753932952881,0.12559017539024353
1783245512108622000,3.9146220703125,-1.7879222631454468,-0.44392842054367065,0.18440541625022888
1783245512118634200,3.92463427734375,-1.7836050987243652,-0.5334737300872803,0.23735171556472778
1783245512128645000,3.93464501953125,-1.77022123336792,-0.6037550568580627,0.2772602140903473
1783245512138657000,3.944656982421875,-1.7535868883132935,-0.6629272699356079,0.3041384518146515
1783245512148669200,3.954669189453125,-1.7346903085708618,-0.6956006288528442,0.322091668844223
1783245512158680300,3.964680419921875,-1.7165863513946533,-0.6903768181800842,0.3267916142940521
1783245512168692200,3.974692138671875,-1.7068284749984741,-0.6409978270530701,0.31827399134635925
1783245512178704400,3.984704345703125,-1.7039557695388794,-0.5654977560043335,0.2952919900417328
1783245512188715300,3.99471533203125,-1.712512731552124,-0.47383108735084534,0.2614782750606537
1783245512198727200,4.00472705078125,-1.7288589477539062,-0.37283897399902344,0.21884050965309143
1783245512208739300,4.0147392578125,-1.7556089162826538,-0.2676088213920593,0.18035262823104858
1783245512218750200,4.024750244140625,-1.7910640239715576,-0.18283826112747192,0.15630029141902924
1783245512228762000,4.03476220703125,-1.8252922296524048,-0.1326388120651245,0.1521543711423874
1783245512238774000,4.04477392578125,-1.858749270439148,-0.11743748188018799,0.16592133045196533
1783245512248785200,4.05478515625,-1.8929390907287598,-0.16708634793758392,0.19140920042991638
1783245512258797000,4.064797119140625,-1.9287372827529907,-0.304841548204422,0.228738471865654
1783245512268809000,4.07480908203125,-1.959658145904541,-0.4806743562221527,0.2854336202144623
1783245512278820400,4.0848203125,-1.9559195041656494,-0.6587865352630615,0.3486868739128113
1783245512288832300,4.094832275390625,-1.9101003408432007,-0.7846984267234802,0.40764370560646057
1783245512298844200,4.10484423828125,-1.8208537101745605,-0.8237989544868469,0.4410248398780823
1783245512308855000,4.11485498046875,-1.7030673027038574,-0.7967285513877869,0.43637269735336304
1783245512318867200,4.1248671875,-1.5684278011322021,-0.7270997166633606,0.36863359808921814
1783245512328879000,4.134879150390625,-1.4562898874282837,-0.6105808615684509,0.2279883474111557
1783245512338890000,4.144889892578125,-1.3909435272216797,-0.44289860129356384,0.030888326466083527
1783245512348902100,4.154902099609375,-1.3805978298187256,-0.27971261739730835,-0.18116559088230133
1783245512358914000,4.1649140625,-1.4078960418701172,-0.21625560522079468,-0.3652600646018982
1783245512368925200,4.17492529296875,-1.4405587911605835,-0.2580799460411072,-0.4881996512413025
1783245512378937300,4.184937255859375,-1.4516106843948364,-0.34247684478759766,-0.5341812372207642
1783245512388949200,4.19494921875,-1.4467377662658691,-0.44416195154190063,-0.5042744278907776
1783245512398960000,4.204960205078125,-1.4347014427185059,-0.5067754983901978,-0.4135117828845978
1783245512408972300,4.21497216796875,-1.4444220066070557,-0.5422070026397705,-0.28414610028266907
1783245512418984200,4.224984130859375,-1.4864968061447144,-0.6035422682762146,-0.1346045434474945
1783245512428995000,4.2349951171875,-1.5162773132324219,-0.6861335039138794,0.014666588045656681
1783245512439007200,4.24500732421875,-1.510069489479065,-0.7652783393859863,0.14196676015853882
1783245512449019100,4.25501904296875,-1.4581857919692993,-0.8311504125595093,0.239504873752594
1783245512459030300,4.2650302734375,-1.3723950386047363,-0.8716738820075989,0.2821545898914337
1783245512469042200,4.275042236328125,-1.2887839078903198,-0.8720839023590088,0.25212472677230835
1783245512479054300,4.285054443359375,-1.227210283279419,-0.8522444367408752,0.15410363674163818
1783245512489065200,4.295065185546875,-1.1984070539474487,-0.8196984529495239,0.005071468651294708
1783245512499077000,4.3050771484375,-1.198835849761963,-0.7558808326721191,-0.1747576743364334
1783245512509089300,4.31508935546875,-1.23309326171875,-0.6498293876647949,-0.35067829489707947
1783245512519100200,4.32510009765625,-1.2963372468948364,-0.5259596109390259,-0.4927070736885071
1783245512529112000,4.335112060546875,-1.3691109418869019,-0.41401001811027527,-0.5825830698013306
1783245512539124200,4.345124267578125,-1.437918782234192,-0.3155478835105896,-0.6296024918556213
1783245512549135000,4.355135009765625,-1.4927642345428467,-0.25402194261550903,-0.6402620077133179
1783245512559147000,4.36514697265625,-1.530328631401062,-0.23329989612102509,-0.6217213869094849
1783245512569159200,4.3751591796875,-1.5499846935272217,-0.22451265156269073,-0.5810068249702454
1783245512579170300,4.38517041015625,-1.5502468347549438,-0.20080706477165222,-0.5302387475967407
1783245512589182200,4.39518212890625,-1.531213641166687,-0.1625887155532837,-0.46526724100112915
1783245512599194000,4.405194091796875,-1.5081754922866821,-0.11957281827926636,-0.3835374712944031
1783245512609205200,4.415205322265625,-1.4734628200531006,-0.06612376123666763,-0.2934850752353668
1783245512619217200,4.425217041015625,-1.4297685623168945,-0.003925099968910217,-0.201227605342865
1783245512629229000,4.43522900390625,-1.3758928775787354,0.059159666299819946,-0.12818491458892822
1783245512639240200,4.445240234375,-1.315307855606079,0.09310378134250641,-0.0882343053817749
1783245512649252000,4.455252197265625,-1.2555702924728394,0.0918189287185669,-0.08529075235128403
1783245512659264000,4.465263916015625,-1.2041664123535156,0.06616043299436569,-0.10759419202804565
1783245512669275400,4.475275390625,-1.1544910669326782,0.018313517794013023,-0.1344301402568817
1783245512679287300,4.485287353515625,-1.1018431186676025,-0.034205082803964615,-0.15437081456184387
1783245512689299200,4.49529931640625,-1.048468828201294,-0.05742195248603821,-0.15308235585689545
1783245512699310000,4.50531005859375,-0.9945405721664429,-0.04517300799489021,-0.1340695172548294
1783245512709322200,4.515322265625,-0.933533251285553,-0.025864548981189728,-0.10590503364801407
1783245512719334100,4.525334228515625,-0.8695441484451294,-0.016827644780278206,-0.08484715968370438
1783245512729345000,4.535344970703125,-0.8044466376304626,-0.037090837955474854,-0.07589760422706604
1783245512739357200,4.545357177734375,-0.740024209022522,-0.053235720843076706,-0.08049235492944717
1783245512749369000,4.555369140625,-0.6901535987854004,-0.059779904782772064,-0.10287275910377502
1783245512759380200,4.565380126953125,-0.659320056438446,-0.06927913427352905,-0.14252057671546936
1783245512769392000,4.57539208984375,-0.6456401348114014,-0.03136644884943962,-0.1909111738204956
1783245512779404800,4.58540478515625,-0.6251156330108643,0.05451596900820732,-0.24410594999790192
1783245512789416000,4.595416015625,-0.5895342230796814,0.10993942618370056,-0.29029279947280884
1783245512799427800,4.605427734375,-0.542180061340332,0.12399079650640488,-0.3411157727241516
1783245512809440000,4.61543994140625,-0.4854505658149719,0.13914577662944794,-0.3920188546180725
1783245512819451000,4.625450927734375,-0.4305598735809326,0.17419137060642242,-0.457584023475647
1783245512829462800,4.635462890625,-0.3883506655693054,0.20993778109550476,-0.5327132940292358
1783245512839474700,4.645474609375,-0.3490932881832123,0.2544940710067749,-0.5980755090713501
1783245512849485800,4.65548583984375,-0.3310798704624176,0.27797016501426697,-0.6224586963653564
1783245512859497700,4.665497802734375,-0.31647562980651855,0.23058828711509705,-0.6093154549598694
1783245512869509600,4.675509521484375,-0.2853928506374359,0.16427434980869293,-0.5643560290336609
1783245512879520800,4.685520751953125,-0.23657925426959991,0.08990158885717392,-0.4877435863018036
1783245512889533000,4.695532958984375,-0.1977451890707016,-0.007762051187455654,-0.37188977003097534
1783245512899544800,4.705544921875,-0.19649162888526917,-0.09919369965791702,-0.2271551936864853
1783245512909555700,4.7155556640625,-0.22337494790554047,-0.15386950969696045,-0.08613576740026474
1783245512919568000,4.72556787109375,-0.26996323466300964,-0.15774813294410706,0.02560088410973549
1783245512929579800,4.735579833984375,-0.31563669443130493,-0.10773532092571259,0.10200810432434082
1783245512939590700,4.745590576171875,-0.35138991475105286,-0.01732526160776615,0.14039810001850128
1783245512949602800,4.755602783203125,-0.36962762475013733,0.08448352664709091,0.1455698162317276
1783245512959614700,4.76561474609375,-0.3736788034439087,0.17504964768886566,0.12524031102657318
1783245512969625600,4.77562548828125,-0.37063878774642944,0.21692238748073578,0.09560322016477585
1783245512979637800,4.7856376953125,-0.3546920418739319,0.17536374926567078,0.07987192273139954
1783245512989649700,4.795649658203125,-0.3149654269218445,0.08925965428352356,0.07621332257986069
1783245512999660800,4.805660888671875,-0.2530306875705719,0.004095231182873249,0.0731072798371315
1783245513009673000,4.8156728515625,-0.18789628148078918,-0.07830439507961273,0.07265308499336243
1783245513019684900,4.825684814453125,-0.14374640583992004,-0.14525598287582397,0.06566441059112549
1783245513029695700,4.83569580078125,-0.12707774341106415,-0.17106488347053528,0.0441955141723156
1783245513039708000,4.8457080078125,-0.12494668364524841,-0.13159576058387756,0.003565529827028513
1783245513049719800,4.8557197265625,-0.12103553116321564,-0.06764470040798187,-0.03652648627758026
1783245513059730700,4.865730712890625,-0.10502007603645325,-0.02815401554107666,-0.06960694491863251
1783245513069742600,4.87574267578125,-0.08446872234344482,-0.047894418239593506,-0.08167725801467896
1783245513079754800,4.885754638671875,-0.07012919336557388,-0.1187768429517746,-0.05882467329502106
1783245513089766000,4.895765869140625,-0.062293343245983124,-0.2202463448047638,-0.0012874514795839787
1783245513099777800,4.90577783203125,-0.06408112496137619,-0.31465938687324524,0.07599401473999023
1783245513109790000,4.9157900390625,-0.07783107459545135,-0.3847551941871643,0.1407586932182312
1783245513119800800,4.92580078125,-0.09863409399986267,-0.4161437451839447,0.17667116224765778
1783245513129812700,4.935812744140625,-0.12023951858282089,-0.43327611684799194,0.1814507395029068
1783245513139825000,4.945824951171875,-0.14290063083171844,-0.47582703828811646,0.17247535288333893
1783245513149835800,4.955835693359375,-0.16819509863853455,-0.4908553957939148,0.1726195365190506
1783245513159847700,4.96584765625,-0.195489302277565,-0.4694521129131317,0.19961465895175934
1783245513169859800,4.97585986328125,-0.2214547097682953,-0.4079020023345947,0.2433134764432907
1783245513179870700,4.98587060546875,-0.2550049126148224,-0.29651182889938354,0.28853824734687805
1783245513189883000,4.9958828125,-0.29922500252723694,-0.1590082198381424,0.31759244203567505
1783245513199894800,5.005894775390625,-0.34801623225212097,-0.03281779587268829,0.33904391527175903
1783245513209906000,5.015906005859375,-0.3816096782684326,0.050033196806907654,0.34906357526779175
1783245513219917800,5.025917724609375,-0.3903821110725403,0.11882184445858002,0.340310275554657
1783245513229929700,5.0359296875,-0.38576290011405945,0.18718865513801575,0.3202022910118103
1783245513239940900,5.04594091796875,-0.37873348593711853,0.2770034968852997,0.29262205958366394
1783245513249952800,5.055952880859375,-0.3879155218601227,0.35439297556877136,0.26386409997940063
1783245513259964700,5.065964599609375,-0.4170305132865906,0.4204920828342438,0.23560820519924164
1783245513269975800,5.075975830078125,-0.45040449500083923,0.45600736141204834,0.21011380851268768
1783245513279987700,5.08598779296875,-0.4761231541633606,0.4478397071361542,0.1856153905391693
1783245513289999600,5.09599951171875,-0.4854796826839447,0.4051104485988617,0.1723484843969345
1783245513300010800,5.1060107421875,-0.460685670375824,0.3328913748264313,0.17469953000545502
1783245513310023000,5.11602294921875,-0.404823899269104,0.21731461584568024,0.2014484703540802
1783245513320034800,5.126034912109375,-0.3232933580875397,0.027215775102376938,0.2376171350479126
1783245513330045700,5.136045654296875,-0.23893368244171143,-0.17107780277729034,0.26650330424308777
1783245513340057900,5.146057861328125,-0.1778588742017746,-0.3193697929382324,0.27412179112434387
1783245513350069800,5.15606982421875,-0.14981310069561005,-0.40120401978492737,0.24901683628559113
1783245513360080600,5.16608056640625,-0.1541529893875122,-0.4076094627380371,0.19095486402511597
1783245513370092800,5.1760927734375,-0.18095804750919342,-0.39409729838371277,0.12088906764984131
1783245513380104700,5.186104736328125,-0.2144041508436203,-0.36892858147621155,0.05641419440507889
1783245513390115800,5.19611572265625,-0.2529854476451874,-0.30778050422668457,0.016452424228191376
1783245513400128000,5.2061279296875,-0.2974117696285248,-0.2469557821750641,0.00992448441684246
1783245513410140000,5.216139892578125,-0.3444044291973114,-0.21494092047214508,0.022740758955478668
1783245513420150800,5.22615087890625,-0.38956230878829956,-0.19375468790531158,0.04224894568324089
1783245513430163000,5.236162841796875,-0.44110193848609924,-0.1635291427373886,0.06403334438800812
1783245513440174800,5.2461748046875,-0.4740782678127289,-0.1240062266588211,0.06761449575424194
1783245513450185700,5.256185791015625,-0.49834001064300537,-0.10212809592485428,0.06576494127511978
1783245513460197600,5.26619775390625,-0.53850257396698,-0.11768575012683868,0.05719701945781708
1783245513470209800,5.276209716796875,-0.5772201418876648,-0.11760710924863815,0.03558001667261124
1783245513480220700,5.286220703125,-0.6113360524177551,-0.10586203634738922,0.013051801361143589
1783245513490232800,5.29623291015625,-0.6304337978363037,-0.11405640840530396,-0.006687897257506847
1783245513500244700,5.30624462890625,-0.6398789286613464,-0.126247838139534,-0.018204737454652786
1783245513510256600,5.316256591796875,-0.6476268172264099,-0.1260221302509308,-0.021180732175707817
1783245513520267800,5.326267822265625,-0.6564469337463379,-0.11093956977128983,-0.021043580025434494
1783245513530280000,5.336280029296875,-0.6693553328514099,-0.10679686069488525,-0.023887526243925095
1783245513540291800,5.346291748046875,-0.6812658309936523,-0.11408939212560654,-0.038326919078826904
1783245513550302700,5.356302734375,-0.6994757652282715,-0.09758761525154114,-0.04910868778824806
1783245513560315000,5.36631494140625,-0.7288041114807129,-0.06775088608264923,-0.057285126298666
1783245513570326800,5.376326904296875,-0.7598555684089661,-0.029891254380345345,-0.05424049496650696
1783245513580337700,5.386337646484375,-0.7868850231170654,0.012053534388542175,-0.04542277008295059
1783245513590349600,5.396349609375,-0.7998618483543396,0.03873508423566818,-0.03407466411590576
1783245513600361000,5.40636083984375,-0.8003079295158386,0.011687490157783031,-0.017735637724399567
1783245513610372900,5.416372802734375,-0.8009841442108154,-0.05248317867517471,0.002697685267776251
1783245513620384800,5.426384765625,-0.8121123909950256,-0.12816116213798523,0.03633420914411545
1783245513630397000,5.43639697265625,-0.8419737815856934,-0.22090567648410797,0.07451800256967545
1783245513640407800,5.44640771484375,-0.8813288807868958,-0.31048455834388733,0.12026338279247284
1783245513650419700,5.456419677734375,-0.9198834300041199,-0.3663909137248993,0.1724514216184616
1783245513660430800,5.466430908203125,-0.9524775743484497,-0.37641316652297974,0.22099553048610687
1783245513670442800,5.47644287109375,-0.9798460602760315,-0.33753302693367004,0.271320104598999
1783245513680454700,5.48645458984375,-1.0042890310287476,-0.2543585002422333,0.31000596284866333
1783245513690466800,5.496466796875,-1.0263258218765259,-0.1161959171295166,0.3317294418811798
1783245513700478000,5.50647802734375,-1.0593208074569702,0.04374688118696213,0.3454953134059906
1783245513710489900,5.51648974609375,-1.0991705656051636,0.16586314141750336,0.3603834807872772
1783245513720502000,5.526501953125,-1.1361165046691895,0.23446084558963776,0.37173014879226685
1783245513730513000,5.536512939453125,-1.1706559658050537,0.23805871605873108,0.3713821470737457
1783245513740524800,5.54652490234375,-1.1982969045639038,0.18824562430381775,0.3623596131801605
1783245513750536700,5.55653662109375,-1.220949649810791,0.07338600605726242,0.34517890214920044
1783245513760547800,5.5665478515625,-1.2290422916412354,-0.09394679218530655,0.32328081130981445
1783245513770559700,5.576559814453125,-1.2110570669174194,-0.2434268444776535,0.2953226864337921
1783245513780570600,5.586570556640625,-1.1621150970458984,-0.31594258546829224,0.25540751218795776
1783245513790581800,5.596581787109375,-1.1132904291152954,-0.3000611960887909,0.2065918743610382
1783245513800593700,5.60659375,-1.095890998840332,-0.20889614522457123,0.15523362159729004
1783245513810605800,5.616605712890625,-1.123181939125061,-0.04955156892538071,0.10260377824306488
1783245513820616700,5.62661669921875,-1.1800113916397095,0.12451556324958801,0.06806524097919464
1783245513830628600,5.636628662109375,-1.2567278146743774,0.23754020035266876,0.060575272887945175
1783245513840640800,5.646640869140625,-1.338575005531311,0.2584904730319977,0.09511592984199524
1783245513850651600,5.656651611328125,-1.4035929441452026,0.18443097174167633,0.16161422431468964
1783245513860663600,5.66666357421875,-1.4523558616638184,0.05798700451850891,0.24018201231956482
1783245513870675700,5.67667578125,-1.486798644065857,-0.06131741777062416,0.30088010430336
1783245513880686800,5.686686767578125,-1.5012974739074707,-0.1785886436700821,0.3283995985984802
1783245513890698800,5.69669873046875,-1.4870755672454834,-0.27108463644981384,0.3169381022453308
1783245513900711000,5.7067109375,-1.4418853521347046,-0.30124732851982117,0.2748332619667053
1783245513910721800,5.7167216796875,-1.3828604221343994,-0.2501220107078552,0.21747452020645142
1783245513920733700,5.726733642578125,-1.329507827758789,-0.16643992066383362,0.15503937005996704
1783245513930745600,5.73674560546875,-1.2843959331512451,-0.0949845016002655,0.0901707261800766
1783245513940756700,5.7467568359375,-1.2490723133087158,-0.058827824890613556,0.02705381065607071
1783245513950768600,5.7567685546875,-1.2422608137130737,-0.07810743898153305,-0.03006068617105484
1783245513960780500,5.766780517578125,-1.2565556764602661,-0.1319861114025116,-0.0661260113120079
1783245513970792000,5.7767919921875,-1.2847927808761597,-0.20719899237155914,-0.06673379987478256
1783245513980803800,5.786803955078125,-1.3097567558288574,-0.27449122071266174,-0.03042559325695038
1783245513990815700,5.796815673828125,-1.3315248489379883,-0.33781617879867554,0.0339188352227211
1783245514000826600,5.80682666015625,-1.3455685377120972,-0.387205570936203,0.1045655757188797
1783245514010838800,5.8168388671875,-1.3525422811508179,-0.38548338413238525,0.15632522106170654
1783245514020850700,5.8268505859375,-1.3726028203964233,-0.32037973403930664,0.1791706085205078
1783245514030861600,5.836861572265625,-1.4175883531570435,-0.20887485146522522,0.1778358817100525
1783245514040873700,5.846873779296875,-1.475461483001709,-0.06923998892307281,0.1409021019935608
1783245514050885600,5.8568857421875,-1.5232290029525757,0.0892321988940239,0.0746472179889679
1783245514060896500,5.866896484375,-1.5551954507827759,0.23709702491760254,-0.005950690247118473
1783245514070908700,5.87690869140625,-1.5791274309158325,0.3283984065055847,-0.06798291206359863
1783245514080920600,5.886920654296875,-1.5897488594055176,0.34711483120918274,-0.07743313908576965
1783245514090931700,5.896931640625,-1.582133173942566,0.265733927488327,-0.026927053928375244
1783245514100944000,5.90694384765625,-1.5528632402420044,0.11156541109085083,0.06870652735233307
1783245514110955800,5.916955810546875,-1.5037214756011963,-0.04242442548274994,0.1880718320608139
1783245514120966700,5.926966552734375,-1.4380722045898438,-0.17281731963157654,0.2966960370540619
1783245514130978800,5.936978759765625,-1.357569694519043,-0.28081807494163513,0.36523646116256714
1783245514140990700,5.94699072265625,-1.2756081819534302,-0.3539879024028778,0.3794929087162018
1783245514151001600,5.957001708984375,-1.204081654548645,-0.3906760811805725,0.3459087312221527
1783245514161013500,5.967013427734375,-1.1454832553863525,-0.4133795201778412,0.27589261531829834
1783245514171025700,5.977025634765625,-1.1036632061004639,-0.43709099292755127,0.1932089775800705
1783245514181036800,5.987036865234375,-1.0643677711486816,-0.44671431183815,0.1251726746559143
1783245514191048700,5.997048583984375,-1.0240503549575806,-0.43487483263015747,0.06961102038621902
1783245514201060900,6.007060791015625,-0.9766790866851807,-0.4055459499359131,0.033387500792741776
1783245514211071700,6.01707177734375,-0.9414314031600952,-0.3636605143547058,0.005668742582201958
1783245514221083600,6.027083740234375,-0.9242255091667175,-0.30426084995269775,-0.02272161841392517
1783245514231095800,6.037095703125,-0.9317075610160828,-0.23450298607349396,-0.0541648231446743
1783245514241106700,6.047106689453125,-0.9429740905761719,-0.16672687232494354,-0.09859966486692429
1783245514251118600,6.05711865234375,-0.9450432062149048,-0.11098658293485641,-0.15066741406917572
1783245514261130800,6.067130859375,-0.931938886642456,-0.07867605239152908,-0.20070235431194305
1783245514271142000,6.077141845703125,-0.9166502952575684,-0.06686226278543472,-0.23439350724220276
1783245514281153800,6.08715380859375,-0.9141367673873901,-0.0802941843867302,-0.24202214181423187
1783245514291165700,6.097165771484375,-0.9385713934898376,-0.09340988844633102,-0.2117978185415268
1783245514301176800,6.1071767578125,-0.9805929064750671,-0.15051499009132385,-0.14093776047229767
1783245514311188700,6.117188720703125,-1.0269615650177002,-0.24249267578125,-0.043322376906871796
1783245514321200600,6.12720068359375,-1.084523320198059,-0.2857498526573181,0.06279446929693222
1783245514331211800,6.137211669921875,-1.1541587114334106,-0.2620945870876312,0.17224055528640747
1783245514341223700,6.1472236328125,-1.22322416305542,-0.22074264287948608,0.2719772756099701
1783245514351235600,6.157235595703125,-1.269645094871521,-0.1601007729768753,0.3492561876773834
1783245514361246700,6.167246826171875,-1.282097339630127,-0.08321131765842438,0.39206382632255554
1783245514371258600,6.177258544921875,-1.2611584663391113,-0.02773110941052437,0.3906182646751404
1783245514381270500,6.1872705078125,-1.22502601146698,-0.010037865489721298,0.3505089282989502
1783245514391281700,6.19728173828125,-1.1780166625976562,-0.01625574566423893,0.2762041687965393
1783245514401293800,6.2072939453125,-1.130405306816101,-0.029806707054376602,0.18905490636825562
1783245514411305700,6.2173056640625,-1.0885611772537231,-0.04042499512434006,0.11594288796186447
1783245514421316600,6.227316650390625,-1.0559943914413452,-0.03685875982046127,0.07100683450698853
1783245514431328800,6.237328857421875,-1.0390204191207886,-0.011452135629951954,0.06267161667346954
1783245514441340700,6.247340576171875,-1.031754493713379,0.03447141498327255,0.08195183426141739
1783245514451351600,6.2573515625,-1.0298998355865479,0.07790584862232208,0.12178774923086166
1783245514461363700,6.26736376953125,-1.0299018621444702,0.0775417909026146,0.16762927174568176
1783245514471375600,6.277375732421875,-1.0346943140029907,0.04961542785167694,0.21653810143470764
1783245514481386800,6.28738671875,-1.0448976755142212,0.012688572518527508,0.260291188955307
1783245514491399000,6.29739892578125,-1.0532217025756836,-0.021818948909640312,0.29977163672447205
1783245514501410800,6.307410888671875,-1.06410551071167,-0.048012204468250275,0.3380732238292694
1783245514511421700,6.317421630859375,-1.0692059993743896,-0.052107613533735275,0.3630254566669464
1783245514521433600,6.32743359375,-1.0760972499847412,-0.0260858666151762,0.37190788984298706
1783245514531445800,6.33744580078125,-1.0836628675460815,0.017940513789653778,0.3498459458351135
1783245514541456600,6.34745654296875,-1.0841585397720337,0.05315123125910759,0.28859323263168335
1783245514551468500,6.357468505859375,-1.0683231353759766,0.058275822550058365,0.19148492813110352
1783245514561480700,6.367480712890625,-1.039137840270996,0.04170110449194908,0.06446413695812225
1783245514571491800,6.377491943359375,-1.0156129598617554,0.023547664284706116,-0.05527583509683609
1783245514581503700,6.387503662109375,-1.0067206621170044,0.03375503048300743,-0.13053809106349945
1783245514591516000,6.397515869140625,-0.9849034547805786,0.03841683641076088,-0.019534587860107422
1783245514601526800,6.40752685546875,-0.89896559715271,0.11784081906080246,0.19601021707057953
1783245514611538700,6.41753857421875,-0.8092213273048401,0.16758179664611816,0.41083991527557373
1783245514621550800,6.42755078125,-0.7712126970291138,0.15256744623184204,0.5117790699005127
1783245514631561700,6.437561767578125,-0.7812443971633911,0.10625439882278442,0.45633935928344727
1783245514641573600,6.44757373046875,-0.7781878709793091,0.028601152822375298,0.29206493496894836
1783245514651585800,6.457585693359375,-0.7216572165489197,-0.06701038777828217,0.10566207021474838
1783245514661596700,6.4675966796875,-0.6313784718513489,-0.1698603332042694,-0.03130031004548073
1783245514671608600,6.477608642578125,-0.5435851812362671,-0.29912230372428894,-0.06045137718319893
1783245514681620500,6.487620361328125,-0.49088096618652344,-0.3449731469154358,0.008215036243200302
