time,seconds_elapsed,z,y,x
1783245526164417500,0.06741748046875,0.5952501893043518,0.04224556311964989,0.406313955783844
1783245526174428400,0.077428466796875,0.6855036020278931,0.06217239797115326,0.337533563375473
1783245526184440600,0.087440673828125,0.7744262218475342,0.11592255532741547,0.21624860167503357
1783245526194452500,0.097452392578125,0.8341697454452515,0.17366202175617218,0.07443207502365112
1783245526204463400,0.10746337890625,0.8656307458877563,0.20553547143936157,-0.060645539313554764
1783245526214475500,0.1174755859375,0.883499264717102,0.1993396282196045,-0.16002672910690308
1783245526224487400,0.1274873046875,0.9120103716850281,0.12165192514657974,-0.21304790675640106
1783245526234498600,0.13749853515625,0.9521700143814087,0.026827676221728325,-0.2184160351753235
1783245526244510700,0.1475107421875,0.9983686208724976,-0.04642048105597496,-0.1911567896604538
1783245526254522600,0.157522705078125,1.0272183418273926,-0.0759354904294014,-0.1483169049024582
1783245526264533500,0.167533447265625,1.0463188886642456,-0.10978972911834717,-0.09406178444623947
1783245526274545400,0.17754541015625,1.0607892274856567,-0.11403081566095352,-0.040240105241537094
1783245526284557600,0.1875576171875,1.0747958421707153,-0.07378187030553818,0.0051947105675935745
1783245526294568400,0.197568359375,1.0909422636032104,-0.03961857780814171,0.03852417320013046
1783245526304580400,0.207580322265625,1.1136538982391357,0.01205188687890768,0.055323828011751175
1783245526314592500,0.217592529296875,1.1414953470230103,0.12529481947422028,0.045578256249427795
1783245526324603600,0.227603759765625,1.180356502532959,0.22807152569293976,0.014787854626774788
1783245526334615600,0.237615478515625,1.234834909439087,0.2779279053211212,-0.03695506229996681
1783245526344627700,0.247627685546875,1.2861509323120117,0.3010064661502838,-0.0998026579618454
1783245526354639600,0.2576396484375,1.330165982246399,0.2955714762210846,-0.15982896089553833
1783245526364650500,0.267650390625,1.3657783269882202,0.26987630128860474,-0.20667001605033875
1783245526374662700,0.27766259765625,1.4055054187774658,0.2521050274372101,-0.23151624202728271
1783245526384674600,0.287674560546875,1.4615305662155151,0.25578612089157104,-0.24118253588676453
1783245526394685400,0.297685546875,1.5245994329452515,0.24009104073047638,-0.24094152450561523
1783245526404697300,0.307697265625,1.5830186605453491,0.20633919537067413,-0.23169657588005066
1783245526414709500,0.31770947265625,1.6202070713043213,0.17505371570587158,-0.21415939927101135
1783245526424720600,0.327720703125,1.631162166595459,0.1812700629234314,-0.20020924508571625
1783245526434732500,0.337732666015625,1.62285578250885,0.2004229873418808,-0.19217634201049805
1783245526444744700,0.34774462890625,1.5917980670928955,0.24256527423858643,-0.18680629134178162
1783245526454755600,0.357755615234375,1.5420219898223877,0.2849803864955902,-0.17020973563194275
1783245526464767500,0.367767578125,1.487069010734558,0.3019041419029236,-0.13972178101539612
1783245526474779600,0.377779541015625,1.43916654586792,0.3353031277656555,-0.09375188499689102
1783245526484790500,0.38779052734375,1.4014564752578735,0.3851854205131531,-0.044387221336364746
1783245526494802400,0.397802490234375,1.3711339235305786,0.4688273072242737,-0.0020858380012214184
1783245526504814600,0.407814697265625,1.354607105255127,0.5310148596763611,0.03923220932483673
1783245526514825500,0.417825439453125,1.356967806816101,0.520854651927948,0.0742967277765274
1783245526524837400,0.42783740234375,1.3887990713119507,0.4737117290496826,0.10160468518733978
1783245526534849500,0.437849609375,1.4264143705368042,0.44218045473098755,0.11177955567836761
1783245526544860700,0.447860595703125,1.4548892974853516,0.4498043358325958,0.09978141635656357
1783245526554872600,0.45787255859375,1.4700138568878174,0.507813572883606,0.050358209758996964
1783245526564884500,0.467884521484375,1.4753851890563965,0.5958275198936462,-0.03277651593089104
1783245526574895600,0.4778955078125,1.5032823085784912,0.6827149987220764,-0.13511033356189728
1783245526584907500,0.487907470703125,1.5810649394989014,0.7299278974533081,-0.23333771526813507
1783245526594919400,0.49791943359375,1.7197847366333008,0.7015825510025024,-0.31387782096862793
1783245526604930600,0.5079306640625,1.8970469236373901,0.5839688777923584,-0.37292736768722534
1783245526614942500,0.5179423828125,2.08359956741333,0.3806365430355072,-0.4150945246219635
1783245526624954400,0.527954345703125,2.246884822845459,0.13132330775260925,-0.44814908504486084
1783245526634965500,0.537965576171875,2.354114532470703,-0.0990142822265625,-0.4620521366596222
1783245526644977700,0.547977783203125,2.388866901397705,-0.270017147064209,-0.4473416209220886
1783245526654989600,0.557989501953125,2.3619015216827393,-0.37874922156333923,-0.4063422381877899
1783245526665000400,0.56800048828125,2.3401148319244385,-0.4463573098182678,-0.3459835946559906
1783245526675012600,0.5780126953125,2.2887156009674072,-0.42686110734939575,-0.252221941947937
1783245526685024500,0.5880244140625,2.191331386566162,-0.29513731598854065,-0.1642373502254486
1783245526695036700,0.59803662109375,2.060790777206421,-0.13766726851463318,-0.0857529267668724
1783245526705047600,0.608047607421875,1.9194084405899048,0.03477361053228378,-0.019897885620594025
1783245526715059500,0.6180595703125,1.7885774374008179,0.22236348688602448,0.03024943731725216
1783245526725071400,0.6280712890625,1.6728402376174927,0.40444791316986084,0.06489309668540955
1783245526735082800,0.638082763671875,1.5785174369812012,0.5362956523895264,0.08568999171257019
1783245526745094700,0.6480947265625,1.486103892326355,0.5920788049697876,0.08362602442502975
1783245526755106600,0.6581064453125,1.3972254991531372,0.5764635801315308,0.07765601575374603
1783245526765117700,0.66811767578125,1.3308695554733276,0.5459969639778137,0.05779717117547989
1783245526775129600,0.678129638671875,1.3033982515335083,0.514658510684967,0.02609836310148239
1783245526785142000,0.68814208984375,1.3102006912231445,0.49685704708099365,-0.009961558505892754
1783245526795153200,0.698153076171875,1.330633521080017,0.4958336055278778,-0.03557956963777542
1783245526805165000,0.7081650390625,1.3610711097717285,0.4925188422203064,-0.045302629470825195
1783245526815177000,0.718177001953125,1.3980985879898071,0.49390023946762085,-0.04736870527267456
1783245526825187800,0.728187744140625,1.4417778253555298,0.5049165487289429,-0.04348544403910637
1783245526835200000,0.738199951171875,1.4923515319824219,0.5114016532897949,-0.04306253418326378
1783245526845212000,0.7482119140625,1.5554888248443604,0.48909416794776917,-0.05392251908779144
1783245526855223000,0.75822314453125,1.6319875717163086,0.453945517539978,-0.07725634425878525
1783245526865235200,0.768235107421875,1.7154016494750977,0.3930228054523468,-0.10989057272672653
1783245526875247000,0.7782470703125,1.7831716537475586,0.3273194134235382,-0.15042707324028015
1783245526885258000,0.788258056640625,1.8310831785202026,0.2851355969905853,-0.19483083486557007
1783245526895270100,0.798270263671875,1.8551450967788696,0.27223578095436096,-0.2432931810617447
1783245526905282000,0.808281982421875,1.850197434425354,0.2355029582977295,-0.28297045826911926
1783245526915293000,0.81829296875,1.8217421770095825,0.14617787301540375,-0.30503103137016296
1783245526925305000,0.82830517578125,1.782762885093689,0.050538912415504456,-0.30084824562072754
1783245526935317000,0.83831689453125,1.7423782348632812,-0.013532483018934727,-0.28194618225097656
1783245526945327900,0.848327880859375,1.7067147493362427,-0.023379916325211525,-0.24824029207229614
1783245526955340000,0.858340087890625,1.6718121767044067,0.018782716244459152,-0.21039144694805145
1783245526965352000,0.86835205078125,1.635469675064087,0.06520701199769974,-0.17033492028713226
1783245526975364000,0.878364013671875,1.5940852165222168,0.09880305826663971,-0.12772513926029205
1783245526985375000,0.888375,1.545566201210022,0.12333216518163681,-0.08796128630638123
1783245526995387100,0.89838720703125,1.4955281019210815,0.14570990204811096,-0.05260968580842018
1783245527005399000,0.90839892578125,1.447084665298462,0.1978812962770462,-0.028421305119991302
1783245527015410000,0.918409912109375,1.4009885787963867,0.2676182985305786,-0.022533055394887924
1783245527025422000,0.928422119140625,1.3663973808288574,0.3043102025985718,-0.03172912448644638
1783245527035434000,0.93843408203125,1.3483507633209229,0.3150659203529358,-0.051306553184986115
1783245527045444900,0.94844482421875,1.3389936685562134,0.31990110874176025,-0.06795690208673477
1783245527055457000,0.95845703125,1.3357646465301514,0.30054232478141785,-0.08253158628940582
1783245527065469000,0.968468994140625,1.335243582725525,0.26912832260131836,-0.0964464396238327
1783245527075480000,0.97847998046875,1.3297295570373535,0.2291707694530487,-0.10648069530725479
1783245527085492200,0.9884921875,1.3191156387329102,0.19073563814163208,-0.1144503504037857
1783245527095504100,0.998504150390625,1.3012983798980713,0.14557988941669464,-0.12671074271202087
1783245527105515000,1.008514892578125,1.2752948999404907,0.09329269826412201,-0.13350579142570496
1783245527115527000,1.01852685546875,1.2490729093551636,0.01544078066945076,-0.13763688504695892
1783245527125539000,1.0285390625,1.2204145193099976,-0.07075922191143036,-0.13972999155521393
1783245527135550000,1.038550048828125,1.174375057220459,-0.11939413845539093,-0.13995236158370972
1783245527145561900,1.048561767578125,1.1176847219467163,-0.11622585356235504,-0.1408683955669403
1783245527155574000,1.058573974609375,1.0491485595703125,-0.06671928614377975,-0.13789550960063934
1783245527165585200,1.068585205078125,0.9816685318946838,0.017762718722224236,-0.13733533024787903
1783245527175597000,1.07859716796875,0.9279888272285461,0.10592000931501389,-0.1370447725057602
1783245527185609200,1.088609130859375,0.8849680423736572,0.16804376244544983,-0.13058841228485107
1783245527195620000,1.0986201171875,0.8512194156646729,0.20760156214237213,-0.11270156502723694
1783245527205632000,1.108632080078125,0.8252503275871277,0.2059137374162674,-0.0869627371430397
1783245527215644200,1.11864404296875,0.8068225383758545,0.15109069645404816,-0.054535821080207825
1783245527225655000,1.128655029296875,0.7983343005180359,0.07513373345136642,-0.01977395825088024
1783245527235667000,1.1386669921875,0.7949808239936829,-0.004730203188955784,0.006721032317727804
1783245527245679000,1.14867919921875,0.785642683506012,-0.08437005430459976,0.02554815262556076
1783245527255691000,1.15869091796875,0.7684410810470581,-0.14139233529567719,0.04166107624769211
1783245527265702000,1.168701904296875,0.7388723492622375,-0.15769998729228973,0.05820333957672119
1783245527275714000,1.178714111328125,0.708355724811554,-0.15099680423736572,0.07757969945669174
1783245527285726000,1.188725830078125,0.6742303371429443,-0.11748313158750534,0.09787654131650925
1783245527295737000,1.198737060546875,0.6346381902694702,-0.05240452662110329,0.12016186863183975
1783245527305749000,1.2087490234375,0.5981327891349792,0.016036061570048332,0.13665638864040375
1783245527315761200,1.21876123046875,0.5655151605606079,0.060333218425512314,0.1558505892753601
1783245527325772000,1.22877197265625,0.5452035665512085,0.07522780448198318,0.1682550013065338
1783245527335784000,1.238783935546875,0.5247811079025269,0.06606467068195343,0.18472133576869965
1783245527345796000,1.248796142578125,0.5114004611968994,0.05092552676796913,0.2006591558456421
1783245527355807000,1.258806884765625,0.5112824440002441,0.006306396331638098,0.19987431168556213
1783245527365819000,1.26881884765625,0.5171194672584534,-0.04784703999757767,0.19883506000041962
1783245527375831000,1.2788310546875,0.5273433923721313,-0.10226500779390335,0.19869577884674072
1783245527385842200,1.28884228515625,0.5371143221855164,-0.1555572748184204,0.20277869701385498
1783245527395854000,1.29885400390625,0.5486186742782593,-0.18010549247264862,0.19757142663002014
1783245527405866200,1.3088662109375,0.5591099858283997,-0.14827390015125275,0.17010661959648132
1783245527415877000,1.318877197265625,0.5526019930839539,-0.055983658879995346,0.11911585927009583
1783245527425889000,1.328888916015625,0.5178250670433044,0.07846640795469284,0.05306830629706383
1783245527435901000,1.33890087890625,0.4613010883331299,0.19094501435756683,-0.016976026818156242
1783245527445913000,1.3489130859375,0.4050308167934418,0.24355179071426392,-0.06747200340032578
1783245527455924000,1.358924072265625,0.36378803849220276,0.27096956968307495,-0.0938468798995018
1783245527465936000,1.368935791015625,0.354677677154541,0.2221883088350296,-0.1015203595161438
1783245527475948000,1.378947998046875,0.3570638597011566,0.09154320508241653,-0.1065707802772522
1783245527485959200,1.388959228515625,0.3562242090702057,-0.0785261020064354,-0.11137555539608002
1783245527495971000,1.39897119140625,0.35397782921791077,-0.22235862910747528,-0.1265137642621994
1783245527505983200,1.408983154296875,0.3668084442615509,-0.35936909914016724,-0.14508382976055145
1783245527515994000,1.418994140625,0.3885219991207123,-0.438181608915329,-0.1703878492116928
1783245527526006000,1.429006103515625,0.4102906584739685,-0.3966754674911499,-0.19776087999343872
1783245527536018200,1.43901806640625,0.42318010330200195,-0.2327246069908142,-0.22289207577705383
1783245527546029000,1.449029052734375,0.4212208092212677,-0.0007037129253149033,-0.23550070822238922
1783245527556041000,1.459041015625,0.41411975026130676,0.24054458737373352,-0.23144204914569855
1783245527566052900,1.469052978515625,0.4119492173194885,0.4371674954891205,-0.19982168078422546
1783245527576064000,1.47906396484375,0.4262562394142151,0.5199856758117676,-0.14522261917591095
1783245527586076000,1.489075927734375,0.4728488326072693,0.46668311953544617,-0.09115384519100189
1783245527596087800,1.499087890625,0.5552976131439209,0.3083057403564453,-0.043038785457611084
1783245527606099200,1.50909912109375,0.643210768699646,0.10184960067272186,-0.016193188726902008
1783245527616111000,1.519111083984375,0.6986055970191956,-0.13219298422336578,0.002832967322319746
1783245527626123000,1.529123046875,0.7113621830940247,-0.375906765460968,0.016914639621973038
1783245527636134100,1.539134033203125,0.6951305270195007,-0.5547279119491577,0.031528204679489136
1783245527646146000,1.54914599609375,0.68242347240448,-0.6255760788917542,0.03776410594582558
1783245527656158000,1.559157958984375,0.6857204437255859,-0.5757161378860474,0.017351776361465454
1783245527666168800,1.5691689453125,0.6826509237289429,-0.4365059435367584,-0.02632710710167885
1783245527676181000,1.579180908203125,0.6576675772666931,-0.23014983534812927,-0.08208438009023666
1783245527686193000,1.58919287109375,0.6258532404899597,-0.018254872411489487,-0.14283110201358795
1783245527696205000,1.599205078125,0.5952828526496887,0.17370392382144928,-0.19442345201969147
1783245527706216200,1.60921630859375,0.5698567628860474,0.3164989948272705,-0.22142347693443298
1783245527716228000,1.61922802734375,0.5516098737716675,0.36398446559906006,-0.2148313671350479
1783245527726240000,1.629239990234375,0.5490452647209167,0.3517976701259613,-0.18913303315639496
1783245527736251100,1.639251220703125,0.5582387447357178,0.2975536286830902,-0.15382616221904755
1783245527746263000,1.649262939453125,0.579962968826294,0.19436919689178467,-0.11563511192798615
1783245527756275000,1.65927490234375,0.6124479174613953,0.0634055808186531,-0.0652044340968132
1783245527766286000,1.6692861328125,0.6512337327003479,-0.079645074903965,-0.009629808366298676
1783245527776298000,1.679298095703125,0.6866047978401184,-0.1939018815755844,0.046770352870225906
1783245527786310400,1.689310302734375,0.712265133857727,-0.2559203505516052,0.09793724119663239
1783245527796321300,1.6993212890625,0.7228610515594482,-0.25545644760131836,0.13317272067070007
1783245527806333400,1.70933349609375,0.7093440294265747,-0.2080034762620926,0.14929871261119843
1783245527816345300,1.719345458984375,0.6729040145874023,-0.15025575459003448,0.14572475850582123
1783245527826356500,1.7293564453125,0.6300026774406433,-0.09891825914382935,0.13101637363433838
1783245527836368600,1.73936865234375,0.5968599319458008,-0.030734408646821976,0.11308158934116364
1783245527846380500,1.749380615234375,0.591293215751648,0.06278043240308762,0.08578304201364517
1783245527856391400,1.759391357421875,0.6174851059913635,0.1287091225385666,0.05977913737297058
1783245527866403300,1.7694033203125,0.6685487031936646,0.16471774876117706,0.03361009061336517
1783245527876415500,1.77941552734375,0.7445276379585266,0.20928841829299927,-0.001697563100606203
1783245527886426400,1.78942626953125,0.8348515629768372,0.2623324990272522,-0.05226597189903259
1783245527896438300,1.799438232421875,0.9238014221191406,0.2904762327671051,-0.11963169276714325
1783245527906450400,1.809450439453125,0.9984530210494995,0.3026227653026581,-0.2000691145658493
1783245527916462300,1.81946240234375,1.0431336164474487,0.3001425564289093,-0.2824321687221527
1783245527926473500,1.829473388671875,1.0518543720245361,0.27304431796073914,-0.3582504391670227
1783245527936485600,1.839485595703125,1.0195627212524414,0.2484191358089447,-0.40262484550476074
1783245527946497500,1.84949755859375,0.957823634147644,0.23648422956466675,-0.4055144190788269
1783245527956508400,1.85950830078125,0.8816732168197632,0.2376171350479126,-0.3640764355659485
1783245527966520600,1.8695205078125,0.8071705102920532,0.24500170350074768,-0.29234516620635986
1783245527976532500,1.879532470703125,0.7509823441505432,0.24359875917434692,-0.20477509498596191
1783245527986543400,1.88954345703125,0.7173459529876709,0.22647050023078918,-0.12784790992736816
1783245527996555500,1.899555419921875,0.6902530789375305,0.2147669792175293,-0.06683168560266495
1783245528006567400,1.9095673828125,0.6636309027671814,0.2055480033159256,-0.027855398133397102
1783245528016578600,1.91957861328125,0.6263967156410217,0.19814494252204895,-0.007129346020519733
1783245528026590500,1.929590576171875,0.5806118249893188,0.19320927560329437,0.006499138660728931
1783245528036602600,1.9396025390625,0.5380731225013733,0.18710798025131226,0.020105760544538498
1783245528046613500,1.949613525390625,0.513120710849762,0.18556006252765656,0.033579859882593155
1783245528056625400,1.95962548828125,0.4935973286628723,0.20251905918121338,0.036590296775102615
1783245528066637600,1.969637451171875,0.47056064009666443,0.23119473457336426,0.037391550838947296
1783245528076648400,1.9796484375,0.44506460428237915,0.26630184054374695,0.03574065864086151
1783245528086660400,1.989660400390625,0.4227774143218994,0.3111158013343811,0.031323160976171494
1783245528096672500,1.999672607421875,0.4037456810474396,0.35546353459358215,0.034518953412771225
1783245528106684400,2.009684326171875,0.3855130672454834,0.3883049190044403,0.038075514137744904
1783245528116695300,2.0196953125,0.35260090231895447,0.4003264307975769,0.04899713769555092
1783245528126707500,2.02970751953125,0.317452996969223,0.37401115894317627,0.0627947747707367
1783245528136719400,2.03971923828125,0.27877455949783325,0.3444777727127075,0.07982010394334793
1783245528146730500,2.04973046875,0.2598157227039337,0.3073583245277405,0.09655115008354187
1783245528156742400,2.059742431640625,0.26399075984954834,0.2603279948234558,0.10940010100603104
1783245528166754600,2.069754638671875,0.29274430871009827,0.2769656479358673,0.11453112959861755
1783245528176765400,2.079765380859375,0.3344174325466156,0.34768909215927124,0.09158134460449219
1783245528186777300,2.08977734375,0.3567966818809509,0.4341244399547577,0.057100772857666016
1783245528196789500,2.09978955078125,0.3679302930831909,0.5150473117828369,0.015945613384246826
1783245528206800400,2.10980029296875,0.3975973129272461,0.5831199288368225,-0.04485289752483368
1783245528216812300,2.119812255859375,0.44801199436187744,0.6182126402854919,-0.10226558893918991
1783245528226824400,2.129824462890625,0.4893117845058441,0.6160866618156433,-0.1496303826570511
1783245528236835600,2.139835693359375,0.5331282615661621,0.5444270968437195,-0.1815907210111618
1783245528246847500,2.149847412109375,0.5840722322463989,0.4262833297252655,-0.20805127918720245
1783245528256859600,2.159859619140625,0.644210159778595,0.3350466191768646,-0.2567370533943176
1783245528266870500,2.16987060546875,0.7069889307022095,0.3010832369327545,-0.3401724696159363
1783245528276882400,2.17988232421875,0.7702770829200745,0.28538310527801514,-0.4227728247642517
1783245528286894600,2.18989453125,0.8446973562240601,0.26420801877975464,-0.48018279671669006
1783245528296906500,2.199906494140625,0.9358693361282349,0.25298118591308594,-0.49798762798309326
1783245528306917400,2.20991748046875,1.0456935167312622,0.2435409128665924,-0.46481725573539734
1783245528316929300,2.21992919921875,1.1661416292190552,0.21602673828601837,-0.3775974214076996
1783245528326941400,2.22994140625,1.2704309225082397,0.1718878597021103,-0.25121426582336426
1783245528336952300,2.239952392578125,1.3328865766525269,0.1306607872247696,-0.10949814319610596
1783245528346964500,2.249964599609375,1.3400095701217651,0.08642809092998505,0.03202568739652634
1783245528356976400,2.259976318359375,1.292510747909546,0.04432591050863266,0.14857414364814758
1783245528366987500,2.269987548828125,1.2050889730453491,0.033739104866981506,0.23290866613388062
1783245528376999400,2.27999951171875,1.093003749847412,0.05035589635372162,0.2903299033641815
1783245528387011600,2.290011474609375,0.980339527130127,0.09942629188299179,0.32115378975868225
1783245528397022500,2.3000224609375,0.8720769882202148,0.190761536359787,0.3284045159816742
1783245528407034400,2.310034423828125,0.7765927314758301,0.3336346745491028,0.3184763789176941
1783245528417046500,2.320046630859375,0.6948222517967224,0.5129945874214172,0.29376277327537537
1783245528427057400,2.330057373046875,0.6390049457550049,0.6626487970352173,0.25525161623954773
1783245528437069300,2.3400693359375,0.6152013540267944,0.7621423602104187,0.206163689494133
1783245528447081500,2.35008154296875,0.6347459554672241,0.802829921245575,0.15133950114250183
1783245528457092600,2.360092529296875,0.7007473707199097,0.7727178335189819,0.10195544362068176
1783245528467104500,2.3701044921875,0.8052356839179993,0.6985800266265869,0.05396358296275139
1783245528477116400,2.380116455078125,0.9332828521728516,0.5908618569374084,0.012487511150538921
1783245528487128600,2.390128662109375,1.0598113536834717,0.46711188554763794,-0.022237105295062065
1783245528497139500,2.400139404296875,1.1636559963226318,0.3409273028373718,-0.054601699113845825
1783245528507151400,2.4101513671875,1.2305903434753418,0.22033607959747314,-0.09376044571399689
1783245528517163500,2.42016357421875,1.260779857635498,0.13117557764053345,-0.14768385887145996
1783245528527174400,2.43017431640625,1.2560843229293823,0.07179002463817596,-0.21505306661128998
1783245528537186300,2.440186279296875,1.2117881774902344,0.025534912943840027,-0.26679643988609314
1783245528547198500,2.450198486328125,1.1604623794555664,-0.0833868533372879,-0.2919912040233612
1783245528557209600,2.460209716796875,1.1239094734191895,-0.20834475755691528,-0.29074618220329285
1783245528567221500,2.470221435546875,1.1087110042572021,-0.34228619933128357,-0.2781716287136078
1783245528577233700,2.480233642578125,1.1088197231292725,-0.43803083896636963,-0.2583446502685547
1783245528587244500,2.49024462890625,1.096260666847229,-0.48896297812461853,-0.2398298680782318
1783245528597256400,2.50025634765625,1.0603708028793335,-0.5016635656356812,-0.22453267872333527
1783245528607268400,2.510268310546875,1.004172921180725,-0.48024553060531616,-0.21188491582870483
1783245528617279500,2.520279541015625,0.9375398755073547,-0.41154980659484863,-0.19974330067634583
1783245528627291400,2.53029150390625,0.8766466379165649,-0.3372190594673157,-0.1747857928276062
1783245528637303300,2.54030322265625,0.834051251411438,-0.28371402621269226,-0.14430910348892212
1783245528647314400,2.550314453125,0.8014930486679077,-0.22499202191829681,-0.108907550573349
1783245528657326300,2.560326416015625,0.7684701085090637,-0.16204021871089935,-0.07440683245658875
1783245528667338500,2.57033837890625,0.7187220454216003,-0.10457850247621536,-0.03987922519445419
1783245528677350400,2.580350341796875,0.6513746976852417,-0.056520696729421616,-0.006115670315921307
1783245528687361500,2.590361572265625,0.5780396461486816,-0.02160399965941906,0.030966997146606445
1783245528697373400,2.60037353515625,0.5104515552520752,-0.015625203028321266,0.06138429418206215
1783245528707385600,2.610385498046875,0.46456649899482727,-0.009837549179792404,0.0820588693022728
1783245528717396500,2.620396484375,0.4398292005062103,-0.0029825724195688963,0.08543948084115982
1783245528727408400,2.630408447265625,0.42825847864151,0.008347839117050171,0.07315833121538162
1783245528737420500,2.640420654296875,0.4183182418346405,0.03607214614748955,0.04117243364453316
1783245528747431400,2.650431396484375,0.4031793177127838,0.08890500664710999,-0.007187389302998781
1783245528757443300,2.660443359375,0.37468481063842773,0.1653667539358139,-0.05832220986485481
1783245528767455200,2.670455322265625,0.33598706126213074,0.2280915081501007,-0.09431176632642746
1783245528777466600,2.680466552734375,0.2988724708557129,0.23974230885505676,-0.1052006334066391
1783245528787477500,2.6904775390625,0.2646273374557495,0.20239123702049255,-0.09380154311656952
1783245528797489700,2.70048974609375,0.23136284947395325,0.15689966082572937,-0.0599525012075901
1783245528807500500,2.71050048828125,0.18878298997879028,0.13383516669273376,-0.013111568987369537
1783245528817512400,2.720512451171875,0.13217350840568542,0.10337232053279877,0.052079685032367706
1783245528827524400,2.7305244140625,0.06777364760637283,0.06805603951215744,0.11835870146751404
1783245528837535700,2.74053564453125,-0.000905016902834177,0.039690710604190826,0.18072807788848877
1783245528847547600,2.750547607421875,-0.0715547725558281,0.02984592132270336,0.23368622362613678
1783245528857559600,2.7605595703125,-0.13899587094783783,0.05522477999329567,0.27489039301872253
1783245528867571700,2.77057177734375,-0.19152706861495972,0.07176465541124344,0.3022676408290863
1783245528877582600,2.78058251953125,-0.2300102859735489,0.08666743338108063,0.31758853793144226
1783245528887594500,2.790594482421875,-0.25029927492141724,0.09807926416397095,0.329642117023468
1783245528897606700,2.800606689453125,-0.22896817326545715,0.09632610529661179,0.3320120573043823
1783245528907617500,2.810617431640625,-0.15881960093975067,0.11306982487440109,0.30586522817611694
1783245528917629400,2.82062939453125,-0.08105157315731049,0.13745053112506866,0.24799661338329315
1783245528927641600,2.8306416015625,-0.04186268895864487,0.16050708293914795,0.18242932856082916
1783245528937652500,2.840652587890625,-0.05732659995555878,0.22324104607105255,0.12792053818702698
1783245528947664400,2.850664306640625,-0.1163574755191803,0.27824991941452026,0.09139242023229599
1783245528957676500,2.860676513671875,-0.20573264360427856,0.35323283076286316,0.07089300453662872
1783245528967687700,2.870687744140625,-0.2884458601474762,0.39955177903175354,0.10299798846244812
1783245528977699600,2.880699462890625,-0.37691447138786316,0.5053980946540833,0.14180611073970795
1783245528987711500,2.89071142578125,-0.45559611916542053,0.519751250743866,0.16076774895191193
1783245528997723600,2.9007236328125,-0.5061272382736206,0.4182238280773163,0.16279786825180054
1783245529007734500,2.910734619140625,-0.5221244096755981,0.2583194673061371,0.14568564295768738
1783245529017746400,2.920746337890625,-0.49975672364234924,0.07809482514858246,0.11459003388881683
1783245529027758600,2.930758544921875,-0.474271684885025,-0.12472924590110779,0.07746382802724838
1783245529037769500,2.94076953125,-0.4706575274467468,-0.2865607440471649,0.03744743391871452
1783245529047781400,2.950781494140625,-0.48895981907844543,-0.37543177604675293,-0.01203942485153675
1783245529057793500,2.96079345703125,-0.5039896368980408,-0.369713693857193,-0.05237433314323425
1783245529067804700,2.9708046875,-0.4836476147174835,-0.2961595356464386,-0.06840954720973969
1783245529077816600,2.980816650390625,-0.3996184766292572,-0.22150124609470367,-0.051856137812137604
1783245529087828700,2.990828857421875,-0.23417332768440247,-0.1982729434967041,-0.00010420707985758781
1783245529097839600,3.000839599609375,0.00017898506484925747,-0.21735742688179016,0.061343174427747726
1783245529107851500,3.0108515625,0.2644090950489044,-0.22574761509895325,0.09992428123950958
1783245529117863400,3.020863525390625,0.49270856380462646,-0.2121090441942215,0.09204211831092834
1783245529127874600,3.03087451171875,0.653440535068512,-0.2029784768819809,0.029676033183932304
1783245529137886500,3.040886474609375,0.7385224103927612,-0.21362392604351044,-0.08717308938503265
1783245529147898400,3.0508984375,0.7576871514320374,-0.24550646543502808,-0.24339412152767181
1783245529157909500,3.060909423828125,0.7239981293678284,-0.2775900959968567,-0.4203702211380005
1783245529167921700,3.070921630859375,0.6567158699035645,-0.29308637976646423,-0.5932468175888062
1783245529177933600,3.08093359375,0.5595248937606812,-0.2615644037723541,-0.7428336143493652
1783245529187945700,3.09094580078125,0.4424736499786377,-0.15493430197238922,-0.855433464050293
1783245529197956600,3.10095654296875,0.3127169609069824,-0.02155280113220215,-0.9079640507698059
1783245529207968500,3.110968505859375,0.19034068286418915,0.09441371262073517,-0.8843415379524231
1783245529217980700,3.120980712890625,0.10462338477373123,0.17088213562965393,-0.7887766361236572
1783245529227991600,3.130991455078125,0.07363244146108627,0.22437278926372528,-0.6644200682640076
1783245529238003500,3.14100341796875,0.07495656609535217,0.1683254987001419,-0.5147994160652161
1783245529248015600,3.151015625,0.08613574504852295,0.08023760467767715,-0.3480135500431061
1783245529258026500,3.161026611328125,0.10951004177331924,0.019569197669625282,-0.1806085854768753
1783245529268038400,3.171038330078125,0.14209111034870148,0.004065008834004402,-0.028791826218366623
1783245529278050300,3.18105029296875,0.18505455553531647,0.024191316217184067,0.09050047397613525
1783245529288061700,3.191061767578125,0.2390277087688446,0.048156026750802994,0.1688709259033203
1783245529298073600,3.201073486328125,0.3137935698032379,0.043467000126838684,0.21416650712490082
1783245529308085500,3.21108544921875,0.40180155634880066,0.005720442160964012,0.23215027153491974
1783245529318096600,3.2210966796875,0.497410386800766,-0.05072366073727608,0.22837817668914795
1783245529328108500,3.231108642578125,0.5891005992889404,-0.13154137134552002,0.19592978060245514
1783245529338120400,3.241120361328125,0.6780752539634705,-0.21560777723789215,0.14547592401504517
1783245529348132600,3.251132568359375,0.7616016268730164,-0.3098304867744446,0.09055578708648682
1783245529358143500,3.2611435546875,0.8450928330421448,-0.3985036313533783,0.039807647466659546
1783245529368155400,3.2711552734375,0.9181477427482605,-0.45434483885765076,-0.00252673146314919
1783245529378167600,3.28116748046875,0.979828953742981,-0.4791886508464813,-0.0343291349709034
1783245529388178700,3.2911787109375,1.0133675336837769,-0.4454587697982788,-0.054268378764390945
1783245529398190600,3.301190673828125,1.0163874626159668,-0.35270753502845764,-0.06763291358947754
1783245529408202800,3.31120263671875,0.9919642210006714,-0.20490767061710358,-0.07633800059556961
1783245529418213600,3.321213623046875,0.9616555571556091,-0.03516605123877525,-0.07596782594919205
1783245529428225500,3.3312255859375,0.9503875374794006,0.10641340911388397,-0.07081031054258347
1783245529438237400,3.341237548828125,0.9642865657806396,0.21011343598365784,-0.05833206698298454
1783245529448248600,3.35124853515625,0.9971991181373596,0.2621510326862335,-0.049682628363370895
1783245529458260500,3.361260498046875,1.02571702003479,0.2581341862678528,-0.05386326089501381
1783245529468272400,3.3712724609375,1.0305194854736328,0.23755964636802673,-0.06784187257289886
1783245529478283500,3.381283447265625,0.9915633797645569,0.23148417472839355,-0.08851679414510727
1783245529488295700,3.391295654296875,0.9098702669143677,0.26901665329933167,-0.10321773588657379
1783245529498307600,3.4013076171875,0.8019728064537048,0.3319985568523407,-0.1106458231806755
1783245529508319700,3.41131982421875,0.6933496594429016,0.40306001901626587,-0.10661332309246063
1783245529518330600,3.42133056640625,0.6017430424690247,0.48843297362327576,-0.09323892742395401
1783245529528342500,3.431342529296875,0.5347542762756348,0.5857197642326355,-0.06622087210416794
1783245529538354700,3.441354736328125,0.47827720642089844,0.6634832620620728,-0.011815153993666172
1783245529548365600,3.451365478515625,0.42992785573005676,0.723395824432373,0.05884099379181862
1783245529558377500,3.46137744140625,0.38052117824554443,0.7648412585258484,0.13832010328769684
1783245529568389400,3.471389404296875,0.33443358540534973,0.7802251577377319,0.20870548486709595
1783245529578400500,3.481400390625,0.29940956830978394,0.7676420211791992,0.2613857090473175
1783245529588412400,3.491412353515625,0.271320104598999,0.7376695275306702,0.2950327396392822
1783245529598424300,3.50142431640625,0.25199249386787415,0.6635450124740601,0.31664350628852844
1783245529608435700,3.511435791015625,0.253002792596817,0.5307161808013916,0.3298684060573578
1783245529618447600,3.521447509765625,0.2986757457256317,0.39727985858917236,0.3268350660800934
1783245529628459500,3.53145947265625,0.39231976866722107,0.31071045994758606,0.2987391948699951
1783245529638470700,3.541470703125,0.5240610837936401,0.28689301013946533,0.23566408455371857
1783245529648482600,3.551482666015625,0.654558002948761,0.3086867928504944,0.14671331644058228
1783245529658494500,3.561494384765625,0.7632802128791809,0.3187524974346161,0.04935641214251518
1783245529668506600,3.571506591796875,0.8497857451438904,0.3451339304447174,-0.0498686283826828
1783245529678517500,3.581517578125,0.9181621074676514,0.44718971848487854,-0.1581389158964157
1783245529688529400,3.591529296875,0.9542884230613708,0.6150558590888977,-0.25797271728515625
1783245529698541600,3.60154150390625,0.9409638047218323,0.787256121635437,-0.3269357979297638
1783245529708552700,3.611552734375,0.8856726288795471,0.9010154008865356,-0.34350621700286865
1783245529718564600,3.621564697265625,0.8128895163536072,0.9321898221969604,-0.3007963001728058
1783245529728576500,3.631576416015625,0.7533996105194092,0.8654318451881409,-0.2013550102710724
1783245529738587600,3.641587646484375,0.7166956663131714,0.7134327292442322,-0.06273453682661057
1783245529748599600,3.651599609375,0.6928934454917908,0.4824226498603821,0.10361427813768387
1783245529758611500,3.661611572265625,0.6842139363288879,0.1955738663673401,0.2731947898864746
1783245529768622600,3.67162255859375,0.7039295434951782,-0.08492422103881836,0.4266824424266815
1783245529778634500,3.681634521484375,0.7628301382064819,-0.3049045205116272,0.5484762787818909
1783245529788647400,3.6916474609375,0.8498121500015259,-0.43828341364860535,0.6313560009002686
1783245529798658300,3.701658203125,0.9526029825210571,-0.4784097969532013,0.6783341765403748
1783245529808670500,3.71167041015625,1.0524141788482666,-0.43389010429382324,0.6854377388954163
1783245529818682400,3.721682373046875,1.1439861059188843,-0.3048951029777527,0.6533439755439758
1783245529828694300,3.7316943359375,1.2279198169708252,-0.14560741186141968,0.5940777659416199
1783245529838705400,3.741705322265625,1.317732810974121,-0.004680651240050793,0.5058043599128723
1783245529848717600,3.751717529296875,1.4103981256484985,0.10798321664333344,0.3942573666572571
1783245529858729500,3.7617294921875,1.5035320520401,0.2096232920885086,0.25500282645225525
1783245529868740400,3.771740234375,1.584672212600708,0.30185410380363464,0.10256218165159225
1783245529878752500,3.78175244140625,1.6637468338012695,0.37486547231674194,-0.05691881850361824
1783245529888764400,3.791764404296875,1.7453242540359497,0.4277952015399933,-0.21494700014591217
1783245529898775300,3.801775390625,1.8196980953216553,0.458222359418869,-0.35743916034698486
1783245529908787500,3.811787353515625,1.8717361688613892,0.4763874411582947,-0.46229442954063416
1783245529918799400,3.82179931640625,1.8898555040359497,0.48079949617385864,-0.5228613615036011
1783245529928810200,3.831810302734375,1.8788723945617676,0.48080769181251526,-0.540830135345459
1783245529938822400,3.841822509765625,1.8483799695968628,0.4517643451690674,-0.5151298642158508
1783245529948834300,3.851834228515625,1.8161356449127197,0.3877231478691101,-0.4536290466785431
1783245529958845400,3.861845458984375,1.797878623008728,0.3224290907382965,-0.3664478063583374
1783245529968857300,3.871857421875,1.7986558675765991,0.2586107552051544,-0.2838539481163025
1783245529978869500,3.881869384765625,1.8180724382400513,0.1913084238767624,-0.21985873579978943
1783245529988881400,3.89188134765625,1.8423469066619873,0.12415263801813126,-0.18383638560771942
1783245529998892300,3.901892333984375,1.8595194816589355,0.06627469509840012,-0.1729523092508316
1783245530008904400,3.911904541015625,1.8582513332366943,0.02539108507335186,-0.18398167192935944
1783245530018916400,3.921916259765625,1.8377667665481567,0.020014161244034767,-0.20940101146697998
1783245530028927200,3.93192724609375,1.798685073852539,0.034675903618335724,-0.24072697758674622
1783245530038939400,3.941939453125,1.7475638389587402,0.05499262735247612,-0.2683362364768982
1783245530048951300,3.951951416015625,1.6935796737670898,0.09006687253713608,-0.28039172291755676
1783245530058962400,3.96196240234375,1.6422584056854248,0.1291506290435791,-0.28514039516448975
1783245530068974600,3.971974609375,1.600932002067566,0.1853274554014206,-0.2809588313102722
1783245530078986500,3.981986572265625,1.5625646114349365,0.2780153155326843,-0.2769249379634857
1783245530088997400,3.991997314453125,1.5279086828231812,0.39177650213241577,-0.2698366641998291
1783245530099009500,4.002009521484375,1.4876240491867065,0.5136523246765137,-0.2719799876213074
1783245530109021400,4.012021484375,1.4413983821868896,0.609386682510376,-0.27629485726356506
1783245530119033300,4.022033447265625,1.3795547485351562,0.6248452663421631,-0.2770967483520508
1783245530129044200,4.032044189453125,1.305129051208496,0.5557330250740051,-0.27354803681373596
1783245530139056400,4.042056396484375,1.2399324178695679,0.43757569789886475,-0.2574681341648102
1783245530149068300,4.052068359375,1.2088587284088135,0.29026398062705994,-0.2334762066602707
1783245530159079400,4.062079345703125,1.2051228284835815,0.1413503885269165,-0.20438091456890106
1783245530169091600,4.072091552734375,1.2116270065307617,0.019608452916145325,-0.1718524843454361
1783245530179103500,4.082103515625,1.209227204322815,-0.04873092100024223,-0.14383655786514282
1783245530189114400,4.0921142578125,1.1941845417022705,-0.06959710270166397,-0.1246018037199974
1783245530199126500,4.10212646484375,1.1690435409545898,-0.07358571887016296,-0.12236954271793365
1783245530209138400,4.112138427734375,1.1296663284301758,-0.06514459103345871,-0.13879325985908508
1783245530219149300,4.1221494140625,1.064750075340271,-0.04409283399581909,-0.16296251118183136
1783245530229161500,4.132161376953125,0.9753581285476685,-0.018927892670035362,-0.18420487642288208
1783245530239173400,4.14217333984375,0.8762283325195312,0.01653236337006092,-0.18902651965618134
1783245530249184300,4.152184326171875,0.7731322646141052,0.08598891645669937,-0.17497621476650238
1783245530259196400,4.162196533203125,0.6750909090042114,0.16208980977535248,-0.1506114900112152
1783245530269208300,4.172208251953125,0.5861752033233643,0.2282547950744629,-0.12603192031383514
1783245530279220200,4.18222021484375,0.5037447810173035,0.28030550479888916,-0.11129344999790192
1783245530289231400,4.1922314453125,0.428414911031723,0.30337080359458923,-0.10932879149913788
1783245530299243500,4.202243408203125,0.3690517246723175,0.30127328634262085,-0.11168115586042404
1783245530309255400,4.21225537109375,0.3325895071029663,0.2664896249771118,-0.1093696728348732
1783245530319266300,4.222266357421875,0.330147922039032,0.18420246243476868,-0.09767813235521317
1783245530329278500,4.232278564453125,0.35935136675834656,0.09203144162893295,-0.07909209281206131
1783245530339290400,4.242290283203125,0.4041137993335724,-0.0013211469631642103,-0.05309751257300377
1783245530349301200,4.25230126953125,0.454244464635849,-0.10251598060131073,-0.027613697573542595
1783245530359313400,4.2623134765625,0.5111024379730225,-0.1766330748796463,-0.019130731001496315
1783245530369325300,4.2723251953125,0.5694621801376343,-0.1920919567346573,-0.044255223125219345
1783245530379336400,4.28233642578125,0.6148065328598022,-0.18877792358398438,-0.10597557574510574
1783245530389348600,4.2923486328125,0.6337425112724304,-0.19591252505779266,-0.18542645871639252
1783245530399360500,4.302360595703125,0.6275178790092468,-0.19149966537952423,-0.27678996324539185
1783245530409371400,4.312371337890625,0.5864043831825256,-0.14945800602436066,-0.35416826605796814
1783245530419383300,4.32238330078125,0.507249653339386,-0.09191908687353134,-0.39837488532066345
1783245530429395500,4.3323955078125,0.40792134404182434,-0.03451915830373764,-0.4009890556335449
1783245530439407400,4.342407470703125,0.3002398908138275,0.00851299799978733,-0.37460780143737793
1783245530449418200,4.352418212890625,0.19757656753063202,0.026794150471687317,-0.32032978534698486
1783245530459430400,4.362430419921875,0.10675026476383209,0.0169359277933836,-0.2472851574420929
1783245530469442300,4.3724423828125,0.03186009079217911,-0.004870504140853882,-0.16882635653018951
1783245530479453400,4.382453369140625,-0.023642582818865776,-0.0446874275803566,-0.08090928196907043
1783245530489465600,4.392465576171875,-0.04888260364532471,-0.10681240260601044,0.00543102016672492
1783245530499477500,4.4024775390625,0.019656775519251823,-0.1190648078918457,0.11989688128232956
1783245530509488400,4.41248828125,0.1989736706018448,-0.05595802515745163,0.2621384859085083
1783245530519500500,4.42250048828125,0.38257360458374023,-0.021407239139080048,0.36172524094581604
1783245530529512400,4.432512451171875,0.5261960625648499,-0.045588959008455276,0.3853822946548462
1783245530539523300,4.4425234375,0.6608460545539856,-0.05823764204978943,0.3245636820793152
1783245530549535500,4.452535400390625,0.7992388606071472,-0.0521213598549366,0.20360685884952545
1783245530559547400,4.46254736328125,0.9559754729270935,-0.0450727716088295,0.061370622366666794
1783245530569559300,4.472559326171875,1.114215612411499,-0.019616933539509773,-0.0704507902264595
1783245530579570200,4.482570068359375,1.2532206773757935,0.043782275170087814,-0.17679880559444427
1783245530589582300,4.492582275390625,1.344902753829956,0.12869766354560852,-0.2547138035297394
1783245530599594200,4.50259423828125,1.3785243034362793,0.1946854591369629,-0.2989558279514313
1783245530609605400,4.51260546875,1.3694696426391602,0.2461320012807846,-0.32266658544540405
1783245530619617500,4.522617431640625,1.3289198875427246,0.2819325923919678,-0.33181747794151306
1783245530629629400,4.53262939453125,1.2646737098693848,0.30350005626678467,-0.33600887656211853
1783245530639640300,4.542640380859375,1.1907368898391724,0.2966804802417755,-0.3272321820259094
1783245530649652500,4.552652587890625,1.1171549558639526,0.26301664113998413,-0.30874142050743103
1783245530659664400,4.562664306640625,1.0406718254089355,0.21213962137699127,-0.2697623372077942
1783245530669675300,4.57267529296875,0.960001528263092,0.15964627265930176,-0.21284812688827515
1783245530679687400,4.5826875,0.8868200182914734,0.09093830734491348,-0.14048445224761963
1783245530689699300,4.59269921875,0.8324116468429565,0.025557080283761024,-0.061470236629247665
1783245530699710500,4.60271044921875,0.7994334697723389,-0.027682704851031303,0.01637742482125759
1783245530709722600,4.61272265625,0.7787086367607117,-0.04718281701207161,0.08045937865972519
1783245530719734500,4.622734619140625,0.7607216238975525,-0.03346700593829155,0.12776990234851837
1783245530729746400,4.632746337890625,0.7450371384620667,-0.0008694562129676342,0.15290862321853638
1783245530739757300,4.64275732421875,0.7332249283790588,0.04008037596940994,0.15709137916564941
1783245530749769500,4.65276953125,0.7298928499221802,0.09621060639619827,0.14529719948768616
1783245530759781400,4.662781494140625,0.7331610918045044,0.147588312625885,0.12397193908691406
1783245530769792300,4.672792236328125,0.7475289106369019,0.1672605723142624,0.09756267070770264
1783245530779804400,4.682804443359375,0.7801787853240967,0.1728534698486328,0.05211156606674194
1783245530789816300,4.69281640625,0.8246371746063232,0.1830073446035385,-0.007264964282512665
1783245530799827500,4.702827392578125,0.8746917843818665,0.16362832486629486,-0.06210105121135712
1783245530809839400,4.71283935546875,0.9334626793861389,0.10088048875331879,-0.10820035636425018
1783245530819851500,4.7228515625,0.9958820939064026,0.0421023964881897,-0.147367462515831
1783245530829862400,4.7328623046875,1.0388909578323364,0.026432454586029053,-0.18159183859825134
1783245530839874300,4.742874267578125,1.0536595582962036,0.055443599820137024,-0.20606043934822083
1783245530849886200,4.75288623046875,1.0367913246154785,0.09212596714496613,-0.2106889933347702
1783245530859897300,4.7628974609375,1.006643533706665,0.113093301653862,-0.20254158973693848
1783245530869909200,4.7729091796875,0.9686956405639648,0.13932421803474426,-0.18901389837265015
1783245530879921200,4.782921142578125,0.9197994470596313,0.17417220771312714,-0.1627167910337448
1783245530889933300,4.792933349609375,0.8566440343856812,0.1879991888999939,-0.12134896963834763
1783245530899944200,4.802944091796875,0.79142826795578,0.19131483137607574,-0.07959486544132233
1783245530909956000,4.8129560546875,0.7319919466972351,0.20013071596622467,-0.046265143901109695
1783245530919968300,4.82296826171875,0.6833519339561462,0.21602791547775269,-0.024069562554359436
1783245530929979400,4.8329794921875,0.6440127491950989,0.20670215785503387,0.0013046683743596077
1783245530939991300,4.8429912109375,0.6235913634300232,0.16863946616649628,0.031178412958979607
1783245530950003500,4.85300341796875,0.6236334443092346,0.13311778008937836,0.05766477808356285
1783245530960014300,4.863014404296875,0.6301296949386597,0.1425728052854538,0.07724647223949432
1783245530970026200,4.873026123046875,0.6324051022529602,0.18308044970035553,0.08449196815490723
1783245530980038100,4.8830380859375,0.626067578792572,0.21921901404857635,0.0891098827123642
1783245530990049300,4.89304931640625,0.6179112792015076,0.24664098024368286,0.08145604282617569
1783245531000061200,4.903061279296875,0.6121484637260437,0.2950687110424042,0.06134890392422676
1783245531010073000,4.913072998046875,0.6095721125602722,0.36672067642211914,0.03570703789591789
1783245531020084500,4.92308447265625,0.6111247539520264,0.44548287987709045,0.006018917541950941
1783245531030096400,4.933096435546875,0.6192932724952698,0.5107744336128235,-0.019327638670802116
1783245531040108300,4.9431083984375,0.6264691948890686,0.5594099164009094,-0.03575747832655907
1783245531050120400,4.953120361328125,0.621846079826355,0.5779414772987366,-0.042188502848148346
1783245531060131300,4.96313134765625,0.6060615181922913,0.5780903697013855,-0.037907205522060394
1783245531070143200,4.973143310546875,0.5815040469169617,0.5670349597930908,-0.027956953272223473
1783245531080155400,4.9831552734375,0.560997724533081,0.5253154635429382,-0.013364961370825768
1783245531090166300,4.993166259765625,0.5541387796401978,0.4315345883369446,0.003121111076325178
1783245531100178200,5.00317822265625,0.5921679139137268,0.3125235140323639,0.006722770631313324
1783245531110190300,5.0131904296875,0.675422728061676,0.22045911848545074,-0.02117626555263996
1783245531120201500,5.023201416015625,0.7705199718475342,0.17833083868026733,-0.07658226788043976
1783245531130213400,5.03321337890625,0.8387744426727295,0.1912529319524765,-0.15495209395885468
1783245531140225300,5.043225341796875,0.8680508732795715,0.24799424409866333,-0.2387591004371643
1783245531150236400,5.053236328125,0.8707758188247681,0.3862167000770569,-0.33248305320739746
1783245531160248300,5.063248291015625,0.8486326932907104,0.5770497918128967,-0.4270572364330292
1783245531170260200,5.07326025390625,0.8021675944328308,0.7601622939109802,-0.5011090636253357
1783245531180271400,5.083271240234375,0.7332844138145447,0.8835085034370422,-0.5294027328491211
1783245531190283300,5.093283203125,0.6619400978088379,0.8879994750022888,-0.49793389439582825
1783245531200295200,5.103295166015625,0.6004874110221863,0.7855998873710632,-0.41691628098487854
1783245531210307300,5.113307373046875,0.5533673763275146,0.6130049228668213,-0.3033321499824524
1783245531220318200,5.123318115234375,0.5283405780792236,0.3633817434310913,-0.17243993282318115
1783245531230330000,5.133330078125,0.5242131948471069,0.07116501033306122,-0.04134789854288101
1783245531240342300,5.14334228515625,0.5271397233009338,-0.17915615439414978,0.0757526308298111
1783245531250353400,5.153353515625,0.5281802415847778,-0.3593299984931946,0.17509476840496063
1783245531260365300,5.163365234375,0.5005110502243042,-0.43134376406669617,0.2653231918811798
1783245531270377500,5.17337744140625,0.4491080343723297,-0.40832415223121643,0.3533523380756378
1783245531280388400,5.183388427734375,0.3939169645309448,-0.3161872923374176,0.42965003848075867
1783245531290400300,5.193400146484375,0.3407002389431,-0.1496882438659668,0.4893260598182678
1783245531300412200,5.203412109375,0.28866076469421387,0.08871181309223175,0.528903603553772
1783245531310423300,5.21342333984375,0.23608550429344177,0.3486517369747162,0.5415914058685303
1783245531320435200,5.223435302734375,0.2024790644645691,0.5810721516609192,0.529423713684082
1783245531330447000,5.233447021484375,0.19463960826396942,0.7471569180488586,0.4953659474849701
1783245531340459300,5.243459228515625,0.23457904160022736,0.8209190368652344,0.43776950240135193
1783245531350470400,5.253470458984375,0.3218104839324951,0.845754086971283,0.3619445562362671
1783245531360482300,5.263482421875,0.4544513523578644,0.8492343425750732,0.2713312804698944
1783245531370494500,5.273494384765625,0.6214474439620972,0.830410361289978,0.17258679866790771
1783245531380505300,5.28350537109375,0.8072141408920288,0.7865672707557678,0.07869705557823181
1783245531390517200,5.293517333984375,0.9953596591949463,0.724687397480011,-0.0005375533364713192
1783245531400529400,5.303529296875,1.1689562797546387,0.6666003465652466,-0.07032942026853561
1783245531410540300,5.313540283203125,1.315430760383606,0.6318204998970032,-0.13984744250774384
1783245531420552200,5.32355224609375,1.4201923608779907,0.6059500575065613,-0.210123211145401
1783245531430564000,5.333564208984375,1.4779735803604126,0.5779298543930054,-0.2746710777282715
1783245531440575500,5.343575439453125,1.4965342283248901,0.523186445236206,-0.3280853033065796
1783245531450587400,5.35358740234375,1.4940816164016724,0.4544484615325928,-0.37554019689559937
1783245531460599300,5.363599365234375,1.4857275485992432,0.39486899971961975,-0.4140428602695465
1783245531470610400,5.3736103515625,1.4855666160583496,0.32964110374450684,-0.44460564851760864
1783245531480622300,5.383622314453125,1.5043851137161255,0.24461303651332855,-0.45528119802474976
1783245531490634200,5.39363427734375,1.5381308794021606,0.13746027648448944,-0.44570162892341614
1783245531500645400,5.403645263671875,1.588889479637146,0.0410517118871212,-0.4185541570186615
1783245531510657300,5.4136572265625,1.63193941116333,-0.024675315245985985,-0.3825109899044037
1783245531520669200,5.423669189453125,1.6548188924789429,-0.07299783825874329,-0.3392980098724365
1783245531530681300,5.433681396484375,1.637909173965454,-0.09074701368808746,-0.3041189908981323
1783245531540692200,5.443692138671875,1.582772135734558,-0.05593070387840271,-0.2856110632419586
1783245531550704000,5.4537041015625,1.5018062591552734,0.004612660966813564,-0.2893225848674774
1783245531560716300,5.46371630859375,1.408270239830017,0.06009696051478386,-0.30608025193214417
1783245531570727400,5.4737275390625,1.322064995765686,0.1176401749253273,-0.33450847864151
1783245531580739300,5.4837392578125,1.2515513896942139,0.17950542271137238,-0.3638266921043396
1783245531590751200,5.493751220703125,1.1870477199554443,0.2551691234111786,-0.3840218186378479
1783245531600762400,5.503762451171875,1.1335680484771729,0.3460814654827118,-0.38646554946899414
1783245531610774300,5.513774169921875,1.0889357328414917,0.4109569787979126,-0.3885895311832428
1783245531620786200,5.5237861328125,1.0438542366027832,0.46352165937423706,-0.395526260137558
1783245531630797300,5.53379736328125,0.9905146956443787,0.48086681962013245,-0.4160115420818329
1783245531640809200,5.543809326171875,0.9345316290855408,0.46444016695022583,-0.44672444462776184
1783245531650821000,5.553821044921875,0.877170741558075,0.4212363362312317,-0.4852309226989746
1783245531660832300,5.563832275390625,0.8280482292175293,0.3552626371383667,-0.5268310904502869
1783245531670844400,5.573844482421875,0.7951768040657043,0.2640610635280609,-0.5602774620056152
1783245531680856300,5.583856201171875,0.7768856883049011,0.15400195121765137,-0.5727372765541077
1783245531690868500,5.593868408203125,0.7614428997039795,0.03792877495288849,-0.5572828650474548
1783245531700879400,5.60387939453125,0.7394358515739441,-0.07134498655796051,-0.5140688419342041
1783245531710891300,5.613891357421875,0.6922681331634521,-0.13253003358840942,-0.4444804787635803
1783245531720903400,5.6239033203125,0.6117881536483765,-0.15099398791790009,-0.34253811836242676
1783245531730914300,5.633914306640625,0.5182272791862488,-0.15417136251926422,-0.22809255123138428
1783245531740926200,5.64392626953125,0.4449631869792938,-0.14835980534553528,-0.11874555051326752
1783245531750938000,5.653938232421875,0.3767548203468323,-0.18408524990081787,-0.024834012612700462
1783245531760949200,5.66394921875,0.3027604818344116,-0.21518218517303467,0.04084113612771034
1783245531770961400,5.67396142578125,0.21302832663059235,-0.231082484126091,0.08989457041025162
1783245531780973300,5.683973388671875,0.10908220708370209,-0.2398461550474167,0.13487429916858673
1783245531790983700,5.693983642578125,0.009799783118069172,-0.2285110056400299,0.18820255994796753
1783245531800995600,5.70399560546875,-0.06872405856847763,-0.2257988452911377,0.2586921751499176
1783245531811007700,5.7140078125,-0.1032680794596672,-0.25412169098854065,0.3390846252441406
1783245531821018600,5.7240185546875,-0.09999505430459976,-0.3064405620098114,0.4116392731666565
1783245531831030500,5.734030517578125,-0.07679575681686401,-0.3269196152687073,0.4535226821899414
1783245531841042700,5.744042724609375,-0.05431974306702614,-0.32166069746017456,0.45760050415992737
1783245531851054600,5.7540546875,-0.05082659795880318,-0.2861618399620056,0.40532055497169495
1783245531861065700,5.764065673828125,-0.08424953371286392,-0.2406630665063858,0.3120422661304474
1783245531871077600,5.77407763671875,-0.14827857911586761,-0.1761075109243393,0.19738146662712097
1783245531881089800,5.78408984375,-0.2277342528104782,-0.10267723351716995,0.08868322521448135
1783245531891100700,5.7941005859375,-0.2553804814815521,-0.06968176364898682,0.07461031526327133
1783245531901112600,5.804112548828125,-0.3123902380466461,0.14383238554000854,0.08964759111404419
1783245531911124700,5.814124755859375,-0.4167681336402893,0.32513684034347534,0.11829742789268494
1783245531921135600,5.824135498046875,-0.5393955111503601,0.3789862394332886,0.1758241057395935
1783245531931147500,5.8341474609375,-0.6535964012145996,0.37101516127586365,0.24289655685424805
1783245531941159700,5.84415966796875,-0.727684736251831,0.29547086358070374,0.3204003870487213
1783245531951170600,5.854170654296875,-0.7437009811401367,0.20002830028533936,0.4185304045677185
1783245531961182700,5.8641826171875,-0.6916335225105286,0.07862596213817596,0.5176074504852295
1783245531971194600,5.874194580078125,-0.5663877129554749,-0.0727764442563057,0.6105928421020508
1783245531981205800,5.884205810546875,-0.3809371590614319,-0.19848351180553436,0.679459273815155
1783245531991217700,5.8942177734375,-0.1851063370704651,-0.24097667634487152,0.7000764608383179
1783245532001229800,5.904229736328125,0.03305875137448311,-0.2296193540096283,0.6491283178329468
1783245532011241700,5.91424169921875,0.25719112157821655,-0.20671910047531128,0.5447717905044556
1783245532021252600,5.924252685546875,0.43898090720176697,-0.16054654121398926,0.4033142924308777
1783245532031264500,5.934264404296875,0.5747297406196594,-0.10149978846311569,0.23486247658729553
1783245532041276700,5.944276611328125,0.6863684058189392,-0.13727323710918427,0.08452410250902176
1783245532051287600,5.95428759765625,0.7584735751152039,-0.11362157016992569,-0.047716088593006134
1783245532061299500,5.964299560546875,0.7808835506439209,0.03435058146715164,-0.1785968840122223
1783245532071311600,5.9743115234375,0.7724997997283936,0.21556924283504486,-0.3091401159763336
1783245532081322800,5.98432275390625,0.7523439526557922,0.3480026423931122,-0.43742138147354126
1783245532091334700,5.994334716796875,0.7572887539863586,0.40063291788101196,-0.5359565615653992
1783245532101346800,6.004346923828125,0.8013547658920288,0.4097513258457184,-0.5813964605331421
1783245532111357700,6.014357666015625,0.8749282360076904,0.3789501488208771,-0.5737168788909912
1783245532121369600,6.02436962890625,0.9431959986686707,0.30350199341773987,-0.5201092958450317
1783245532131381800,6.0343818359375,0.9983530044555664,0.16989447176456451,-0.43082529306411743
1783245532141392600,6.044392578125,1.0289546251296997,0.005346802528947592,-0.3224641978740692
1783245532151404500,6.054404541015625,1.0362486839294434,-0.1378602832555771,-0.21411868929862976
1783245532161416700,6.064416748046875,1.0319753885269165,-0.22708097100257874,-0.1293092519044876
1783245532171428600,6.0744287109375,1.0166252851486206,-0.2544701397418976,-0.0716966837644577
1783245532181439700,6.084439697265625,0.9921318888664246,-0.22314521670341492,-0.03194554150104523
1783245532191451600,6.09445166015625,0.9653906226158142,-0.1706925630569458,-0.0029241270385682583
1783245532201463800,6.1044638671875,0.9423433542251587,-0.08131048828363419,0.03988965228199959
1783245532211474700,6.114474609375,0.9412103295326233,0.0026828169357031584,0.08744850754737854
1783245532221486600,6.124486572265625,0.9660874605178833,0.0818796381354332,0.11707058548927307
1783245532231498800,6.134498779296875,1.0043232440948486,0.14144009351730347,0.12455041706562042
1783245532241509600,6.144509521484375,1.0338058471679688,0.1556059718132019,0.09958168864250183
1783245532251521500,6.154521484375,1.0693153142929077,0.1407177597284317,0.040501669049263
1783245532261533700,6.16453369140625,1.1119178533554077,0.1277497559785843,-0.04352239519357681
1783245532271544600,6.174544677734375,1.142824411392212,0.1194998174905777,-0.1351468563079834
1783245532281556500,6.184556396484375,1.1576851606369019,0.12961716949939728,-0.21750111877918243
1783245532291568600,6.194568603515625,1.1721136569976807,0.16349416971206665,-0.2782355844974518
1783245532301579800,6.204579833984375,1.202225685119629,0.21427319943904877,-0.31669187545776367
1783245532311591700,6.214591796875,1.2351787090301514,0.27483147382736206,-0.3394727110862732
1783245532321603800,6.224603759765625,1.258357286453247,0.3231382966041565,-0.34970536828041077
1783245532331615700,6.23461572265625,1.2628235816955566,0.3532918691635132,-0.3501867949962616
1783245532341626600,6.244626708984375,1.2557896375656128,0.3728030025959015,-0.34664371609687805
1783245532351638500,6.254638427734375,1.252537488937378,0.37778419256210327,-0.3398630619049072
1783245532361650700,6.264650634765625,1.2540017366409302,0.34931209683418274,-0.335025429725647
1783245532371661600,6.27466162109375,1.2550028562545776,0.2947254478931427,-0.3284742534160614
1783245532381673500,6.284673583984375,1.2522478103637695,0.23103725910186768,-0.31602129340171814
1783245532391685600,6.294685546875,1.2511495351791382,0.18413010239601135,-0.30131417512893677
1783245532401696800,6.30469677734375,1.252289056777954,0.16355851292610168,-0.2957553565502167
1783245532411708700,6.314708740234375,1.265943169593811,0.12565253674983978,-0.28706100583076477
1783245532421720800,6.324720947265625,1.2757092714309692,0.11518631130456924,-0.27550530433654785
1783245532431731700,6.334731689453125,1.273964762687683,0.16202610731124878,-0.26056215167045593
1783245532441743600,6.34474365234375,1.2592518329620361,0.23063792288303375,-0.24327558279037476
1783245532451755800,6.354755859375,1.235167145729065,0.29703328013420105,-0.2227134108543396
1783245532461766700,6.3647666015625,1.2006052732467651,0.3603089451789856,-0.20521138608455658
1783245532471778600,6.374778564453125,1.1596235036849976,0.4158109724521637,-0.1879606544971466
1783245532481790500,6.38479052734375,1.108577847480774,0.46109482645988464,-0.16121426224708557
1783245532491802600,6.394802734375,1.0618420839309692,0.5108640789985657,-0.12754105031490326
1783245532501813800,6.404813720703125,1.0276119709014893,0.5483728051185608,-0.0840471088886261
1783245532511825700,6.41482568359375,1.0057600736618042,0.5648856163024902,-0.03404638543725014
1783245532521837800,6.424837890625,1.0122019052505493,0.5436162948608398,0.01907062903046608
1783245532531848700,6.4348486328125,1.0518066883087158,0.5233761072158813,0.05794572830200195
1783245532541860600,6.444860595703125,1.1111201047897339,0.5455711483955383,0.06247656047344208
1783245532551872800,6.454872802734375,1.1573755741119385,0.5972092747688293,0.03076738491654396
1783245532561883600,6.464883544921875,1.168599247932434,0.668060839176178,-0.04023275524377823
1783245532571895600,6.4748955078125,1.1674011945724487,0.7523037195205688,-0.13275115191936493
1783245532581907700,6.48490771484375,1.183294653892517,0.8293899893760681,-0.23866400122642517
1783245532591918600,6.494918701171875,1.2425917387008667,0.8934389352798462,-0.3283352255821228
1783245532601930500,6.504930419921875,1.3424935340881348,0.9087504744529724,-0.3869495391845703
1783245532611942700,6.514942626953125,1.461929202079773,0.8541132807731628,-0.4072192907333374
1783245532621953800,6.524953857421875,1.570235252380371,0.7602038383483887,-0.3917497992515564
1783245532631965700,6.534965576171875,1.659749150276184,0.6279608607292175,-0.34563902020454407
1783245532641977600,6.5449775390625,1.7288908958435059,0.4970278739929199,-0.29594817757606506
1783245532651988700,6.55498876953125,1.7770049571990967,0.3431756794452667,-0.23727203905582428
1783245532662000600,6.565000732421875,1.7980942726135254,0.2382979840040207,-0.17969556152820587
1783245532672012500,6.575012451171875,1.787695050239563,0.22201639413833618,-0.13484543561935425
1783245532682024700,6.585024658203125,1.7598178386688232,0.2377743273973465,-0.10258044302463531
1783245532692035600,6.59503564453125,1.7248719930648804,0.21976056694984436,-0.08672969788312912
1783245532702047500,6.605047607421875,1.6980820894241333,0.20627112686634064,-0.07614043354988098
1783245532712059600,6.6150595703125,1.691616177558899,0.22111621499061584,-0.06735717505216599
1783245532722070800,6.62507080078125,1.7066420316696167,0.2156306356191635,-0.0611988827586174
1783245532732082700,6.635082763671875,1.7330718040466309,0.20424793660640717,-0.056717511266469955
1783245532742094800,6.6450947265625,1.7605273723602295,0.20864801108837128,-0.06304837763309479
1783245532752105700,6.655105712890625,1.7889888286590576,0.24613791704177856,-0.08745842427015305
1783245532762117600,6.66511767578125,1.8026106357574463,0.3091171383857727,-0.12853741645812988
1783245532772129800,6.6751298828125,1.791210412979126,0.3875240087509155,-0.18715620040893555
1783245532782140700,6.685140625,1.7609717845916748,0.44923505187034607,-0.261501282453537
1783245532792153300,6.6951533203125,1.7384330034255981,0.4977879822254181,-0.34261319041252136
1783245532802165500,6.70516552734375,1.7401031255722046,0.5497454404830933,-0.42047950625419617
1783245532812177400,6.715177490234375,1.7726410627365112,0.5883687138557434,-0.48519426584243774
1783245532822188300,6.725188232421875,1.8294332027435303,0.596036434173584,-0.5409160852432251
1783245532832200200,6.7352001953125,1.8964072465896606,0.5894877910614014,-0.581386148929596
1783245532842212400,6.74521240234375,1.9724035263061523,0.5397447347640991,-0.6129733324050903
1783245532852223500,6.755223388671875,2.0536272525787354,0.43353894352912903,-0.6307885050773621
1783245532862235400,6.7652353515625,2.1421494483947754,0.2971488833427429,-0.6419575810432434
1783245532872247600,6.77524755859375,2.2194604873657227,0.17885228991508484,-0.6570653915405273
1783245532882258400,6.785258544921875,2.2656443119049072,0.08154438436031342,-0.6684525012969971
1783245532892270300,6.795270263671875,2.274109363555908,-0.021023843437433243,-0.6704165935516357
1783245532902282500,6.805282470703125,2.249650716781616,-0.09458008408546448,-0.6594257354736328
1783245532912293400,6.81529345703125,2.202690839767456,-0.15149404108524323,-0.6347103714942932
1783245532922305300,6.82530517578125,2.1522233486175537,-0.13345351815223694,-0.6045389175415039
1783245532932317400,6.8353173828125,2.0973150730133057,-0.105476975440979,-0.5737914443016052
1783245532942328600,6.84532861328125,2.04642915725708,-0.047416865825653076,-0.5452468991279602
1783245532952340500,6.855340576171875,2.005392551422119,0.001421949127689004,-0.5155424475669861
1783245532962352600,6.8653525390625,1.9766424894332886,0.021890204399824142,-0.4793729782104492
1783245532972363500,6.875363525390625,1.9562671184539795,0.04234796389937401,-0.4408971071243286
1783245532982375400,6.88537548828125,1.9398162364959717,0.037686631083488464,-0.40321871638298035
1783245532992387300,6.89538720703125,1.92593514919281,0.003938338719308376,-0.39095839858055115
1783245533002399500,6.9053994140625,1.907118320465088,0.005374315194785595,-0.4210585057735443
1783245533012410400,6.915410400390625,1.8793786764144897,0.0034844628535211086,-0.487384170293808
1783245533022422300,6.92542236328125,1.8237732648849487,0.0015866942703723907,-0.5565555691719055
1783245533032434400,6.935434326171875,1.736297607421875,0.03580210730433464,-0.5875974893569946
1783245533042445300,6.9454453125,1.6353172063827515,0.10094728320837021,-0.5602226257324219
1783245533052457200,6.955457275390625,1.5337251424789429,0.14275646209716797,-0.501359224319458
1783245533062469400,6.965469482421875,1.454719066619873,0.12204425036907196,-0.43329229950904846
1783245533072480500,6.97548046875,1.3860012292861938,0.05410139262676239,-0.3738609254360199
1783245533082492400,6.985492431640625,1.305227518081665,-0.016927508637309074,-0.32137802243232727
1783245533092504600,6.995504638671875,1.2075694799423218,-0.06539404392242432,-0.26923975348472595
1783245533102515500,7.005515380859375,1.0970033407211304,-0.08002997934818268,-0.21566708385944366
1783245533112527400,7.01552734375,0.9989328384399414,-0.03898040950298309,-0.1617342084646225
1783245533122539500,7.02553955078125,0.9238393902778625,0.05520361289381981,-0.09828387200832367
1783245533132550400,7.03555029296875,0.855593204498291,0.19268804788589478,-0.03147239610552788
1783245533142562300,7.045562255859375,0.7650460004806519,0.3950997292995453,0.04795824736356735
1783245533152574200,7.05557421875,0.6676537394523621,0.5795512199401855,0.14396849274635315
1783245533162586400,7.06558642578125,0.5753270387649536,0.6459566354751587,0.2532837986946106
1783245533172597500,7.075597412109375,0.485577791929245,0.6482594013214111,0.37076863646507263
1783245533182609400,7.085609375,0.4150967001914978,0.5920683145523071,0.48191168904304504
1783245533192621600,7.09562158203125,0.34339097142219543,0.5140337347984314,0.5785814523696899
1783245533202632400,7.105632568359375,0.26999372243881226,0.4533109962940216,0.6514676809310913
1783245533212644400,7.115644287109375,0.2132345736026764,0.40285295248031616,0.6779724359512329
1783245533222656500,7.125656494140625,0.20178990066051483,0.3326565623283386,0.6577150821685791
1783245533232667400,7.13566748046875,0.23016227781772614,0.2861974537372589,0.6096266508102417
1783245533242679300,7.14567919921875,0.2897622287273407,0.28110283613204956,0.5450484752655029
1783245533252691500,7.15569140625,0.3689252436161041,0.30592745542526245,0.4648255705833435
1783245533262702600,7.16570263671875,0.4318922162055969,0.37539175152778625,0.369154155254364
1783245533272714500,7.175714599609375,0.44417306780815125,0.47954022884368896,0.2699703276157379
1783245533282726400,7.185726318359375,0.4084366261959076,0.5693390965461731,0.15534576773643494
1783245533292737500,7.195737548828125,0.36309614777565,0.5802651643753052,0.04967507719993591
1783245533302749400,7.20574951171875,0.3473605811595917,0.5269721150398254,-0.030111361294984818
1783245533312761300,7.21576123046875,0.38065847754478455,0.4355013072490692,-0.08436024188995361
1783245533322772500,7.2257724609375,0.46424123644828796,0.303640753030777,-0.11083286255598068
1783245533332784400,7.235784423828125,0.5724335312843323,0.16126510500907898,-0.11389640718698502
1783245533342796300,7.24579638671875,0.6924867033958435,0.05380202829837799,-0.10214520990848541
1783245533352808400,7.255808349609375,0.8084449768066406,-0.0019863485358655453,-0.08737004548311234
1783245533362819300,7.2658193359375,0.9029917120933533,-0.0067872293293476105,-0.08678308874368668
1783245533372831200,7.275831298828125,0.9777616858482361,-0.004577265121042728,-0.09522750973701477
1783245533382843400,7.285843505859375,1.0231091976165771,0.000036395154893398285,-0.10199806839227676
1783245533392854500,7.2958544921875,1.0477638244628906,-0.03102562390267849,-0.09977889060974121
1783245533402866400,7.305866455078125,1.0646361112594604,-0.09321177005767822,-0.09163201600313187
1783245533412878600,7.315878662109375,1.071345567703247,-0.17862413823604584,-0.08059854060411453
1783245533422889500,7.325889404296875,1.0615981817245483,-0.240982323884964,-0.0674063041806221
1783245533432901400,7.3359013671875,1.0358753204345703,-0.31382325291633606,-0.04975801706314087
1783245533442913300,7.345913330078125,1.012963891029358,-0.3834814429283142,-0.037874460220336914
1783245533452924400,7.35592431640625,1.0043030977249146,-0.42686817049980164,-0.03483753651380539
1783245533462936300,7.365936279296875,0.9930289387702942,-0.4255962371826172,-0.038361165672540665
1783245533472948200,7.3759482421875,0.977580189704895,-0.39223426580429077,-0.03672097250819206
1783245533482959600,7.385959716796875,0.9678942561149597,-0.29678553342819214,-0.03453025594353676
1783245533492971500,7.395971435546875,0.9559888243675232,-0.16574861109256744,-0.042340029031038284
1783245533502983400,7.4059833984375,0.9434011578559875,-0.03778399899601936,-0.06362241506576538
1783245533512995600,7.41599560546875,0.9411038756370544,0.08574790507555008,-0.09845320135354996
1783245533523006500,7.42600634765625,0.9532214999198914,0.19583846628665924,-0.15708188712596893
1783245533533018400,7.436018310546875,0.9734795689582825,0.3039916753768921,-0.22518891096115112
1783245533543030500,7.446030517578125,0.9836390018463135,0.37488529086112976,-0.2872743606567383
1783245533553041400,7.45604150390625,0.9929171204566956,0.4037288725376129,-0.3353819251060486
1783245533563053300,7.46605322265625,1.013205885887146,0.40829113125801086,-0.36384978890419006
1783245533573065500,7.4760654296875,1.0484213829040527,0.35965192317962646,-0.36027073860168457
1783245533583076400,7.486076416015625,1.093981146812439,0.24498897790908813,-0.33287984132766724
1783245533593088500,7.496088623046875,1.1509840488433838,0.09109992533922195,-0.2826220989227295
1783245533603100400,7.506100341796875,1.2030943632125854,-0.05065108463168144,-0.2169935703277588
1783245533613111600,7.516111572265625,1.2457175254821777,-0.14800134301185608,-0.15433761477470398
1783245533623123500,7.52612353515625,1.270196795463562,-0.16886135935783386,-0.10582493245601654
1783245533633135400,7.53613525390625,1.2649930715560913,-0.13522440195083618,-0.08244256675243378
1783245533643146500,7.546146484375,1.240275263786316,-0.09453210234642029,-0.08397148549556732
1783245533653158400,7.556158447265625,1.2057209014892578,-0.05735189840197563,-0.09659122675657272
1783245533663170300,7.56617041015625,1.172014832496643,-0.023801127448678017,-0.10295937955379486
1783245533673181200,7.57618115234375,1.148146629333496,0.004157177172601223,-0.09827850759029388
1783245533683193300,7.586193359375,1.1338847875595093,0.027175145223736763,-0.09079955518245697
1783245533693205200,7.596205322265625,1.1335091590881348,0.04081210866570473,-0.09126611053943634
1783245533703217400,7.606217529296875,1.151053547859192,0.03511001542210579,-0.10227162390947342
1783245533713228500,7.616228515625,1.1706782579421997,-0.0042434632778167725,-0.12834906578063965
1783245533723240400,7.626240478515625,1.19127357006073,-0.058309365063905716,-0.17199347913265228
1783245533733252600,7.636252685546875,1.1969050168991089,-0.08117984235286713,-0.21721845865249634
1783245533743263500,7.646263427734375,1.1797058582305908,-0.0697207972407341,-0.25042808055877686
1783245533753275400,7.656275390625,1.131211757659912,-0.026963427662849426,-0.2643977403640747
1783245533763287300,7.666287353515625,1.060608983039856,0.03536572679877281,-0.25734251737594604
1783245533773298400,7.67629833984375,0.9784101247787476,0.05748821049928665,-0.23435530066490173
1783245533783310300,7.686310302734375,0.9015297293663025,0.0690830871462822,-0.2104526311159134
1783245533793321700,7.69632177734375,0.84776371717453,0.0930367261171341,-0.18880228698253632
1783245533803332900,7.706332763671875,0.8271633386611938,0.10827027261257172,-0.17469047009944916
1783245533813344800,7.7163447265625,0.8390544652938843,0.10082121938467026,-0.16573673486709595
1783245533823357000,7.72635693359375,0.8780519366264343,0.08533120900392532,-0.1648925095796585
1783245533833367800,7.736367919921875,0.9191011786460876,0.07675237953662872,-0.16833120584487915
1783245533843379700,7.746379638671875,0.949861466884613,0.04862380400300026,-0.18717040121555328
1783245533853392000,7.756391845703125,0.9569202065467834,0.006698310375213623,-0.2221633791923523
1783245533863403800,7.76640380859375,0.933045506477356,-0.027811728417873383,-0.2720681130886078
1783245533873414700,7.77641455078125,0.896287202835083,-0.04861447960138321,-0.3259747326374054
1783245533883426600,7.786426513671875,0.8627814650535583,-0.048942580819129944,-0.38358211517333984
1783245533893438700,7.796438720703125,0.8361852169036865,-0.027777811512351036,-0.4377053678035736
1783245533903449900,7.806449951171875,0.8053873777389526,-0.015860166400671005,-0.4846467673778534
1783245533913461800,7.816461669921875,0.765103816986084,-0.018129456788301468,-0.4921414256095886
1783245533923474000,7.826473876953125,0.7628443837165833,0.018517503514885902,-0.35511672496795654
1783245533933484800,7.83648486328125,0.7850634455680847,0.1838366687297821,-0.14266008138656616
1783245533943496700,7.84649658203125,0.7857058048248291,0.4082780182361603,0.06329147517681122
1783245533953508900,7.8565087890625,0.7264648675918579,0.5902984738349915,0.15764084458351135
1783245533963519700,7.866519775390625,0.656903862953186,0.6475982069969177,0.14038115739822388
1783245533973531600,7.87653173828125,0.6374126076698303,0.5787590146064758,0.047321006655693054
1783245533983543800,7.886543701171875,0.6879444718360901,0.4410223960876465,-0.11518747359514236
1783245533993555000,7.896554931640625,0.7780418395996094,0.27507781982421875,-0.32212886214256287
1783245534003566800,7.90656689453125,0.8587473034858704,0.10637004673480988,-0.5102622509002686
1783245534013579000,7.9165791015625,0.9216935634613037,-0.04008724167943001,-0.6256272792816162
