time,seconds_elapsed,z,y,x
1783245716196886500,0.066886474609375,0.6684627401769161,-0.7909078011065721,0.8662843829996884
1783245716206898400,0.0768984375,0.47859775544703004,-0.776993257522583,1.0632977781794966
1783245716216910600,0.08691064453125,0.2825964599192142,-0.841505769443512,1.2066872082646936
1783245716226922500,0.096922607421875,0.0034837504625320433,-0.9826941092878579,1.3022688852533697
1783245716236934400,0.106934326171875,-0.3637748599588871,-1.2949971406847238,1.2896437969580292
1783245716246946600,0.116946533203125,-0.5751075801312923,-1.6331693573534487,1.2058754534903913
1783245716256958500,0.12695849609375,-0.67972004725039,-1.9626058943808078,1.1738005454462022
1783245716266970600,0.136970703125,-0.5119733708262443,-2.226093749204278,1.2754206258162855
1783245716276982500,0.146982421875,-0.09597849428653717,-2.308241286537051,1.3093772559538484
1783245716286994400,0.156994384765625,0.34348025994896886,-2.1805098096370696,1.2289534736737608
1783245716297006600,0.167006591796875,0.6418640715867281,-1.996220579212904,1.0475734086945652
1783245716307018500,0.1770185546875,0.8899369151353835,-1.9150719897896051,0.7171035100314765
1783245716317030400,0.187030517578125,1.1226233889818191,-1.9638152701705693,0.2711893691115081
1783245716327042600,0.19704248046875,1.3472925605893133,-2.0256611932307482,-0.15536474923491478
1783245716337054500,0.207054443359375,1.4358897124528884,-1.9649919127345084,-0.3814795896060765
1783245716347066600,0.217066650390625,1.4060907865166663,-1.8786995306819676,-0.4434910784915089
1783245716357078500,0.22707861328125,1.36723586294353,-1.8114736681491135,-0.48902065752297635
1783245716367090400,0.23709033203125,1.2579495587944984,-1.8930121336728334,-0.6784498811841011
1783245716377102600,0.2471025390625,1.254846916604042,-2.0327888531535865,-1.0033701098307966
1783245716387114500,0.257114501953125,1.2128279760420322,-2.0897937659233805,-1.3341473939426243
1783245716397126400,0.26712646484375,0.9886252529025077,-1.9814666621953247,-1.4973336305834353
1783245716407138600,0.277138671875,0.7599176195591688,-1.7009511002033948,-1.5634681907482444
1783245716417150500,0.287150390625,0.6628571752548217,-1.336976333758235,-1.6537337142154573
1783245716427162600,0.29716259765625,0.6418553037583827,-1.0498708719819783,-1.8334885160803793
1783245716437174500,0.307174560546875,0.7259311788052321,-0.843141261690855,-2.022252699961513
1783245716447186400,0.3171865234375,0.6844821470856666,-0.7130693591445684,-2.155204249597341
1783245716457198600,0.327198486328125,0.5652326673269271,-0.587385462424159,-2.2465954160936175
1783245716467210500,0.33721044921875,0.4484866948217153,-0.3502554531723261,-2.2869543144889173
1783245716477222400,0.347222412109375,0.1420131002306938,-0.06813947024643421,-2.180960037622601
1783245716487234600,0.357234619140625,-0.2613566880136728,0.034492052188515664,-1.9476758901439606
1783245716497246500,0.36724658203125,-0.11292729099988937,0.310156082496047,-2.020852770035714
1783245716507258600,0.377258544921875,0.20268822594583033,0.2243909391880035,-2.509848439247906
1783245716517270500,0.3872705078125,-0.19549568409323692,-0.3840349731773138,-2.6354537177741526
1783245716527282400,0.397282470703125,0.29284780482053757,-0.12740122203230858,-2.7113062466159463
1783245716537294600,0.407294677734375,0.6086392628550529,0.056606853362917896,-2.8341502437353134
1783245716547306500,0.417306396484375,0.5932932251632214,0.08533961137235165,-2.840551927471161
1783245716557318400,0.427318359375,0.5406096827238798,0.3611690613746643,-2.641800164191425
1783245716567330600,0.43733056640625,0.6983405765682459,0.8294786470413208,-2.3119116456128657
1783245716577341400,0.447341552734375,0.953551601433754,1.2233365105748175,-2.0051634718641638
1783245716587353300,0.457353271484375,1.1191460682600736,1.3635901999175548,-1.7943799100071192
1783245716597365500,0.467365478515625,1.2396481784284115,1.2080150228023527,-1.8004931321904063
1783245716607377400,0.47737744140625,1.3284598498255014,0.9566296937048435,-1.927923580317199
1783245716617389600,0.4873896484375,1.1740379343986511,0.7523679348319768,-2.1220216725721954
1783245716627401500,0.4974013671875,0.9653075056791305,0.6354629723727703,-2.145400502333045
1783245716637413400,0.507413330078125,1.0037544329732655,0.83317282538414,-1.9263962246194481
1783245716647425500,0.517425537109375,0.9615992988109588,1.162769521409273,-1.7963336744233964
1783245716657437400,0.5274375,0.7466571559697389,1.4392664954096077,-1.8476275160700082
1783245716667449600,0.53744970703125,0.4869558339476585,1.6710048747509716,-1.9382161340117454
1783245716677461500,0.54746142578125,0.19821195731461047,1.7738637762010097,-2.0361901860296725
1783245716687473400,0.557473388671875,0.016570611050724982,1.6156214257031678,-2.3003601778984066
1783245716697485600,0.567485595703125,0.1843243017375469,1.351077339825034,-2.797606227453053
1783245716707497500,0.57749755859375,0.22777415188550948,1.2171996152549982,-3.1149203650102018
1783245716717509600,0.587509521484375,0.24643735130131242,1.0141182983383537,-3.4645667463734746
1783245716727521500,0.597521484375,0.3266191415190697,0.8088169672846793,-3.693972298853099
1783245716737533700,0.60753369140625,0.37402854294776916,0.6873658858284354,-3.7878222566783424
1783245716747545600,0.617545654296875,0.4106307191580534,0.5551426504671574,-3.765129655615985
1783245716757557500,0.6275576171875,0.5648872148901224,0.41221565026193857,-3.605917875564098
1783245716767569700,0.637569580078125,0.7959370274454355,0.3886757847204804,-3.2910973083883523
1783245716777581600,0.64758154296875,0.8816419649988413,0.4615680024519562,-2.910357285103202
1783245716787593700,0.65759375,0.7789052286237478,0.5389826660439372,-2.5051760635226965
1783245716797605600,0.667605712890625,0.5765870050340891,0.40028468171060083,-2.240096263332665
1783245716807617500,0.677617431640625,0.4457973096072674,0.20293723227083682,-2.0037617883726955
1783245716817629700,0.687629638671875,0.18274492359161376,0.15800912626385688,-1.6395499983012676
1783245716827641600,0.6976416015625,-0.19146832827329635,0.19133651858717202,-1.174674186475575
1783245716837653800,0.70765380859375,-0.3955459627509117,0.3653910629838705,-0.7158201191574335
1783245716847665700,0.717665771484375,-0.5244739559590816,0.6565130669251084,-0.2564914200648665
1783245716857677600,0.727677490234375,-0.6067787296801805,0.8656634746223688,0.16354133368879556
1783245716867689700,0.737689697265625,-0.4410556680381298,0.9589444003880023,0.475255751542747
1783245716877701600,0.74770166015625,-0.1888479166418314,0.8893202445417642,0.7199474282205104
1783245716887713500,0.757713623046875,0.03880173208117485,0.7548942384392022,0.9540765020906925
1783245716897725700,0.7677255859375,0.2613350607037544,0.6795704096466303,1.001690778441727
1783245716907737600,0.777737548828125,0.5238537782341242,0.5876829840660095,0.8393237492293119
1783245716917749800,0.787749755859375,0.637408845743537,0.53066871894598,0.7089803362652659
1783245716927761700,0.79776171875,0.49142391927242274,0.4540834919154644,0.6796855604588985
1783245716937773600,0.807773681640625,0.35660394541621204,0.4774538461089134,0.739047850009799
1783245716947785700,0.81778564453125,0.24535072510838507,0.4840466685026884,0.8120140097603201
1783245716957797600,0.827797607421875,0.08665127849280833,0.33711773917973037,0.8022694453373551
1783245716967809500,0.8378095703125,-0.08075988236665725,0.05802022729218006,0.7488865224570036
1783245716977821700,0.84782177734375,-0.27872517144382,-0.27613398590683935,0.77398676918298
1783245716987833600,0.85783349609375,-0.5413093554258346,-0.5942541791498661,0.8459738547682761
1783245716997845500,0.867845458984375,-0.8617010007321834,-0.8598147485941648,1.0032143347471951
1783245717007856600,0.877856689453125,-1.303611239773035,-0.9809124865680933,1.255145315028727
1783245717017868500,0.88786865234375,-1.798382131385803,-0.9513105445086956,1.528424788287282
1783245717027880400,0.89788037109375,-2.1832962254852055,-0.8188163832515478,1.7376327713906763
1783245717037892600,0.907892578125,-2.483042557647824,-0.682226477113366,1.9110899344161152
1783245717047904500,0.917904541015625,-2.724117505133152,-0.6499485938429832,2.069683290308714
1783245717057916400,0.92791650390625,-2.7641864806711673,-0.6486193910658359,2.1177526169508694
1783245717067928600,0.937928466796875,-2.4689327837526798,-0.4878472298294306,2.1757111771836875
1783245717077940500,0.9479404296875,-2.279509113049507,-0.6314250951588154,2.1763211257755755
1783245717087952400,0.957952392578125,-2.1389164010107518,-0.6329162104994058,2.2355624192953107
1783245717097964500,0.967964599609375,-1.8629145170509813,-0.5229413395643234,2.2739280980467793
1783245717107976400,0.9779765625,-1.6220529200553893,-0.4538461760282516,2.3768042428925633
1783245717117988600,0.987988525390625,-1.4848323147982359,-0.6124065064340829,2.337945227666199
1783245717128000500,0.99800048828125,-1.50987147898674,-0.8622270704329014,2.156803355357051
1783245717138012400,1.008012451171875,-1.7159540235459803,-1.050589833906293,1.9315987616986035
1783245717148024600,1.018024658203125,-1.9109008415848017,-1.0765583878993987,1.8086966046512125
1783245717158036500,1.028036376953125,-1.8618313979893921,-0.8594166891872882,1.9016338315457104
1783245717168048400,1.03804833984375,-1.5877309637367725,-0.5426368046373129,2.1851015213415024
1783245717178060500,1.048060546875,-1.1639619460642336,-0.3430564815789461,2.464458268687129
1783245717188072400,1.058072509765625,-0.6290858385562896,-0.2647387316673994,2.664662568862736
1783245717198084600,1.068084716796875,-0.1609790819853544,-0.12164075880944727,2.8123537147298454
1783245717208096500,1.078096435546875,0.05719195977449417,-0.00945171895623207,2.837647438201308
1783245717218108400,1.0881083984375,0.30143676946759224,-0.05318740030825138,2.5705834784567356
1783245717228120600,1.09812060546875,0.22577391797900198,-0.005371756166219711,2.388560439398885
1783245717238132500,1.108132568359375,-0.15314882675111294,0.21951894923746584,2.295257301801443
1783245717248144400,1.118144287109375,-0.44165480297505855,0.5248065489143133,2.22694715116322
1783245717258156500,1.128156494140625,-0.6927052010297775,0.8502566466540098,2.1213198079131543
1783245717268168400,1.13816845703125,-1.0046201098918914,1.1312468404203653,2.0081829658158123
1783245717278180600,1.1481806640625,-1.2827221810013054,1.3997382026195526,1.8429399427756665
1783245717288192500,1.158192626953125,-1.4349977320492266,1.5932126100182533,1.5839457461096345
1783245717298204400,1.168204345703125,-1.4570108264148234,1.6772750410616397,1.318667354607582
1783245717308216600,1.178216552734375,-1.3200906654089688,1.7029191854059695,1.1589392955966293
1783245717318228500,1.188228515625,-1.0268097298681735,1.7061480843245982,1.1763427042096852
1783245717328240400,1.198240478515625,-0.5974491757988929,1.802153466618061,1.298509678850323
1783245717338252500,1.20825244140625,-0.08622282394766807,1.9449445654839277,1.375223646827042
1783245717348264400,1.218264404296875,0.38623686713576316,1.9704057544767855,1.2296831031225621
1783245717358276600,1.228276611328125,0.8211644076824188,1.7907511981159447,0.910961144594103
1783245717368288500,1.23828857421875,1.2028081018090246,1.506182561340928,0.5694660671129822
1783245717378300400,1.248300537109375,1.5227870746612548,1.2947194927871226,0.325153599011153
1783245717388311300,1.258311279296875,1.7192027962088583,1.1921101821839808,0.16987302092835307
1783245717398323500,1.268323486328125,1.8183441384404897,0.9988397729247808,0.023946838907152414
1783245717408335400,1.27833544921875,1.8121078743994234,0.7408627904772758,-0.08490458095595241
1783245717418347500,1.288347412109375,1.6701602406203746,0.6423164915293454,-0.07675985294505953
1783245717428359400,1.298359375,1.4921493598133324,0.7867816610872745,-0.016851473818719386
1783245717438371300,1.308371337890625,1.3535779244691133,1.0269500151216984,-0.02473762395866215
1783245717448383500,1.318383544921875,1.2797510562360286,1.2109691964328289,-0.11192388611100614
1783245717458395400,1.3283955078125,1.124428977099061,1.261380117765069,-0.14852124001570044
1783245717468407300,1.3384072265625,1.0342425102174282,1.1603519388735293,-0.11310966182947157
1783245717478419500,1.34841943359375,1.1297931344807148,1.0253455025345086,0.013280410398915409
1783245717488431400,1.358431396484375,1.034149571236968,0.9972498733848333,0.2918867047034204
1783245717498443500,1.368443603515625,1.2386591673910616,0.728161714336276,0.3419940399792045
1783245717508455400,1.378455322265625,1.3495944077908992,0.5458949296504259,0.5275452531632036
1783245717518467300,1.38846728515625,1.1994634675562381,0.4360965843260288,0.6695320499088615
1783245717528479500,1.3984794921875,1.093156471478939,0.4327677321642637,0.810138352081552
1783245717538491400,1.408491455078125,0.9697498720407486,0.41837914132773873,0.8631577023465186
1783245717548503300,1.41850341796875,0.8676555252224206,0.33708383691012855,0.842366697121784
1783245717558515500,1.428515380859375,0.7738958760291338,0.19238135146498678,0.7639831884976476
1783245717568527400,1.43852734375,0.7210761399894953,0.06355448054373264,0.7022847841493784
1783245717578539500,1.44853955078125,0.8043792770981788,0.10719430030584334,0.710818584543094
1783245717588551400,1.458551513671875,0.6814461403906344,0.17580957137048245,0.7490692586127669
1783245717598563300,1.468563232421875,0.5696078136712313,0.1649491546601057,0.7308662240546197
1783245717608575500,1.478575439453125,0.7751093434721231,-0.003022562691569328,0.5650322493840009
1783245717618587400,1.48858740234375,0.7045511216461658,-0.24957798741459844,0.3433722695298493
1783245717628599300,1.498599365234375,0.6392553503930568,-0.33970892471671105,0.21297318085581063
1783245717638611500,1.508611572265625,0.715462976282835,-0.4096376164674759,0.07574651118405162
1783245717648623400,1.518623291015625,0.675876231303811,-0.46624680791795253,-0.12556377747207878
1783245717658635300,1.52863525390625,0.5992647007882594,-0.5391016162484884,-0.4091507097333669
1783245717668647400,1.5386474609375,0.5447089347362518,-0.6762976715862751,-0.7318379916962235
1783245717678659300,1.548659423828125,0.479858569163084,-0.8953525104433298,-1.034482967909798
1783245717688671500,1.55867138671875,0.3904956936240196,-1.1114093365281819,-1.204392009999603
1783245717698683400,1.568683349609375,0.28510055169463155,-1.2364222021192313,-1.301807697482407
1783245717708695300,1.5786953125,0.21930618326961993,-1.3170090660065412,-1.3386544961035252
1783245717718707500,1.58870751953125,0.1341045190632343,-1.3630688063919543,-1.2980531672544777
1783245717728719400,1.59871923828125,0.1052092639684677,-1.4064648805260658,-1.2676418085083365
1783245717738730500,1.60873046875,0.17727964392304418,-1.4935013589441775,-1.3222063423886894
1783245717748742700,1.61874267578125,0.21634791798591613,-1.577975877919793,-1.3751030891872942
1783245717758754600,1.628754638671875,0.22635610178112983,-1.603347635063529,-1.3646576830185948
1783245717768766500,1.638766357421875,0.25943711812794207,-1.5978770946979521,-1.3542694138646125
1783245717778778600,1.648778564453125,0.16967618318200112,-1.587284389013052,-1.4026152193605899
1783245717788790500,1.65879052734375,-0.01914192284345627,-1.5799667594760656,-1.4909072507977486
1783245717798802400,1.668802490234375,-0.1683867278933525,-1.6117682574063539,-1.7428367697745561
1783245717808814600,1.678814697265625,-0.3877425955235958,-1.6191396629571915,-2.1489260461106894
1783245717818826500,1.688826416015625,-0.7855553341627121,-1.4159429029673336,-2.449311406829208
1783245717828838700,1.698838623046875,-1.1308955427646636,-0.9075929833352565,-2.599965932546556
1783245717838850600,1.7088505859375,-1.3398118494451046,-0.32114450950026513,-2.806000546310842
1783245717848862500,1.718862548828125,-1.5255401727616786,0.04615092580020427,-3.210232796603441
1783245717858874600,1.72887451171875,-1.8269512232661247,0.12374503761231899,-3.768888423627615
1783245717868886500,1.738886474609375,-2.0696096405506132,0.2149164238780737,-4.13348687492907
1783245717878898400,1.7488984375,-2.2790496788442134,0.4586269805639982,-4.06486371281892
1783245717888910600,1.75891064453125,-2.4493425326198337,0.7947247290462255,-3.6628526457071304
1783245717898922500,1.768922607421875,-2.3610259512633083,1.1165274101942777,-3.20764278011024
1783245717908934700,1.7789345703125,-2.087810483151674,1.3063409569978712,-2.8045579462870953
1783245717918946600,1.788946533203125,-1.7590578367352485,1.4637550399780273,-2.5202134736567734
1783245717928958500,1.79895849609375,-1.481325767982006,1.561207698470354,-2.3839602521270513
1783245717938970600,1.808970703125,-1.2670078945189713,1.6052391478985546,-2.3596733676105734
1783245717948982500,1.818982421875,-1.076128764310479,1.5835340965688227,-2.307976498121023
1783245717958994400,1.828994384765625,-0.878181010890007,1.5345523312568663,-2.235804411357641
1783245717969006600,1.839006591796875,-0.8011410258293151,1.6211182695537805,-2.096478065992892
1783245717979018500,1.8490185546875,-0.7920709996670484,1.8371236577123402,-1.8758891494363545
1783245717989030700,1.85903076171875,-0.7943523886024951,2.0978268502533433,-1.7342558423034846
1783245717999042600,1.86904248046875,-0.6909650793641805,2.3191174853384493,-1.709911090119928
1783245718009054500,1.879054443359375,-0.5239829575717448,2.4997505313426256,-1.773543312074989
1783245718019066600,1.889066650390625,-0.23292495877742767,2.6708067707061764,-1.8426504583097993
1783245718029078500,1.89907861328125,0.13987550368010998,2.89475055064857,-1.8198177181243895
1783245718039090700,1.909090576171875,0.47222354423999785,3.138079999062419,-1.7583344908967613
1783245718049102600,1.9191025390625,0.7957499804407357,3.3540000470250844,-1.6401703221566974
1783245718059114500,1.929114501953125,1.1730541840583086,3.4839813486784696,-1.498744520294666
1783245718069126700,1.939126708984375,1.5753344235002993,3.593796060615778,-1.2979849243238568
1783245718079138600,1.949138671875,2.0513994455993174,3.662118486213684,-1.054102079810947
1783245718089150500,1.959150390625,2.5442963600337505,3.7802135352402924,-0.7645933562852442
1783245718099161600,1.96916162109375,2.958974893277883,3.939370077973604,-0.5005441412519663
1783245718109173500,1.979173583984375,3.3191520210057495,4.073717758142948,-0.3064784899618476
1783245718119185400,1.989185302734375,3.5807974628329275,4.178087064155936,-0.1829201340280473
1783245718129197600,1.999197509765625,4.0513796696066855,4.208872078520059,-0.16240765348374842
1783245718139209500,2.00920947265625,4.374234490156174,4.253983724400401,-0.16489545171149075
1783245718149221400,2.019221435546875,4.517747473555803,4.312387982574105,-0.1149777207236737
1783245718159233500,2.029233642578125,4.654786292505264,4.358273535436392,0.023446561234816907
1783245718169245400,2.039245361328125,4.752523028635978,4.465232273420691,0.20532588097304105
1783245718179257600,2.049257568359375,4.762046059262752,4.49983070859313,0.2076776317309588
1783245718189269500,2.05926953125,4.569360171893239,4.413384597283602,-0.04166413577497005
1783245718199281400,2.069281494140625,4.307186322277784,4.324305799382925,-0.25604279951453207
1783245718209293600,2.07929345703125,4.143985472589731,4.335917911243438,-0.309214783057943
1783245718219305500,2.089305419921875,4.132494941282272,4.411849642801284,-0.3243628870248794
1783245718229317400,2.0993173828125,4.1535885827153916,4.394484081980586,-0.27806597688272594
1783245718239329500,2.10932958984375,3.956374988788366,4.159830107453465,-0.22564057392291723
1783245718249341400,2.119341552734375,3.7379134396493434,3.7664533054351805,-0.14143077029809356
1783245718259353600,2.129353515625,3.7279724758714434,3.467469774338603,0.07354300979040562
1783245718269365500,2.139365478515625,3.674934713166952,3.2243636132866142,0.4657951186276972
1783245718279377400,2.14937744140625,3.746276778846979,3.1711332506194707,1.0723177546549587
1783245718289389600,2.1593896484375,3.5229210279256105,2.9331185674875973,1.748216563116759
1783245718299401500,2.1694013671875,2.9171406616330144,2.0850310815662145,2.079821676354855
1783245718309413400,2.179413330078125,2.2692449086666104,1.5661492465257645,2.3267596706546843
1783245718319425500,2.189425537109375,1.281391224658489,1.2547913870245218,2.4173729846462604
1783245718329437400,2.1994375,-0.16729016482830047,0.9241764538675546,2.7907997623085974
1783245718339449600,2.20944970703125,-1.5676356856912375,0.5937699027642608,3.1343691618457434
1783245718349461500,2.21946142578125,-2.7936808707028624,0.29315497107356786,3.3334675466060637
1783245718359473400,2.229473388671875,-3.8737563268125057,0.07327391052544116,3.4808778297051783
1783245718369485600,2.239485595703125,-4.83232312605977,-0.09288403540253638,3.5928321840196844
1783245718379497500,2.24949755859375,-5.803285881021618,-0.30798779854625463,3.7212604110121723
1783245718389509400,2.25950927734375,-7.100740936252475,-0.6831444687411189,3.592407821127772
1783245718399521500,2.269521484375,-8.481050800302624,-1.1138229735411702,2.9705300142541526
1783245718409533400,2.279533447265625,-9.734281513881683,-1.2002876434206962,2.1092969232946635
1783245718419544600,2.289544677734375,-10.727884555196761,-1.2869580650053918,1.2629853610046207
1783245718429556700,2.299556640625,-10.64983685439825,-1.5219747353650628,0.42853053298592564
1783245718439568600,2.309568603515625,-9.447301724311709,-1.7314000144809483,-0.17386662060916422
1783245718449580500,2.31958056640625,-7.725940873286127,-1.843428018553555,-0.37173195644319057
1783245718459592700,2.3295927734375,-6.061672613313794,-1.7942355331003665,-0.2539582483254373
1783245718469604600,2.3396044921875,-4.684350825163722,-1.710374469847977,0.19460238851532338
1783245718479616800,2.34961669921875,-3.393109237620234,-1.5008338937893508,0.5757751041293144
1783245718489628700,2.359628662109375,-2.316277293476462,-1.2699150141373277,0.7846183455735445
1783245718499640600,2.369640625,-2.021973444628715,-1.2388374465674161,1.0656035709038376
1783245718509652700,2.37965283203125,-1.8184341548115015,-1.2171600869622081,1.4487420336328447
1783245718519664600,2.38966455078125,-2.049408564043045,-1.3299398592501879,1.7245784978978336
1783245718529676500,2.399676513671875,-2.9170564904808995,-1.6500889279723165,1.9936841926030813
1783245718539688700,2.409688720703125,-3.5996804424792526,-1.9159001111768186,2.1937353480435906
1783245718549700600,2.41970068359375,-3.7990626126170155,-2.0092028103828428,2.1308464918017385
1783245718559712800,2.429712646484375,-3.7229713065832852,-1.9453028774023056,1.7854843636289237
1783245718569724700,2.439724609375,-3.4957290696173904,-1.6834516838699578,1.2818242092482746
1783245718579736600,2.449736572265625,-3.172552762028575,-1.3211992111727595,0.6608195319473743
1783245718589748700,2.459748779296875,-2.8023294565826653,-0.9431921199828386,-0.005774784009158611
1783245718599760600,2.4697607421875,-2.5129490356117485,-0.4515692440722137,-0.43376244229003785
1783245718609772500,2.4797724609375,-2.381230534902215,0.04782477729655802,-0.8059357127599418
1783245718619784700,2.48978466796875,-2.186361458274722,0.2549232939653098,-1.093633733601868
1783245718629796600,2.499796630859375,-1.8489339224934578,0.20046002850234507,-1.2505869210720062
1783245718639808800,2.509808837890625,-1.5708979023575782,0.0964979150507599,-1.1797215329930186
1783245718649820700,2.519820556640625,-1.290809625867009,0.1823562165349722,-0.9864457169063389
1783245718659832600,2.52983251953125,-1.0904232471227646,0.36537045858725903,-0.793346572560817
1783245718669844700,2.5398447265625,-0.9854664966106415,0.45165378055050964,-0.7074404133468866
1783245718679856600,2.549856689453125,-0.7488888605445623,0.3426678475875407,-0.7206772037997842
1783245718689868500,2.55986865234375,-0.3985474826544523,0.22523557331860064,-0.7803807080037891
1783245718699880700,2.569880615234375,0.12974164767861365,0.10707637301459907,-0.7737924156546592
1783245718709892600,2.579892578125,1.1140262410283088,0.11594371621161699,-0.6904726196721196
1783245718719903500,2.589903564453125,1.2223831553727387,0.30460977348051965,-0.8376211830951273
1783245718729915600,2.59991552734375,1.1901795063823462,-0.0010552812065929174,-0.8344991055518388
1783245718739927600,2.609927490234375,0.8533610424101352,-0.41752369354218244,-0.6542930527880787
1783245718749939500,2.619939453125,0.6892302183955907,-0.6784753078863024,-0.38391996849551796
1783245718759951600,2.62995166015625,0.7390718154072761,-0.7138512302372604,-0.08179258641526102
1783245718769963500,2.639963623046875,0.7596177598297595,-0.6829220581620932,0.22973317699879406
1783245718779975700,2.6499755859375,0.9011766865521669,-0.6449550964046269,0.41717751045301554
1783245718789987600,2.659987548828125,0.9890548764914273,-0.5906693429330363,0.5671878930479288
1783245718799999500,2.66999951171875,0.999258875119686,-0.5609743888279423,0.668824851487577
1783245718810011600,2.68001171875,0.7613771707177162,-0.5202457072721794,0.729015993078053
1783245718820023600,2.6900234375,0.7949515235394239,-0.7997619194958359,0.5875516127713024
1783245718830035500,2.700035400390625,0.8600023801207541,-1.0209349926158786,0.3789347274288535
1783245718840047600,2.710047607421875,0.709300946521759,-1.1515352298852055,0.25658158256635066
1783245718850059500,2.7200595703125,0.5332137272536754,-1.2259988616518676,0.1482003374982625
1783245718860071400,2.730071533203125,0.45070320182740686,-1.266352791611105,-0.05259381832927465
1783245718870083600,2.74008349609375,0.26448914082050323,-1.2247114521898328,-0.20395693070739507
1783245718880095500,2.750095458984375,0.04288812461197376,-1.1295764229901135,-0.26053010099641977
1783245718890107600,2.760107666015625,-0.14002572580575942,-0.9993575131885707,-0.2825198144864291
1783245718900119600,2.77011962890625,-0.2272457440972328,-0.9532260227411985,-0.3004046499408781
1783245718910131500,2.78013134765625,-0.18033493984043597,-1.0177167612217366,-0.3121989865005016
1783245718920143600,2.7901435546875,-0.13713584958314895,-1.0851900957096368,-0.24252302740179002
1783245718930155500,2.800155517578125,-0.1172001460134983,-1.0891086573928594,-0.15748291043266652
1783245718940167400,2.81016748046875,-0.09242752380669117,-1.0551504928853361,-0.08066847775615751
1783245718950179600,2.8201796875,-0.014415478843450546,-0.9986180199328809,-0.08594071907065809
1783245718960191500,2.83019140625,0.07763444382250309,-0.9199404967982322,-0.1624365873172879
1783245718970203400,2.840203369140625,0.13332885851562024,-0.9060900314263999,-0.3195517604161054
1783245718980215300,2.85021533203125,0.15189794990718364,-0.9392507619459182,-0.529524663477391
1783245718990227500,2.8602275390625,-0.009260580298304557,-0.9994208607483654,-0.6802774619374424
1783245719000239400,2.8702392578125,-0.22185469870865343,-0.951917205164954,-0.7229585196699947
1783245719010251300,2.880251220703125,-0.5397217939734459,-0.8074776084396987,-0.7148314003810287
1783245719020263400,2.890263427734375,-0.9770283386111259,-0.702967724912241,-0.7243229398909956
1783245719030274300,2.9002744140625,-1.4779846408605575,-0.5961095246929675,-0.6210020469523966
1783245719040286200,2.9102861328125,-1.8479156853616236,-0.4626527289487421,-0.46739400519169866
1783245719050298400,2.92029833984375,-2.0091531260222197,-0.22625417577661572,-0.23527181416451928
1783245719060310300,2.930310302734375,-2.168478011059761,-0.08401968788020313,-0.10933766901008785
1783245719070322200,2.940322265625,-2.1530478022158146,-0.04614478832036256,-0.28347492325417695
1783245719080334300,2.950334228515625,-1.9506185194671153,0.047081557713821526,-0.4759674069434404
1783245719090346200,2.96034619140625,-1.7715630980432033,0.0830952665116638,-0.6528376663479953
1783245719100358400,2.9703583984375,-1.4278975446552038,0.187624731522426,-0.7579035763230174
1783245719110370300,2.980370361328125,-1.223624679866433,0.33070969876833256,-0.7585480117063969
1783245719120382200,2.99038232421875,-1.308349958732724,0.5235393785227089,-0.7490392288006842
1783245719130394400,3.000394287109375,-1.6731272737324236,0.662695774148032,-0.7530038215827196
1783245719140406300,3.01040625,-2.2134593085587024,0.5774672219347209,-0.8721118470441549
1783245719150418200,3.020418212890625,-2.5831501145631073,0.29841332999318837,-1.153031167531386
1783245719160430300,3.030430419921875,-2.546658412989974,0.21669600077122447,-1.4368950901031494
1783245719170442200,3.040442138671875,-2.281174415913224,0.4476049435511231,-1.46987644546777
1783245719180454100,3.0504541015625,-1.9851526572316884,0.7943957893528044,-1.2479805379658937
1783245719190466300,3.06046630859375,-1.5913094067454336,1.0537165876246988,-0.9957665029592812
1783245719200478200,3.070478271484375,-1.0777975743055344,1.302177845969051,-0.7188694967906921
1783245719210490400,3.080490478515625,-0.6626911710381508,1.428325706939399,-0.45646921800822016
1783245719220502300,3.090502197265625,-0.47458559719622134,1.3757985241055488,-0.41151429705955084
1783245719230514200,3.10051416015625,-0.1920885059982538,1.222009645885229,-0.44490014157183466
1783245719240526300,3.1105263671875,0.10518179143965244,0.9608103403903543,-0.48955739474818105
1783245719250538200,3.120538330078125,0.3356628641963005,0.6901045170120894,-0.5122841903410852
1783245719260550100,3.130550048828125,0.5365133533209562,0.5367280189849436,-0.46553091473355884
1783245719270562300,3.140562255859375,0.6012006372869014,0.5526036335088312,-0.3333176162444055
1783245719280574200,3.15057421875,0.5771113211691379,0.66926192773059,-0.15771306592673062
1783245719290586400,3.16058642578125,0.6189426302045583,0.7114031794980168,-0.03258022721782326
1783245719300598300,3.170598388671875,0.6282172390282154,0.6615064912982285,0.04491334682926535
1783245719310609400,3.180609375,0.5388724836677312,0.6412834952197969,0.10894655080065131
1783245719320621300,3.190621337890625,0.5843856960862874,0.646278673158586,0.09105082862600683
1783245719330633500,3.200633544921875,0.6770113728135824,0.5652579478986561,0.05780453871488571
1783245719340645400,3.210645263671875,0.7364139943748712,0.43731881959736346,-0.0905294351004064
1783245719350657500,3.220657470703125,0.8188035237699747,0.28887948571145533,-0.2556711897231638
1783245719360669400,3.23066943359375,0.8333814996987581,0.1484561388902366,-0.4137314616523683
1783245719370681300,3.240681396484375,0.9354565572947263,0.13031404073908925,-0.5523889678448438
1783245719380693500,3.250693603515625,1.1099591377198696,0.13257906306162476,-0.6720156103529036
1783245719390705400,3.260705322265625,1.2390016972184181,0.10236600336655974,-0.789663938525319
1783245719400717300,3.27071728515625,1.3888877227813006,0.06525017854571342,-0.8577265441432594
1783245719410729500,3.2807294921875,1.59247260530591,0.05819777581617236,-0.9044447484374046
1783245719420741400,3.290741455078125,1.6820809800386427,0.12123334705233574,-0.9124747640274464
1783245719430753500,3.30075341796875,1.6027280418604612,0.18955796460732816,-0.9735054982472211
1783245719440765400,3.310765380859375,1.5370061541497706,0.24372166260182856,-1.0728658169917762
1783245719450777300,3.32077734375,1.6331009682923554,0.27671456227377056,-1.2594532413557171
1783245719460789500,3.33078955078125,1.7635107244908808,0.2647717571541667,-1.436699859791994
1783245719470801400,3.340801513671875,1.7755010220140217,0.2561896606393158,-1.5446400100290774
1783245719480813300,3.350813232421875,1.4785048653423785,0.19040844395682213,-1.5905531815506517
1783245719490825500,3.360825439453125,1.2746499337047337,0.1291276074334979,-1.5979337933212518
1783245719500837400,3.37083740234375,1.2314163566559553,0.12902911549508572,-1.549224269079417
1783245719510849500,3.380849609375,1.2675696200549602,0.18451164100319145,-1.442597101137042
1783245719520861400,3.390861328125,1.3380454242944717,0.25944837017431854,-1.3312484576307237
1783245719530873300,3.400873291015625,1.423363408356905,0.2615564483694732,-1.171754353506118
1783245719540885500,3.410885498046875,1.4650807356238364,0.24399653402045368,-1.0139159076340496
1783245719550897400,3.4208974609375,1.2618652709335088,0.1632616399645805,-0.8199436337158084
1783245719560909300,3.430909423828125,0.9220300894886255,0.04918415601626038,-0.6006779285870492
1783245719570921500,3.44092138671875,0.5482739337414503,-0.08724734468981624,-0.43478754755407567
1783245719580933400,3.450933349609375,0.18440613480210302,-0.2711002295233309,-0.3400625604599714
1783245719590945500,3.460945556640625,-0.18259236337840556,-0.38129195807948707,-0.21010025576800107
1783245719600956400,3.470956298828125,-0.5421446372061968,-0.3878378725916147,-0.026174451828747985
1783245719610968300,3.48096826171875,-0.9081476946085691,-0.2950033754192293,0.22022943559437988
1783245719620980200,3.490980224609375,-1.3174153087198734,-0.1530804376900196,0.46296588655114174
1783245719630992400,3.500992431640625,-1.6709896771818398,-0.010179156447947025,0.7111201247729361
1783245719641004300,3.51100439453125,-1.9951006352722644,0.06676774350181222,0.8525601012907922
1783245719651016400,3.521016357421875,-2.2222025869846345,0.10580606081783771,0.9031995706818997
1783245719661028400,3.5310283203125,-2.3437205961972474,0.174329561945796,0.9238017753362655
1783245719671040300,3.541040283203125,-2.365921906611323,0.23575272954925894,0.9314780090525746
1783245719681052400,3.551052490234375,-2.1777999661564826,0.32182693880647417,0.9167043644212186
1783245719691064300,3.561064208984375,-1.856201283147931,0.4427136643782258,0.9661838501222431
1783245719701076200,3.571076171875,-1.5602251171737909,0.6703973615013062,1.0807342122793198
1783245719711088400,3.58108837890625,-1.292518183350563,0.9900115926943719,1.2409862951643764
1783245719721100300,3.591100341796875,-1.1023965935111044,1.1889954111643135,1.3698574436187743
1783245719731112400,3.601112548828125,-1.1668974149942397,1.1423343438848852,1.349194740948826
1783245719741124400,3.611124267578125,-1.471150410926342,0.8742620838806032,1.1640870337486267
1783245719751136300,3.62113623046875,-1.69875914311707,0.47347252138778567,0.8039896932587027
1783245719761148400,3.6311484375,-1.9074200137317179,0.1948731682807207,0.40816389065310354
1783245719771160300,3.641160400390625,-2.086626826325059,0.24551658319458364,0.1435123988777399
1783245719781172200,3.651172119140625,-2.168056570777297,0.501916817844659,0.05903130403086543
1783245719791184400,3.661184326171875,-2.039453571739793,0.8088375716812908,0.02903495582640171
1783245719801196300,3.6711962890625,-1.742353954693675,1.106135926169902,0.07965133660286665
1783245719811208400,3.68120849609375,-1.3755021715074778,1.3829957421332597,0.08515592536851763
1783245719821220400,3.691220458984375,-0.8754273282676934,1.555150005866587,-0.0010392799198627471
1783245719831232300,3.701232177734375,-0.3759726627528667,1.6224857585147021,-0.06270999254360794
1783245719841244400,3.711244384765625,0.03746668408513069,1.599852778685093,-0.201688255123049
1783245719851256300,3.72125634765625,0.5447784928411245,1.5727312552645802,-0.3355516589067876
1783245719861268200,3.731268310546875,0.9181704914510249,1.5582487025342882,-0.3512793893925845
1783245719871279400,3.741279296875,1.077598836863041,1.56233407215178,-0.2859142061650753
1783245719881291300,3.751291259765625,1.1482792237639428,1.5610238663360476,-0.16909239194467662
1783245719891303400,3.761303466796875,1.2385901938080788,1.477700270961225,-0.08455649817064403
1783245719901315300,3.7713154296875,1.2969909448504446,1.3256531218416987,0.02952157029956579
1783245719911327500,3.781327392578125,1.3225661156117916,1.1784784010641276,0.14573840436413885
1783245719921339400,3.79133935546875,1.3158727554529905,1.0654613859541713,0.34634456333890556
1783245719931351300,3.801351318359375,1.2786784585684536,0.9219574626438319,0.44392304016798734
1783245719941363500,3.811363525390625,1.2862637991309165,0.6968086908258497,0.5048731834322214
1783245719951375400,3.821375244140625,1.3059621868133544,0.42563086602166295,0.5932260051459074
1783245719961387500,3.831387451171875,1.2700608523488044,0.22126287029534578,0.7527480201907455
1783245719971399400,3.8413994140625,1.2742968824833631,0.10183408844694494,0.9461587147034705
1783245719981411600,3.85141162109375,1.2557768909305334,0.008784779480099678,1.1206335303388535
1783245719991423500,3.861423583984375,1.2721423347979783,-0.06837357126325369,1.2197324947334824
1783245720001435400,3.871435302734375,1.3041396475613116,-0.11360299830436706,1.290447806817293
1783245720011447600,3.881447509765625,1.289398005503416,-0.13983268745169042,1.3210009121216832
1783245720021459500,3.89145947265625,1.2303086876749991,-0.17064269012659788,1.2687089993484317
1783245720031471400,3.901471435546875,1.1512556092262267,-0.22951617324724793,1.0782312895476818
1783245720041483500,3.9114833984375,1.1313584841012954,-0.2615321907110512,0.7735004469707608
1783245720051495400,3.921495361328125,1.0762088438093662,-0.208244691029191,0.4562155355080962
1783245720061507600,3.931507568359375,1.0287433282792569,-0.11388824498653412,0.1477978211119771
1783245720071519500,3.94151953125,0.955481692713499,-0.021974515920877454,-0.10201558249369264
1783245720081531400,3.951531494140625,0.8422177171051501,0.02384206335842609,-0.31773148618638514
1783245720091543600,3.96154345703125,0.7652157259672879,-0.000018558569997549056,-0.47994865859933195
1783245720101555500,3.971555419921875,0.7391162390708923,-0.01105228602066636,-0.5530554689295589
1783245720111567400,3.9815673828125,0.6901251214087009,0.01923354664966464,-0.5206809934169053
1783245720121579500,3.99157958984375,0.5949906767308711,0.019233400519192218,-0.4562015069827437
1783245720131591400,4.00159130859375,0.4933148475855589,-0.03420505194067955,-0.400481592522189
1783245720141602300,4.011602294921875,0.3412877183407545,-0.12120733582824468,-0.35964397069923576
1783245720151614500,4.021614501953125,0.1924421417415142,-0.2300358132071793,-0.2745772579841316
1783245720161626400,4.03162646484375,0.12034370473623275,-0.3306451821647584,-0.17490327018052337
1783245720171638300,4.04163818359375,0.07724865937530993,-0.4635806574486196,-0.024349063032492995
1783245720181650400,4.051650390625,-0.027868250134587286,-0.5899347085155546,0.1433376268327236
1783245720191662300,4.061662353515625,-0.09537176056504248,-0.660931029497832,0.3500369881160557
1783245720201674500,4.071674560546875,-0.02609481072127819,-0.628306524746865,0.5488312022980302
1783245720211686400,4.081686279296875,-0.04678571657240391,-0.5822698729760944,0.7003617071323096
1783245720221698300,4.0916982421875,-0.06790273888111115,-0.6127002286836505,0.716368254559487
1783245720231710500,4.10171044921875,-0.0817687671482563,-0.7352379363328218,0.589271130040288
1783245720241722400,4.111722412109375,-0.22111352495253084,-0.8266074755191802,0.4085270248770714
1783245720251734300,4.121734375,-0.5439882192462683,-0.8626074480526149,0.23109160587042568
1783245720261746400,4.131746337890625,-0.8764093250423669,-0.8691460560411214,0.1003681806128472
1783245720271758300,4.14175830078125,-1.2017191375285385,-0.7341193075664341,0.06633738926053047
1783245720281770500,4.1517705078125,-1.5799088918089865,-0.49369946298897266,0.10984547240175306
1783245720291782400,4.161782470703125,-1.9710598344713448,-0.31398543152585623,0.10458835559114814
1783245720301794300,4.171794189453125,-2.178071184313297,-0.2133686099141836,0.024813611804321407
1783245720311806500,4.181806396484375,-2.178222575482726,-0.13424991888329385,-0.09862732829488813
1783245720321818400,4.191818359375,-2.017856072437763,-0.06275923851281404,-0.19114903319105506
1783245720331830300,4.201830322265625,-1.6470990985065697,0.0276171979829669,-0.1981852885033935
1783245720341842400,4.211842529296875,-1.2135206344813108,0.17804332177191973,-0.11087576529756188
1783245720351854300,4.221854248046875,-0.8653437411487102,0.3773201318390667,-0.04176478313785046
1783245720361866500,4.231866455078125,-0.5474971041500568,0.47897111880406734,-0.041359672935679555
1783245720371878400,4.24187841796875,-0.36523499563932416,0.37641222321391105,-0.1687431035829708
1783245720381890300,4.251890380859375,-0.350126858356595,0.09739157595485448,-0.44310883770827203
1783245720391902500,4.26190234375,-0.5353495702385902,-0.1640403692521155,-0.7636383936479687
1783245720401914400,4.271914306640625,-0.8282838842988014,-0.33180735781192777,-0.9562762771572917
1783245720411925200,4.28192529296875,-1.130544245108962,-0.3214202577017248,-0.901212780778855
1783245720421937400,4.2919375,-1.3695400482326745,-0.09925473947823046,-0.5887668337799609
1783245720431949300,4.30194921875,-1.47637603662014,0.1632040645584464,-0.29759952939227224
1783245720441961200,4.311961181640625,-1.3433651580125092,0.42868893841803074,-0.07597630135193467
1783245720451973400,4.321973388671875,-1.0163105476856231,0.7012659624956548,0.08769691508822143
1783245720461985300,4.3319853515625,-0.7413023509383201,0.8305421846196055,0.10604184233509004
1783245720471997200,4.3419970703125,-0.6178758777558803,0.7485242650158703,-0.11893084226362406
1783245720482009300,4.35200927734375,-0.4903957452684641,0.47145489795505996,-0.47808776009827847
1783245720492021200,4.362021240234375,-0.3815034088730812,0.18360446303039787,-0.8119026583403348
1783245720502033400,4.372033447265625,-0.33130583803057667,0.07325842069536447,-1.044665996815264
1783245720512045300,4.38204541015625,-0.3235638456016779,0.2002915400676429,-1.1402344489961862
1783245720522057200,4.39205712890625,-0.4156055849611759,0.3953375806972384,-1.0996101776629685
1783245720532069400,4.4020693359375,-0.49912324160337446,0.5471875998094677,-1.010359165000543
1783245720542081300,4.412081298828125,-0.5081745630651712,0.6639682052366435,-0.8859661118082701
1783245720552093200,4.42209326171875,-0.538925090637803,0.6998287692993879,-0.7788575900897383
1783245720562105300,4.432105224609375,-0.5456237114936113,0.7012960653729736,-0.6890072963599115
1783245720572117200,4.4421171875,-0.47144729917049405,0.6384964948497712,-0.6509191193755716
1783245720582129400,4.45212939453125,-0.27805238674879074,0.5317378094822168,-0.6773709268409759
1783245720592141300,4.462141357421875,-0.09037409840822219,0.4673606143787503,-0.7495757468301802
1783245720602153200,4.4721533203125,0.0293359845995903,0.3839440800234675,-0.8368844663184135
1783245720612165400,4.482165283203125,0.10971534321606159,0.2951818007260561,-0.8749366952065378
1783245720622177300,4.49217724609375,0.19137363572716712,0.21000351739525794,-0.8664940071623772
1783245720632189200,4.502189208984375,0.17699322819709776,0.24148703541755676,-0.7671964514557271
1783245720642201300,4.512201416015625,0.18490648553967476,0.38446547354906796,-0.6521337558623403
1783245720652213200,4.522213134765625,0.25565467697978017,0.44089930843263864,-0.47290005526207385
1783245720662224400,4.532224365234375,0.31943010679781436,0.5081888838514685,-0.3877785436198115
1783245720672236500,4.542236572265625,0.46586628416776654,0.5376265752598643,-0.45772082550451154
1783245720682248400,4.55224853515625,0.6004004268199205,0.46185208009034395,-0.5786198991011828
1783245720692260400,4.56226025390625,0.7682049709111451,0.4303180009245872,-0.6345148778676987
1783245720702272500,4.5722724609375,0.9541384614109992,0.45759296134114263,-0.6486863188222051
1783245720712284400,4.582284423828125,0.9379746775954961,0.4661772498130798,-0.6210601338151842
1783245720722296600,4.592296630859375,0.8853115934222936,0.41276334727257485,-0.6731342391192913
1783245720732308500,4.60230859375,0.8521446523576974,0.34667817920744415,-0.7687970915853977
1783245720742320400,4.6123203125,0.7182347790837288,0.339712724108994,-0.8376332388591021
1783245720752332500,4.62233251953125,0.5520557903677225,0.3215887461364269,-0.8552729404460638
1783245720762344400,4.632344482421875,0.4124228632718324,0.2773866163164377,-0.8622520587436854
1783245720772356400,4.6423564453125,0.26736148138642307,0.2767451035425067,-0.8761009897455573
1783245720782368500,4.652368408203125,0.1591150416791439,0.2691331672340631,-0.8361452653236686
1783245720792380400,4.66238037109375,0.04112988276779651,0.25958617120981214,-0.7405125157348811
1783245720802392600,4.672392578125,0.0604015694707632,0.2738368148803711,-0.5602122818816453
1783245720812404500,4.682404541015625,0.10688976440131663,0.2981374356612563,-0.3536640925720334
1783245720822416400,4.69241650390625,0.16080372541844845,0.3059144994035363,-0.1473793034389615
1783245720832428500,4.702428466796875,0.1821241613447666,0.2770893869355321,-0.03974734236821532
1783245720842440400,4.7124404296875,0.1379085875213146,0.16366232971996067,0.0259429811604321
1783245720852452400,4.722452392578125,0.17376082214713096,0.019933950003981588,0.062116848956048486
1783245720862464500,4.732464599609375,0.16019465360939503,-0.07246493223011494,0.08697393457591533
1783245720872476400,4.742476318359375,0.14514555303752422,-0.07348375388383865,0.15558949790149926
1783245720882488300,4.75248828125,0.10665537112355232,0.029790158107876778,0.18840718713700771
1783245720892500500,4.76250048828125,0.054420156973600385,0.12385872711986302,0.1855057666070759
1783245720902512400,4.772512451171875,-0.01572539239823818,0.17919541441649198,0.15178601396530866
1783245720912523300,4.782523193359375,-0.12865151435434818,0.17625439252853392,0.11647227013036608
1783245720922535400,4.792535400390625,-0.23496084851920604,0.13681290123909712,0.11295330222398042
1783245720932547300,4.80254736328125,-0.3472393202215433,0.12290537191778421,0.19239274964183567
1783245720942559500,4.8125595703125,-0.5091331789642572,0.17716887702494857,0.2970284515060484
1783245720952571400,4.8225712890625,-0.657101388207078,0.22766776890158652,0.33453210660070176
1783245720962583300,4.832583251953125,-0.7639923216521739,0.3385428035467863,0.34356662305817004
1783245720972595000,4.842594970703125,-0.8223644311219453,0.43507016388773917,0.32197584575787186
1783245720982606800,4.85260693359375,-0.7552502122700214,0.5360355066761374,0.23782383673489094
1783245720992618800,4.86261865234375,-0.6051280398637056,0.6776914640322327,0.20623262055441735
1783245721002631000,4.872630859375,-0.38692426487803455,0.8193447910398244,0.20789996924474835
1783245721012642800,4.882642822265625,-0.04144610911011696,1.009469888010621,0.23879560437649486
1783245721022654700,4.89265478515625,0.20287819555997846,1.0382707428202032,0.19195289691984652
1783245721032667000,4.9026669921875,0.44539574306905266,0.9780728792279958,0.07038184234574436
1783245721042678800,4.9126787109375,0.533386161211133,0.8643526842847465,-0.07262260700985788
1783245721052691000,4.92269091796875,0.41470191411972046,0.7488777546286582,-0.1862109922669828
1783245721062702800,4.932702880859375,0.07193418635427952,0.5514227531611919,-0.3067962506741285
1783245721072714800,4.94271484375,-0.49464112775325775,0.2456041153475642,-0.49767611153498287
1783245721082727000,4.952726806640625,-1.0931032799869775,-0.0021937106519937513,-0.639579467780888
1783245721092738800,4.96273876953125,-1.7019330969780682,-0.08961860386580228,-0.6632217707835137
1783245721102750700,4.972750732421875,-2.2969681973725558,-0.002023322521150112,-0.5988390227220952
1783245721112763000,4.982762939453125,-2.709676891848445,0.3989119320526719,-0.44789632771313187
1783245721122774800,4.99277490234375,-2.641435714793205,0.9659349899277091,-0.20489713416695593
1783245721132786700,5.00278662109375,-2.2654344104677437,1.4618126737385988,0.030665771898627278
1783245721142798800,5.012798828125,-1.9481074134290217,1.7385273821428417,0.09771861595213413
1783245721152810800,5.022810791015625,-1.6771353403300047,1.7392004590988157,-0.024803894127905367
1783245721162822000,5.03282177734375,-1.2484767970502375,1.5174749397277831,-0.2701438055813312
1783245721172833800,5.042833740234375,-0.8634136498689651,1.3185738311052322,-0.46766485802233215
1783245721182846000,5.052845947265625,-0.6149655432671308,1.2153119018122553,-0.5081427066221833
1783245721192857900,5.06285791015625,-0.22151684505641459,1.1778566159039736,-0.442501629062742
1783245721202870000,5.0728701171875,0.1839110447615385,1.128778112219274,-0.2909920939512551
1783245721212882000,5.0828818359375,0.5732306803435087,1.0902294781163335,-0.20148995607197284
1783245721222894000,5.09289404296875,0.8957990851670503,1.0474629340574144,-0.1502836465783417
1783245721232906000,5.102906005859375,1.0803145255625248,0.9687138069912791,-0.08120923356935382
1783245721242918000,5.11291796875,1.1661235080122947,0.8369467909649014,-0.02950023525059223
1783245721252930000,5.122929931640625,1.1615589765757321,0.7200865444302559,0.04428454740643501
1783245721262942000,5.13294189453125,1.1226035152375697,0.5994014789104462,0.06081117318496108
1783245721272954000,5.1429541015625,1.0309469758033751,0.4804769933223724,0.04705225855410099
1783245721282966000,5.152966064453125,0.92073478898108,0.3573427810847759,-0.015628215634077788
1783245721292978000,5.16297802734375,0.9207476484626531,0.3126996294990182,-0.06055252224877476
1783245721302990000,5.172989990234375,0.9129606478482484,0.3758934600368142,-0.07385112589150666
1783245721313002000,5.183001953125,0.9301520211458205,0.5047019185185432,-0.11636691005975007
1783245721323014000,5.193013916015625,1.0386913063198326,0.5915329374924302,-0.2568833419919014
1783245721333026000,5.203026123046875,1.1615028624743222,0.6275143514558672,-0.44176703117787836
1783245721343038000,5.213037841796875,1.2263017901211977,0.6722735306367278,-0.5810160735227168
1783245721353049900,5.2230498046875,1.2882201938956974,0.7200614099889994,-0.7089018642015755
1783245721363062000,5.23306201171875,1.3028320720940827,0.7577037429019808,-0.8501375503189861
1783245721373074000,5.243073974609375,1.3241981007277965,0.7489373758614063,-1.0046198176309467
1783245721383086000,5.253086181640625,1.2545067248642443,0.7568953491285443,-1.1299592848278581
1783245721393098000,5.263097900390625,1.1983142975211143,0.8237938794031738,-1.1699701735030859
1783245721403108900,5.27310888671875,1.1913801143437623,0.932674525360763,-1.1273929414711892
1783245721413121000,5.28312109375,1.2047083824723959,1.1079559812039137,-0.9930432154752313
1783245721423133000,5.2931328125,1.2888093919605017,1.325911042125523,-0.8361553483262658
1783245721433144800,5.303144775390625,1.509037950772047,1.5822700679823756,-0.6814987473607063
1783245721443157000,5.313156982421875,1.644959748390317,1.788565086248517,-0.5383387421172112
1783245721453169000,5.3231689453125,1.6297627637803553,1.8366680228993295,-0.4904729021579027
1783245721463180800,5.333180908203125,1.3854916506022215,1.687878852662444,-0.5572055012810975
1783245721473193000,5.34319287109375,0.9694950204968452,1.317423199765384,-0.6943278337955474
1783245721483204900,5.353204833984375,0.587680061456561,0.8950412525370717,-0.7939907887484878
1783245721493216800,5.363216796875,0.18968202937841414,0.6273828340306877,-0.7571285002972931
1783245721503229000,5.37322900390625,-0.16194354310333728,0.6083557697385549,-0.5930358163360506
1783245721513240800,5.38324072265625,-0.5776952585369348,0.6942468775138259,-0.38416714818961917
1783245721523253000,5.3932529296875,-0.9133692286491394,0.8418959378048777,-0.2632967892307788
1783245721533265000,5.403264892578125,-1.0941010588526725,0.9781710789054632,-0.3582256283339113
1783245721543276800,5.41327685546875,-1.2424831095933913,1.1052385389387607,-0.6103855950657278
1783245721553289000,5.4232890625,-1.447069278115034,1.2891913770154118,-1.0150321983128785
1783245721563300900,5.43330078125,-1.5312234790951014,1.4264169507086275,-1.4495581723213196
1783245721573312800,5.443312744140625,-1.591659535357356,1.5210583511725067,-1.911329003868997
1783245721583325000,5.453324951171875,-1.7842980764538048,1.59105513972342,-2.2940314132682977
1783245721593336800,5.4633369140625,-1.942842040246725,1.6665391275137662,-2.432306934405863
1783245721603349000,5.473348876953125,-1.9603888028532266,1.794044394442439,-2.2899992351427674
1783245721613361000,5.48336083984375,-1.836057489785552,1.8892223860010504,-1.9749011661998925
1783245721623371800,5.493371826171875,-1.6771932079970835,1.788662116882205,-1.7007395032793282
1783245721633383700,5.5033837890625,-1.410181270700693,1.5183508457794785,-1.571039941176772
1783245721643395800,5.513395751953125,-1.1996283027291297,1.234827918665111,-1.552992243310809
1783245721653407700,5.52340771484375,-1.166716213208437,0.9804451613172889,-1.5636809567160903
1783245721663420000,5.533419921875,-1.3394868552744388,0.762509389618039,-1.6287684920459984
1783245721673431800,5.543431884765625,-1.6868500941365956,0.4792720014467835,-1.6718854569777846
1783245721683443700,5.553443603515625,-2.081174990659952,0.21391279979348182,-1.6071905742272734
1783245721693456000,5.563455810546875,-2.429306875807047,0.02085720232874155,-1.4892394637160002
1783245721703467800,5.5734677734375,-2.74640824739635,-0.08989026041403413,-1.3784288726091385
1783245721713479700,5.583479736328125,-2.8428087664872406,-0.12029825815930961,-1.2815687731824814
1783245721723491800,5.593491943359375,-2.742907545799017,-0.048008390235155816,-1.1868882828172296
1783245721733503700,5.603503662109375,-2.4056372464060782,0.09133958243951201,-1.0926019063360988
1783245721743516000,5.613515869140625,-1.9945593680024145,0.17802125607058406,-1.0622788834605366
1783245721753527800,5.62352783203125,-1.571315835508704,0.07572787954881786,-1.122932527996227
1783245721763539700,5.633539794921875,-1.1477706897199154,-0.10480082929804921,-1.2473662054598331
1783245721773551900,5.6435517578125,-0.8128034065723418,-0.2186585330158472,-1.3029590594746172
1783245721783563800,5.653563720703125,-0.5887117425918579,-0.253097247581929,-1.2540364770039916
1783245721793575700,5.66357568359375,-0.43116088148951526,-0.2792421810552478,-1.1680466580945998
1783245721803587800,5.673587890625,-0.3778548232376575,-0.266028186956048,-1.0981642897035926
1783245721813599700,5.683599853515625,-0.3738490947276354,-0.23861542550399897,-0.9724836809188127
1783245721823612000,5.69361181640625,-0.3866980549067259,-0.210357737660408,-0.8395796967517584
1783245721833623800,5.703623779296875,-0.3524894958347082,-0.20190058269947767,-0.719352238806337
1783245721843635700,5.7136357421875,-0.29290917961895463,-0.17013766321390866,-0.5877149866394699
1783245721853646800,5.723646728515625,-0.2347130112379789,-0.12680106418207288,-0.450298128157854
1783245721863659000,5.733658935546875,-0.12433891185224055,-0.08712327991873026,-0.31629699640385806
1783245721873671000,5.7436708984375,0.00035071313381195067,-0.08087532543987035,-0.21227117006629703
1783245721883683000,5.75368310546875,0.13429974937438965,-0.13182327625826,-0.18290486339367926
1783245721893695000,5.763695068359375,0.2659469384133816,-0.17953735972195864,-0.3004237930327654
1783245721903707000,5.773706787109375,0.3123907096803188,-0.21230755655393002,-0.4977454139115289
1783245721913719000,5.783718994140625,0.3429617890328169,-0.12512275570631026,-0.6049090998833999
1783245721923731000,5.79373095703125,0.35406478232741356,0.011009908183664083,-0.7013935343980788
1783245721933742800,5.803742919921875,0.3456412373751402,0.012140373518317937,-0.776029088665545
1783245721943755000,5.813755126953125,0.26260581129193306,-0.11616598066017031,-0.7238005965173244
1783245721953767000,5.823766845703125,0.10249123718142508,-0.24851591114103794,-0.6880669467698782
1783245721963779000,5.833779052734375,-0.14986439825296402,-0.3466036526665091,-0.7244134677186608
1783245721973791000,5.843791015625,-0.38054187036454673,-0.33417613276988267,-0.8232289389967918
1783245721983803100,5.85380322265625,-0.6701800654888153,-0.2629327051587403,-0.8777966146823019
1783245721993815000,5.86381494140625,-1.0576087727576493,-0.056148880462348456,-0.8925383298054337
1783245722003827200,5.8738271484375,-1.6235925507128237,0.20726123294979332,-0.9214473942298441
1783245722013839000,5.883839111328125,-1.985738932687044,0.46040071223825213,-0.8839685813155025
1783245722023851000,5.89385107421875,-2.0817460685461757,0.6673356358431279,-0.6569001665465534
1783245722033863200,5.90386328125,-2.0363935996472833,0.8242047982916235,-0.5280681445261464
1783245722043875000,5.913875,-1.7363696195870637,0.985707904151082,-0.5983141220651567
1783245722053887000,5.923886962890625,-1.1315098752707242,1.09495899085626,-0.7598645741976797
1783245722063899100,5.933899169921875,-0.4542600175261497,1.2071902624160051,-0.8051122675478458
1783245722073910000,5.943909912109375,0.1540524975925684,1.122079929754883,-0.8765873119577765
1783245722083922000,5.953921875,0.7448346167176961,0.7972579007856547,-1.0776890724297612
1783245722093934000,5.96393408203125,0.7801724720805883,0.4776794715583324,-1.1847671259447932
1783245722103946000,5.973946044921875,0.5037339502692222,0.4404534643612802,-1.2095599141567945
1783245722113958000,5.9839580078125,0.27637714701294896,0.617390578456968,-1.2003053982730953
1783245722123970000,5.993969970703125,0.41074119379520413,0.5585555276505649,-1.1342197187513112
1783245722133982000,6.00398193359375,-0.47668929147720335,-0.11996756490021944,-1.601557682906836
1783245722143994000,6.013994140625,-0.4274731328874826,0.13000731287747622,-1.4793435081236064
1783245722154006000,6.024006103515625,-0.40895840203166006,0.6761478878520428,-0.9232431916054338
1783245722164018000,6.034017822265625,-0.5283160183399915,1.0239689534842968,-0.5689847133368253
1783245722174030000,6.044030029296875,-0.5514905577003956,1.2335831793010235,-0.5693965090081096
1783245722184042000,6.0540419921875,-0.3673077102601528,1.4333333059683442,-0.6710096481807529
1783245722194054000,6.064053955078125,-0.16043430758416652,1.5401682714425027,-0.7092528695963323
1783245722204066000,6.074066162109375,-0.0658265171289444,1.5025933046773075,-0.761748999704793
1783245722214078000,6.084077880859375,-0.08672375920712948,1.342656717482209,-0.7757574321173131
1783245722224090000,6.094090087890625,0.10076222143173218,1.1277419010393321,-0.7544121540106833
1783245722234102000,6.10410205078125,0.43399931978583334,0.858621885547787,-0.5802960886850953
1783245722244114000,6.114114013671875,0.745415046954155,0.5960238191708922,-0.2631273509480059
1783245722254126000,6.1241259765625,0.9431032726556062,0.5081419759698211,-0.00439428943619132
1783245722264138000,6.134137939453125,1.0278875882327556,0.4438648802399635,0.08121332522258162
1783245722274150000,6.14414990234375,1.0246002371251584,0.31218641927987334,0.034366160786524415
1783245722284162000,6.154162109375,0.9651531919002533,0.19834142891317605,-0.07383366330005228
1783245722294173000,6.1641728515625,0.776935389855504,0.1696133470788598,-0.15554207856319843
1783245722304184800,6.174184814453125,0.5125619843691587,0.29734453171789643,-0.01664148432984948
1783245722314197000,6.184197021484375,0.4902531219273805,0.5375809825524688,0.31922362444028257
1783245722324209000,6.194208984375,0.9793144037216901,0.7473249722287059,0.6354509896740317
1783245722334220800,6.204220703125,1.6108809531778097,0.6822612561658025,0.7977648273944854
1783245722344233000,6.21423291015625,1.9935902307093143,0.5409028204515576,0.9273026230640709
1783245722354244900,6.224244873046875,2.1116841106921433,0.3776420572698116,0.9614169279813766
1783245722364257000,6.234257080078125,2.156420493519306,0.08537117555439472,0.8472795305393636
1783245722374269000,6.24426904296875,1.995431474661827,-0.2659285259738564,0.7116286588169634
1783245722384280800,6.25428076171875,1.6813374681949615,-0.4196472615674138,0.8058730227872729
1783245722394293000,6.26429296875,1.2222545605570077,-0.4045753646418452,1.0177766747154295
1783245722404305000,6.274304931640625,0.7340151165395975,-0.32834055848419663,1.1878311896905303
1783245722414316800,6.28431689453125,0.41292789018452164,-0.35343992842733857,1.1674642550967633
1783245722424329000,6.294328857421875,0.18452070109248161,-0.5202785500958561,1.045396795307845
1783245722434340900,6.3043408203125,-0.12151099494993686,-0.7411945066496729,1.0198743776470423
1783245722444353000,6.31435302734375,-0.46851066119670864,-0.880642724828422,1.1677706176321954
1783245722454365000,6.324364990234375,-0.7723521537184714,-0.9497796816796064,1.2892676571220159
1783245722464376800,6.334376953125,-0.916782836484909,-1.0995409118190407,1.3063270746029914
1783245722474389000,6.344388916015625,-1.0255641137212514,-1.259856269198656,1.1581297327794133
1783245722484401000,6.35440087890625,-1.162349834692478,-1.3029644663020967,1.0749744797088205
1783245722494412800,6.364412841796875,-1.2467623943477868,-1.1481164344176649,1.1654004544347525
1783245722504424200,6.374424072265625,-1.2389572735548018,-1.0333990451306103,1.2891060368195175
1783245722514436000,6.38443603515625,-1.2291951734751463,-1.0160600800558923,1.4395529111355543
1783245722524448000,6.394447998046875,-1.207037702202797,-1.0063882886081934,1.6874254098065196
1783245722534460200,6.404460205078125,-0.9848615164548158,-0.9561547696694731,1.9446349150128661
1783245722544472000,6.41447216796875,-0.5598977360397577,-0.9556015197008848,2.0672234760664403
1783245722554484000,6.42448388671875,-0.1062684176325798,-1.0740987197875975,1.9070863978631794
1783245722564496100,6.43449609375,0.3355921370476484,-1.2096864631459117,1.6228656977429985
1783245722574508000,6.444508056640625,0.7050023725450039,-1.2379714773878454,1.322054074436426
1783245722584520200,6.454520263671875,0.9223533300936222,-1.2540046205610036,1.0999920165874064
1783245722594532000,6.464531982421875,1.0237906743079423,-1.2722133542075753,0.9393208315074443
1783245722604544000,6.4745439453125,1.0058557891666888,-1.239449440985918,0.799028271459043
1783245722614556200,6.48455615234375,0.9095178139179945,-1.1320464663654566,0.6889826733753085
1783245722624568000,6.494568115234375,0.8749515274494886,-1.0513020738288759,0.6639904170684516
1783245722634580000,6.504580078125,0.9564169277369976,-1.021092813526094,0.752358290220797
1783245722644592000,6.514592041015625,1.1602233440577983,-1.1150734119936823,0.8782778953932225
1783245722654604000,6.52460400390625,1.4170207613319157,-1.2812003782615065,1.011961704826355
1783245722664616200,6.5346162109375,1.6409014129102228,-1.3339222068846226,1.1055265620999037
1783245722674628000,6.544628173828125,1.7942688508480786,-1.3401657774493096,1.2086033440843225
1783245722684640000,6.554639892578125,1.9182775078326462,-1.3676844834938644,1.2680654407478869
1783245722694652200,6.564652099609375,2.0307453646272418,-1.4367740940719842,1.2713881554298103
1783245722704664000,6.5746640625,1.9991291601359844,-1.4969073679953813,1.277042674060166
1783245722714675000,6.584675048828125,1.840968058180809,-1.535764921917021,1.278386051493138
1783245722724687000,6.59468701171875,1.748838640537858,-1.5433108072519302,1.2431357282832265
1783245722734699000,6.604698974609375,1.7424141604483128,-1.513513927142322,1.1873092116430402
1783245722744711000,6.6147109375,1.7328502132892607,-1.4723206237494946,1.1453022537797688
1783245722754723000,6.62472314453125,1.6921213125377892,-1.4636486569941043,1.1196579633049666
1783245722764735000,6.63473486328125,1.6097545794963837,-1.4420231006413697,1.1140360317699611
1783245722774747000,6.644746826171875,1.44746850656569,-1.438430336846411,1.1498368284694849
1783245722784759000,6.654759033203125,1.2104676766514777,-1.467230314873159,1.2280474647447466
1783245722794771000,6.66477099609375,1.0255272888422011,-1.5038319065615533,1.298125355707854
1783245722804783000,6.674783203125,0.9023667731195688,-1.4845260253280401,1.3171984510987997
1783245722814795000,6.684794921875,0.8357476443082094,-1.4473200380057096,1.2659005177989602
1783245722824807000,6.694806884765625,0.748156454616785,-1.4483309686139225,1.1026173966549335
1783245722834819000,6.704819091796875,0.6547995410054922,-1.42605805426836,0.9112355776213109
1783245722844831000,6.7148310546875,0.5726695393294096,-1.3782982319667934,0.7785210516117512
1783245722854843000,6.7248427734375,0.5515186147511005,-1.315603290861845,0.7288410749025642
1783245722864855000,6.73485498046875,0.5711690716385841,-1.2971288920164108,0.6780227418132126
1783245722874867000,6.744866943359375,0.5831774893403053,-1.3403677297621965,0.6080883509740234
1783245722884879000,6.754879150390625,0.6088859310925007,-1.3959911250457167,0.5793916871912778
1783245722894891000,6.76489111328125,0.6046838032275438,-1.3987602974981068,0.5593421479836106
1783245722904903000,6.77490283203125,0.6354553735882044,-1.4738409651845692,0.5658754222098737
1783245722914913800,6.784913818359375,0.8292202883660793,-1.5033005761638283,0.6190596076477318
1783245722924926000,6.794926025390625,0.9495499645769595,-1.514521058358252,0.602335851861909
1783245722934937900,6.804937744140625,1.0203063393235206,-1.5305232218712568,0.5572890879113227
1783245722944950000,6.814949951171875,1.0472112973839045,-1.5317553940147162,0.5237218224175274
1783245722954962000,6.8249619140625,0.9890209742218256,-1.51608202406466,0.4931755121801048
1783245722964973800,6.834973876953125,0.853391437548399,-1.5848302738592028,0.4872297555182129
1783245722974986200,6.844986328125,0.5982002864271402,-1.674693500135839,0.548605869109556
1783245722984998100,6.854998046875,0.2645148597836494,-1.646803914952278,0.6139399996116757
1783245722995010000,6.865010009765625,-0.07193184826672076,-1.6063225592210888,0.5980105360087007
1783245723005022200,6.875022216796875,-0.3700298287004232,-1.5843547653019427,0.47846872223988174
1783245723015034000,6.8850341796875,-0.5756470938354731,-1.510620397657901,0.34491818379759787
1783245723025046300,6.89504638671875,-0.7217980245232581,-1.457888924423605,0.24078991999886928
1783245723035058200,6.90505810546875,-0.8833201273441315,-1.4485912269853054,0.2278850649140775
1783245723045070000,6.915070068359375,-0.9511936401307582,-1.437613759766519,0.2518905752059072
1783245723055082200,6.925082275390625,-0.822460292711854,-1.368563604415953,0.2961865938544273
1783245723065094100,6.93509423828125,-0.5540063399136066,-1.1606611509531735,0.25887597711384297
1783245723075106000,6.94510595703125,-0.2965636104732752,-0.8885159424215555,0.21583616907149553
1783245723085118200,6.9551181640625,0.0006441431224346161,-0.7115192070931196,0.16399273071810602
1783245723095130000,6.965130126953125,0.2314765135347843,-0.5902256542861462,0.12150065621901303
1783245723105142300,6.975142333984375,0.21830898892581463,-0.5965042961642146,0.09514898465983569
1783245723115153400,6.9851533203125,-0.005175356811285018,-0.7163634322538972,0.0946913040202111
1783245723125165300,6.995165283203125,-0.46235389213263983,-0.768268683797121,0.1813786767397076
1783245723135177200,7.00517724609375,-0.9065168785363436,-0.568482755164057,0.43460700335539876
1783245723145189400,7.015189453125,-1.1804115610837935,-0.3060616527892649,0.7872821579553186
1783245723155201300,7.025201171875,-1.2155956871896982,-0.11473156394287944,0.9056419223327189
1783245723165213400,7.03521337890625,-1.0833961249649524,-0.005751987655460834,0.8865655390061438
1783245723175225300,7.045225341796875,-0.8442448390185833,0.08730945014059543,0.7777225947104394
1783245723185237200,7.0552373046875,-0.537444496691227,0.10898542150631546,0.5570024164570495
1783245723195249400,7.06524951171875,-0.34974458104073997,-0.03852437644451857,0.2590820576125756
1783245723205261300,7.07526123046875,-0.2393804185271263,-0.11276947008967399,0.018755809602700173
1783245723215273200,7.085273193359375,-0.25140344927608965,-0.039251667805761094,-0.16683906005993485
1783245723225285400,7.095285400390625,-0.5183937592625618,0.05734393546581268,-0.3325467780023813
1783245723235297300,7.10529736328125,-0.7611527143120765,0.16842501407712698,-0.3820039422737434
1783245723245309400,7.115309326171875,-0.9479355151176452,0.333873350431025,-0.2725018399495631
1783245723255321300,7.1253212890625,-1.0619500168323517,0.5071057647898793,-0.05575416379002854
1783245723265333200,7.135333251953125,-1.1105728857040404,0.6072044077463448,0.10003524059774353
1783245723275345400,7.145345458984375,-1.0474404299646616,0.5950441604837775,0.27584760671351105
1783245723285357300,7.155357421875,-0.7734779428780079,0.5273867746658623,0.42568851449303324
1783245723295369200,7.165369140625,-0.4977390937685966,0.44870296792089936,0.5187669034238904
1783245723305380400,7.17538037109375,-0.25593875461816784,0.3738008716717362,0.5431142494233325
1783245723315392300,7.185392333984375,-0.03972176953554153,0.3187079300031066,0.5075143090581521
1783245723325404200,7.195404052734375,0.15699498078525065,0.272747850599885,0.4630251424577087
1783245723335416300,7.205416259765625,0.23026830678880214,0.23807810375690458,0.4737896610455587
1783245723345428200,7.21542822265625,0.11598317143917083,0.22130583265423773,0.473931845995225
1783245723355440000,7.225440185546875,-0.045485155367851256,0.21465514259338378,0.48864656351357694
1783245723365452300,7.235452392578125,-0.2289016946107149,0.16946809338927268,0.5295169550949708
1783245723375464200,7.245464111328125,-0.47016135101318357,0.15347148283421994,0.6021925344010814
1783245723385476400,7.255476318359375,-0.6177390996336937,0.1251750704154372,0.6723796213597059
1783245723395488300,7.26548828125,-0.5509890379190444,0.06877835267186165,0.7155825110092758
1783245723405500200,7.275500244140625,-0.35518472626805303,0.08709493060708046,0.6383499259859323
1783245723415512300,7.28551220703125,-0.06995324167013169,0.11989625322967767,0.5174926457043737
1783245723425524200,7.295524169921875,0.30995792957544327,0.10949819333404302,0.32134536583460865
1783245723435536100,7.3055361328125,0.6761655696392059,0.11161007092148065,0.13858361897235735
1783245723445548300,7.31554833984375,0.9132055625200272,0.16276158148795367,0.0754566613920033
1783245723455560200,7.325560302734375,1.1647750160127877,0.16717004557996987,0.07103457976658828
1783245723465572400,7.335572265625,1.4656208338499068,0.07443681682497262,0.015101579677779227
1783245723475584300,7.345584228515625,1.5842489668399096,0.07455518250763415,-0.021002615848532878
1783245723485596200,7.35559619140625,1.3079951539456844,0.11979805355221032,0.024947700212500055
1783245723495608300,7.3656083984375,1.5725877551406622,-0.09842530291676521,0.024830266111600212
1783245723505619200,7.375619140625,1.921786392736435,-0.36025253105163574,-0.08224153575915842
1783245723515631000,7.385631103515625,1.7613830648124218,-0.3933244873091578,0.08926917850677855
1783245723525643300,7.395643310546875,1.485368905892968,-0.2145715559631586,0.3242084271155298
1783245723535655200,7.4056552734375,1.204752806136012,-0.10623276179730892,0.5012723824612796
1783245723545667000,7.4156669921875,0.7938187201172113,-0.06494447359740733,0.44034587580095974
