time,seconds_elapsed,z,y,x
1783245572767422700,0.066422607421875,0.7218009471327066,0.29002456409335137,-0.565929234756343
1783245572777434600,0.0764345703125,0.7761001080751418,0.33390754496157166,-0.5683537950221449
1783245572787446800,0.08644677734375,0.6358294675976037,0.37810412182360886,-0.5590392925795168
1783245572797457700,0.096457763671875,0.45857846524715423,0.43424511124044657,-0.5396471213020384
1783245572807469600,0.106469482421875,0.31666765634715555,0.5286708231270313,-0.5333868187982589
1783245572817481700,0.116481689453125,0.07498071444332599,0.49845922473669046,-0.5177758465599268
1783245572827494400,0.126494384765625,-0.17729542601406573,0.37142405953779817,-0.48266569900568573
1783245572837505300,0.13650537109375,-0.4376251090675592,0.25577245814055205,-0.447890482494235
1783245572847517200,0.14651708984375,-0.6367272932201623,0.22311419725045561,-0.3660480655878782
1783245572857529000,0.156529052734375,-0.7484937237471342,0.3003340689226985,-0.27111593854911625
1783245572867541200,0.166541259765625,-0.7261135496348142,0.45433045241385694,-0.20626476925835013
1783245572877552400,0.176552490234375,-0.6771358759760856,0.5571586664646864,-0.2334788663331419
1783245572887564300,0.186564208984375,-0.5858300496757031,0.5527060709699988,-0.39170572700090706
1783245572897576400,0.196576416015625,-0.4309112906426191,0.43407106984779237,-0.6067576138269156
1783245572907588400,0.20658837890625,-0.31917817786335945,0.3607183949977159,-0.7556613503541797
1783245572917599200,0.21659912109375,-0.30091245333254335,0.34030046086907384,-0.859489389097318
1783245572927611400,0.226611328125,-0.32274551495611664,0.37073987666592,-0.911945041064918
1783245572937623300,0.236623291015625,-0.4634907872080803,0.40203517863973975,-0.9438668774392456
1783245572947635200,0.24663525390625,-0.7084370231688022,0.37966830240041016,-0.9773532597165554
1783245572957646300,0.256646240234375,-0.9788356802940368,0.369060399146378,-0.9585644611597061
1783245572967658200,0.266658203125,-1.2382178533643484,0.32648689344152804,-0.905641264745593
1783245572977670100,0.276670166015625,-1.5110171418905258,0.2669096459656954,-0.77930664903149
1783245572987682300,0.286682373046875,-1.7166916901707647,0.25568185724765063,-0.6409646385289728
1783245572997693200,0.296693115234375,-1.8235744403094052,0.23939167057350277,-0.5395424188185483
1783245573007705000,0.306705078125,-1.858099810245633,0.24145444832220672,-0.4947401311483234
1783245573017717200,0.31671728515625,-1.8666870213270186,0.21893398895636199,-0.47261495471037923
1783245573027729200,0.326729248046875,-1.8527181172072886,0.22992694600522517,-0.4357326463844627
1783245573037740300,0.336740234375,-1.8116811734199523,0.2858906791590154,-0.4082883207503706
1783245573047752400,0.34675244140625,-1.7935323532670735,0.3668621584497392,-0.4784321896217763
1783245573057764400,0.356764404296875,-1.7484136931240557,0.44656303328275676,-0.6112677847277372
1783245573067776300,0.3667763671875,-1.6658908927381038,0.5336344368837773,-0.7374888570647686
1783245573077787400,0.376787353515625,-1.484839329060912,0.6177022747546435,-0.7867424250554292
1783245573087799300,0.38679931640625,-1.276624448648095,0.6001920447662472,-0.7895160544872284
1783245573097811200,0.396811279296875,-1.152245204785466,0.5416558307759464,-0.7438773890580982
1783245573107822000,0.406822021484375,-1.0431728356480598,0.4701926229342818,-0.6513833028212189
1783245573117834200,0.416834228515625,-0.9591197569549084,0.4374931532509625,-0.5467873484455049
1783245573127846100,0.42684619140625,-0.8517787416547536,0.4311190881744027,-0.4205399360908195
1783245573137858300,0.4368583984375,-0.8152262498050927,0.4010546431697905,-0.36843492419179524
1783245573147869400,0.446869384765625,-0.7155681902229786,0.3489265426561236,-0.38139505312778055
1783245573157881300,0.45688134765625,-0.5745727426022291,0.35645606137812136,-0.4080370128704235
1783245573167893200,0.466893310546875,-0.39425475389659403,0.4448169202677905,-0.43814982706140726
1783245573177905400,0.476905517578125,-0.2963730563372373,0.5263070166051388,-0.5612377524718641
1783245573187916300,0.486916259765625,-0.3201104902774095,0.4861280048213899,-0.7101267298214137
1783245573197928200,0.49692822265625,-0.40393852804303165,0.46170711866170167,-0.8332366844005882
1783245573207940400,0.5069404296875,-0.4898801969617605,0.5142674731127918,-0.8505746265619992
1783245573217952300,0.5169521484375,-0.570509146425128,0.5905778287246823,-0.7274105306427925
1783245573227963100,0.526963134765625,-0.5476636928886175,0.6613609453476965,-0.5812423930918797
1783245573237975300,0.536975341796875,-0.50912791826725,0.6836784294873476,-0.4328637764172628
1783245573247987200,0.5469873046875,-0.5106055896043777,0.5963811081759631,-0.34137305853664873
1783245573257999000,0.5569990234375,-0.47744332471489903,0.5251550700910389,-0.2870825740910135
1783245573268010500,0.567010498046875,-0.37782384357750415,0.4527613034009933,-0.19349305730024352
1783245573278022400,0.5770224609375,-0.20042028101384637,0.42883010045439,-0.059597614410426464
1783245573288034300,0.587034423828125,0.11058978796303272,0.37271278417408465,0.13439356513768433
1783245573298046500,0.59704638671875,0.15121230573058128,0.29247575663775205,0.11502209872151724
1783245573308057300,0.607057373046875,0.29495325266718864,0.28523557625114915,0.011211787431314587
1783245573318069200,0.6170693359375,0.3869184196591377,0.21532062076479194,-0.12426768238008953
1783245573328081400,0.627081298828125,0.31452246101200576,0.21800737563073633,-0.4553609279727563
1783245573338093300,0.63709326171875,0.3062269263535738,0.6460165150910615,-0.3891107786042616
1783245573348104200,0.647104248046875,0.14125731342732906,0.868050077497959,-0.4785340790936723
1783245573358116400,0.657116455078125,0.08970891249775886,0.8525060330159961,-0.7190845277808606
1783245573368128300,0.667128173828125,0.06341010363698005,0.7989280259549617,-0.9594283845126629
1783245573378140200,0.67714013671875,-0.026613866159319877,0.7808313743807375,-1.113873826945573
1783245573388151300,0.6871513671875,-0.19139292494952678,0.7262256317071616,-1.0262679511416704
1783245573398163200,0.6971630859375,-0.45760932795405385,0.5712216786086559,-0.8635562001448124
1783245573408175000,0.707175048828125,-0.7451093420058489,0.46855566938221455,-0.6733372874107212
1783245573418187300,0.717187255859375,-0.9398843106091022,0.4594093631133437,-0.4141263427214697
1783245573428198400,0.727198486328125,-1.0221236178785562,0.5594912010654807,-0.129292954063043
1783245573438210300,0.737210205078125,-1.0823691200047731,0.7125486962713301,0.08438189965556375
1783245573448222500,0.747222412109375,-1.0202128158211707,0.7809262130573391,0.10940348252160474
1783245573458233300,0.7572333984375,-0.7898410486578941,0.7678679940417409,-0.005056799332378432
1783245573468245200,0.767245361328125,-0.5342582678705453,0.6836065332949162,-0.24307772040879352
1783245573478257200,0.777257080078125,-0.2547404847443104,0.6402773869171738,-0.4400213565543294
1783245573488269300,0.787269287109375,-0.07889934919178486,0.6057374039337039,-0.5435931189814582
1783245573498280200,0.7972802734375,-0.02952244708240032,0.5834212349683046,-0.5568035694167017
1783245573508292000,0.8072919921875,-0.011534370449185372,0.5554927790790796,-0.4561130980469286
1783245573518304300,0.81730419921875,0.07799567835032939,0.5804407578527927,-0.3135186177317053
1783245573528316200,0.827316162109375,0.21852935367822646,0.5828130399420857,-0.23343846125751733
1783245573538327300,0.837327392578125,0.390604999217391,0.5350827359959482,-0.24938100353777407
1783245573548339500,0.84733935546875,0.4684516244858503,0.4697916409179568,-0.3087809582179412
1783245573558351400,0.857351318359375,0.4267296210438013,0.39544396368116136,-0.35131201302055265
1783245573568363300,0.86736328125,0.19911445911228656,0.2942766685798764,-0.36867530881892885
1783245573578374400,0.87737451171875,-0.20136253030002116,0.1375134507238865,-0.3647895534267649
1783245573588386300,0.88738623046875,-0.5534598119467496,0.010870938104391097,-0.3091276892963797
1783245573598398200,0.897398193359375,-0.7582453024327754,-0.005528700293600559,-0.21443010166585444
1783245573608410400,0.907410400390625,-0.8453478318244219,0.052714814360439774,-0.11021342893131077
1783245573618421200,0.917421142578125,-0.8184984033435583,0.21157237414717672,-0.022998232945427296
1783245573628433200,0.92743310546875,-0.6513555380314588,0.39342122568190097,0.016059592788666487
1783245573638445300,0.9374453125,-0.35023850203752516,0.5801446975156664,0.006437120375409722
1783245573648457200,0.947457275390625,0.06307575711607932,0.729366706211865,-0.05454707128889858
1783245573658468400,0.95746826171875,0.6054898589134216,0.8110586087316274,-0.23860252948980776
1783245573668480500,0.96748046875,0.7972861039668321,0.6433280066594481,-0.45896158281322563
1783245573678492400,0.977492431640625,0.7186345920562743,0.30331834543049335,-0.6467610498480498
1783245573688504300,0.98750439453125,0.6512357110440731,0.24832711057066917,-0.6886005421899258
1783245573698515200,0.99751513671875,0.5394862316519021,0.4266398969337344,-0.5796902317464351
1783245573708527400,1.00752734375,0.49772857237458223,0.568358690392971,-0.5547131730087101
1783245573718539300,1.017539306640625,0.47406595723628997,0.6687365886822343,-0.6199458158977329
1783245573728550100,1.027550048828125,0.44130467436313625,0.6949602864801884,-0.7043133673675358
1783245573738562300,1.037562255859375,0.33010932172238827,0.7224880526140331,-0.7409924082063138
1783245573748574200,1.04757421875,0.2361480124771595,0.8031526579126715,-0.6840346955791116
1783245573758586000,1.057586181640625,0.18435937305092812,0.8394640344828367,-0.6256130478791893
1783245573768597200,1.06759716796875,0.13287410048544407,0.8315542842715978,-0.5397962839817628
1783245573778609200,1.077609130859375,0.20554595346450805,0.840602975384891,-0.4590985801311209
1783245573788621300,1.087621337890625,0.35639527110159397,0.8298588785305618,-0.3680148721488192
1783245573798633200,1.09763330078125,0.62509413857162,0.8111220293566584,-0.3367118983251974
1783245573808644400,1.107644287109375,0.8660498435914515,0.7937143829599023,-0.3327453693144023
1783245573818656300,1.11765625,1.0131266569525004,0.8246490349277853,-0.3013964557235129
1783245573828668400,1.12766845703125,1.095463579377532,0.9228221166491508,-0.17177812389731406
1783245573838680300,1.137680419921875,1.0060358219087124,0.9624901101708412,-0.07806014928813092
1783245573848691200,1.147691162109375,0.7718453732401133,0.908524711227417,-0.07875327351829037
1783245573858703000,1.157703125,0.38478549928367134,0.7556810049027204,-0.0896987016309984
1783245573868715300,1.16771533203125,-0.15176701700389383,0.5791004491597413,-0.02758265639254823
1783245573878727200,1.17772705078125,-0.7286778471648693,0.5107742241695523,0.21073325644191354
1783245573888738000,1.187738037109375,-1.2199959679752588,0.5981821662485599,0.4599163627874106
1783245573898750200,1.197750244140625,-1.7218530184566974,0.7849065148651599,0.7023156176790595
1783245573908762000,1.20776220703125,-2.047340525597334,0.9857993818268179,0.848911661785841
1783245573918774000,1.21777392578125,-2.1492320433199406,1.1468857235789298,0.7982394591689109
1783245573928785400,1.227785400390625,-1.9150392565637826,1.2038844988688826,0.5830015117188915
1783245573938797300,1.23779736328125,-1.4879717818677425,1.1142118267282843,0.2663265488481149
1783245573948809200,1.247809326171875,-1.0338339294165373,1.0057900304540992,-0.044488034089282154
1783245573958821400,1.2578212890625,-0.6623223377257585,0.947020153838396,-0.22896980967717243
1783245573968832300,1.267832275390625,-0.31389351545870303,1.0279267511993646,-0.23564565244559196
1783245573978844200,1.27784423828125,-0.05308861610889434,1.1200047309160233,-0.17568431928930803
1783245573988856300,1.287856201171875,0.15739420923590658,1.1537307671681045,-0.04073133017057553
1783245573998867200,1.2978671875,0.37993630568683145,1.1726724912643431,0.16232969287671148
1783245574008879000,1.307879150390625,0.564621257430315,1.1736252619445324,0.3589421060401946
1783245574018891300,1.317891357421875,0.7159037057876586,1.1334265225470066,0.5515998267611488
1783245574028903200,1.327903076171875,0.8342559444457293,1.0258791710197925,0.6867449043858797
1783245574038914300,1.337914306640625,0.9009101445704698,0.8812892060384154,0.7308717039473355
1783245574048926500,1.347926513671875,0.8784750254005194,0.7766399140402674,0.7975321876823902
1783245574058938400,1.3579384765625,0.8367343172580003,0.748897043851018,0.8573581492222845
1783245574068950300,1.3679501953125,0.7546557535082101,0.7404317055836319,0.9337257879793643
1783245574078961200,1.377961181640625,0.6237006383866072,0.6695417675852775,0.9798796363890171
1783245574088973300,1.387973388671875,0.4307166448533535,0.600946078003943,0.9965658366434276
1783245574098985200,1.397985107421875,0.23815759873390197,0.5069125803053379,1.025815896525234
1783245574108997400,1.407997314453125,0.14202888232171534,0.400317999458313,1.1024665900073944
1783245574119008300,1.41800830078125,0.08576455878615379,0.3043628860473633,1.1948601384792477
1783245574129020200,1.428020263671875,-0.012193126618862151,0.21246230872422456,1.2318725759908555
1783245574139032000,1.438031982421875,0.04038929353356361,0.13948913471102714,1.2900269510567188
1783245574149044200,1.448044189453125,0.04146773642003536,0.09447919563949107,1.3167640052042902
1783245574159055400,1.458055419921875,-0.01891045217514038,0.05812777931988239,1.291581048630923
1783245574169067300,1.4680673828125,0.06123159055411815,-0.018103811967372894,1.2581810294628142
1783245574179079200,1.4780791015625,0.21950199810266494,-0.08029314163774251,1.1789253411140292
1783245574189091300,1.48809130859375,0.352445072171092,-0.11589023245871066,1.0696012622378765
1783245574199102200,1.498102294921875,0.41953766371309753,-0.19128157352954148,0.9669866178724914
1783245574209114400,1.5081142578125,0.5673235021263361,-0.28236791186034677,0.8929190727513283
1783245574219126300,1.518126220703125,0.6691191582590341,-0.3414902551755309,0.8574319451108574
1783245574229138200,1.52813818359375,0.7305950789630412,-0.40711803486198184,0.8504628367505968
1783245574239149300,1.5381494140625,0.692202512204647,-0.4915341016486287,0.8008199771814047
1783245574249161200,1.5481611328125,0.6260930864810943,-0.5119400530785322,0.8160866660267114
1783245574259173000,1.558173095703125,0.6575882949411869,-0.4572057155892253,0.8608127466555684
1783245574269184300,1.568184326171875,0.7956535343289375,-0.4411854318976402,0.8950066196151077
1783245574279196200,1.578196044921875,0.9510936868876219,-0.4793135025009513,0.8635708862572908
1783245574289208000,1.5882080078125,1.091056284329295,-0.5530556150600314,0.7938329678382724
1783245574299220200,1.59822021484375,1.171915535417199,-0.6171046011224389,0.7391429809473454
1783245574309231400,1.6082314453125,1.231623861926794,-0.7118079609066248,0.7174844721730798
1783245574319243300,1.6182431640625,1.2659358813732862,-0.811891260163486,0.7087853982150554
1783245574329255400,1.62825537109375,1.1893220127701758,-0.9281953341200947,0.674017890086025
1783245574339267300,1.638267333984375,1.0476286460131405,-1.022593865738809,0.676495897572115
1783245574349278200,1.6482783203125,0.8916653463631868,-0.994331647850573,0.7022657871879637
1783245574359290000,1.6582900390625,0.7152396889209747,-0.9075605423703789,0.8135840355560183
1783245574369302300,1.66830224609375,0.640474663054943,-0.8563552557900548,0.8880841268755495
1783245574379314200,1.678314208984375,0.6255296073794364,-0.8775155327185988,0.799154089795798
1783245574389325000,1.688324951171875,0.569707182392478,-1.0046700865134597,0.6320620778881013
1783245574399337200,1.698337158203125,0.49503100385367865,-1.107224452058971,0.4885372213875875
1783245574409349000,1.70834912109375,0.4198924685001373,-1.0745935175672172,0.41519806360621003
1783245574419361300,1.718361328125,0.28658231468498707,-1.0289023182332515,0.36031127550154923
1783245574429372400,1.728372314453125,0.07065349889397621,-1.0701394607678054,0.29656171077713367
1783245574439384300,1.73838427734375,-0.11071136851608752,-1.106159160915017,0.30929793129675087
1783245574449396200,1.748396240234375,-0.2824251950055361,-1.0735042610257863,0.3706300596158951
1783245574459407400,1.758407470703125,-0.446305259129405,-1.0807938335120677,0.42080954681243743
1783245574469419300,1.768419189453125,-0.6173924781531095,-1.14506698371917,0.3673967037178576
1783245574479431200,1.77843115234375,-0.7441320214062929,-1.1554694275289774,0.27734902425240726
1783245574489443300,1.788443359375,-0.883369227182865,-1.1274454023107885,0.23004973213467744
1783245574499454200,1.7984541015625,-0.9995230790138244,-1.0501172479584813,0.2296521293855272
1783245574509466000,1.808466064453125,-1.082328203472495,-0.9069146456822752,0.1535968993121758
1783245574519478300,1.818478271484375,-1.2342501187771557,-0.8727470031425356,-0.10004441028488799
1783245574529490200,1.828490234375,-1.4172949020981789,-0.9566983750268816,-0.4024003586903214
1783245574539501300,1.838501220703125,-1.4961796382427215,-1.0160951513692735,-0.5562742117803543
1783245574549513200,1.84851318359375,-1.5109171886473893,-0.935031902141869,-0.5531453391700982
1783245574559525400,1.858525390625,-1.4131389514625072,-0.8353539688155055,-0.5064162481557578
1783245574569537300,1.868537353515625,-1.334870301389694,-0.8255451069846749,-0.4811088614851236
1783245574579548200,1.878548095703125,-1.3255857556939123,-0.8442068450957536,-0.5919870379354805
1783245574589560300,1.888560302734375,-1.3056693413466214,-0.8546843999683856,-0.7403416892126202
1783245574599572200,1.898572265625,-1.3516536784082651,-0.8274623387828469,-0.7410782598588616
1783245574609584400,1.90858447265625,-1.3557652053803204,-0.6639023003935813,-0.673599956934899
1783245574619595300,1.91859521484375,-1.3273831605046986,-0.4748015780344605,-0.5766079747568815
1783245574629607200,1.928607177734375,-1.1815922953009605,-0.28610855969339605,-0.4451049434289336
1783245574639619300,1.938619384765625,-0.9207973328232765,-0.0219181095585227,-0.30010913759302343
1783245574649631200,1.94863134765625,-0.6268319221496582,0.24081921915858984,-0.14889390925299376
1783245574659642000,1.95864208984375,-0.29695640918314453,0.41785394840985535,-0.10653331564646214
1783245574669654000,1.968654052734375,0.04906067576706409,0.5048658769086003,-0.1623096364693716
1783245574679666200,1.978666259765625,0.34699791268110275,0.58407326913625,-0.2476110712558031
1783245574689677300,1.98867724609375,0.6216080500215292,0.6791969001591205,-0.2876632783221081
1783245574699689200,1.998689208984375,0.8483248018085956,0.7935098002985119,-0.3335262905590236
1783245574709701400,2.008701416015625,1.0254852032661437,0.917907456600666,-0.3540068415950984
1783245574719713300,2.01871337890625,1.1715174760103224,0.9762292971879243,-0.3559184473700821
1783245574729724200,2.02872412109375,1.300091833475232,0.9459270979046821,-0.3657870034988969
1783245574739736300,2.038736328125,1.3290753513753413,0.9162629042640328,-0.34985717456974086
1783245574749748200,2.048748291015625,1.2506675850927829,0.8973615121781825,-0.32788908838965
1783245574759760100,2.058760009765625,1.1202841323792934,0.960914531417191,-0.34278073337748644
1783245574769771300,2.068771240234375,0.9585007482737302,1.0674576743379234,-0.3339948579188436
1783245574779783200,2.078783203125,0.8167816625535488,1.097798452065885,-0.3384045641198754
1783245574789795000,2.088795166015625,0.6859048733651638,1.1416524991005659,-0.38261297755017876
1783245574799807200,2.09880712890625,0.39288989528417584,1.042737659101188,-0.4217236659826711
1783245574809818400,2.108818359375,-0.03601648527681827,0.8461769761249422,-0.3862088466176763
1783245574819830300,2.118830322265625,-0.5471919837236404,0.6692208650678396,-0.13367383602838961
1783245574829842400,2.128842529296875,-1.2051730773746967,0.5478700291156768,0.2313448134465143
1783245574839854300,2.138854248046875,-1.7864888644963501,0.5573243784204125,0.667907152120769
1783245574849865200,2.148865234375,-2.019812467202544,0.7559083839178085,1.0956284145504236
1783245574859877400,2.15887744140625,-1.9565105001151561,0.997785587696731,1.3449809226460754
1783245574869889300,2.16888916015625,-1.5296616366058586,1.0516498643532395,1.3219780865907669
1783245574879901200,2.178901123046875,-0.8415934477269649,0.8862120493933558,1.0988089442826807
1783245574889912000,2.188912109375,-0.0785135647445917,0.6983274248257278,0.8695373203810304
1783245574899924200,2.19892431640625,0.5446054743617773,0.6039093117237091,0.6511845653787255
1783245574909936000,2.20893603515625,0.9782727857142687,0.5539502258121967,0.4930803081773221
1783245574919947300,2.218947265625,1.0842068568259478,0.4514204101860523,0.3203408649671823
1783245574929959400,2.22895947265625,0.8911877919793129,0.2566357969716191,0.27009181966576723
1783245574939971300,2.238971435546875,0.6345686538815498,0.19831278734058141,0.3336794352941215
1783245574949983200,2.248983154296875,0.345469972461462,0.2858715360671282,0.478965456248261
1783245574959994400,2.258994384765625,0.011212298887968063,0.38771483073383567,0.5473730028463527
1783245574970006300,2.26900634765625,-0.22873101421892642,0.41313042701929803,0.5115778321700171
1783245574980018200,2.27901806640625,-0.2313157700151205,0.44914545099139214,0.44371381786409764
1783245574990030300,2.2890302734375,-0.025805472385883328,0.4892667412385344,0.38175573966633525
1783245575000041200,2.299041259765625,0.3527624675571918,0.4767705400198698,0.28760144686596467
1783245575010053000,2.30905322265625,0.746875182634592,0.3220551946043968,0.10084752509500831
1783245575020065300,2.319065185546875,1.1047972249120472,0.054602235542237754,-0.09816451482241972
1783245575030077200,2.3290771484375,1.3458224880367518,-0.17085925548672676,-0.24782270471248774
1783245575040088000,2.339088134765625,1.3655921873897314,-0.2683323722451925,-0.18571716260174287
1783245575050100200,2.349100341796875,1.1791390569299458,-0.2712359847322106,-0.003341136254603043
1783245575060112100,2.359112060546875,0.8805097460985183,-0.190719263471663,0.17343102393718435
1783245575070124000,2.3691240234375,0.5963607960402966,-0.09100099813491105,0.28125589549783614
1783245575080135400,2.379135498046875,0.39923955657184124,-0.0752048785880208,0.3276563390797004
1783245575090147300,2.389147216796875,0.29792788456380365,-0.16629823118150233,0.2924904062176123
1783245575100159200,2.3991591796875,0.33969372714757917,-0.2848579751104116,0.1969817031336017
1783245575110171400,2.40917138671875,0.3610854747444391,-0.4642331300079822,0.06781175439571961
1783245575120182300,2.419182373046875,0.27384499818682667,-0.6854635593384504,-0.0628602877344936
1783245575130194200,2.429194091796875,0.04015314669013023,-0.8663464884504676,-0.17084087957981972
1783245575140206300,2.439206298828125,-0.31664719808101655,-1.0002540236368775,-0.2753002202301286
1783245575150217200,2.44921728515625,-0.7365583712816238,-1.0067156208664179,-0.3539424711219966
1783245575160229000,2.45922900390625,-1.0516314519137144,-0.8549544490814208,-0.32218324143085625
1783245575170241300,2.4692412109375,-1.2169663910210131,-0.5881847961083054,-0.2501031985987909
1783245575180253200,2.479253173828125,-1.2397931398570536,-0.33762042800486086,-0.28922457282207903
1783245575190264300,2.489264404296875,-1.0234259326487778,-0.21609569679051635,-0.45144963628053664
1783245575200276200,2.499276123046875,-0.7420902864456176,-0.2295315169468522,-0.6184808579117059
1783245575210288400,2.509288330078125,-0.4222124358803034,-0.2967155861645937,-0.7324461136572062
1783245575220300300,2.51930029296875,-0.18796996476352212,-0.3622600714817643,-0.8660030818402766
1783245575230311200,2.529311279296875,-0.09535247134268283,-0.36302871776670215,-0.9407462612006813
1783245575240323300,2.5393232421875,-0.1446416951686144,-0.32842706772387026,-0.9438428389765322
1783245575250335200,2.549335205078125,-0.24751813227534292,-0.32586013984531165,-0.9008047114346176
1783245575260347100,2.55934716796875,-0.4234872781217098,-0.29581892958581446,-0.8066933261942117
1783245575270358300,2.569358154296875,-0.6313952845424413,-0.14987199703752993,-0.639643911319226
1783245575280370200,2.5793701171875,-0.662545040565729,0.04698766888529062,-0.4739379834750667
1783245575290382000,2.589382080078125,-0.503040707308054,0.19937953978925943,-0.39873800025787204
1783245575300394200,2.599394287109375,-0.31361820564866066,0.24121084882467983,-0.4117847480313852
1783245575310405400,2.6094052734375,-0.14243454051315785,0.13948913471102714,-0.483513511474058
1783245575320417300,2.619417236328125,-0.00784136115014553,0.02596153973042965,-0.5081416837088764
1783245575330429400,2.629429443359375,0.02291150451004505,-0.08532675189077854,-0.5498152814319357
1783245575340440300,2.6394404296875,-0.08850596644878386,-0.1521831965893507,-0.5293546406727284
1783245575350452200,2.6494521484375,-0.2794090620547533,-0.14795505750030277,-0.46706049892101437
1783245575360464400,2.65946435546875,-0.5898813708931208,-0.1270557695955038,-0.4148696719020605
1783245575370476300,2.669476318359375,-0.9185375711977481,-0.12783055336028337,-0.40810098148472607
1783245575380487200,2.679487060546875,-1.2018617608696223,-0.09147153825610875,-0.4616603203779086
1783245575390499300,2.689499267578125,-1.3825690411537885,0.014444997198879718,-0.6027961263174191
1783245575400511200,2.69951123046875,-1.3828531187921762,0.14720599269866944,-0.7541925929758697
1783245575410523100,2.709523193359375,-1.277288465514779,0.3157102094918489,-0.8543168818302452
1783245575420534000,2.719533935546875,-1.0055997685790061,0.3898059577941894,-0.9371844040006398
1783245575430546200,2.729546142578125,-0.5814899746447801,0.43677901363223787,-0.9144076317861676
1783245575440558000,2.73955810546875,-0.25264614281356335,0.3655836629465222,-0.8604828571140766
1783245575450570200,2.7495703125,-0.13069967905580998,0.19303309337198732,-0.7832808133594691
1783245575460581400,2.759581298828125,-0.2521200731128454,0.0944800724223256,-0.4895922833984717
1783245575470593300,2.76959326171875,-0.5049012404829264,0.16974661806970834,0.009593091055145487
1783245575480605200,2.779605224609375,-0.8288654835790396,0.32107056748121976,0.5518932932823896
1783245575490617300,2.789617431640625,-1.0389923350930212,0.4474003608897328,1.0322530169006436
1783245575500628200,2.799628173828125,-1.0524421837747095,0.5430313569128513,1.5124429369099437
1783245575510640000,2.80964013671875,-0.8660252936720848,0.5805386652693152,1.949047763019055
1783245575520652300,2.81965234375,-0.6448439641803503,0.47195232608318327,2.252818674522638
1783245575530664200,2.829664306640625,-0.46688159869015217,0.22432196560502052,2.524808984753489
1783245575540675000,2.839675048828125,-0.3287468011975288,0.011837737309932707,2.824839979076385
1783245575550687200,2.849687255859375,-0.21230419555306435,-0.10242226359844207,3.0998870465293527
1783245575560699100,2.85969921875,-0.08945932165086269,-0.11107757147997617,3.2648437999740243
1783245575570710300,2.869710205078125,-0.10935644677579402,-0.054686698955297465,3.3275109762892123
1783245575580722400,2.879722412109375,-0.23015841667354106,0.01926379565745592,3.0644205963507294
1783245575590734300,2.889734375,-0.1768394989401102,0.2171045815721154,2.688764452201128
1783245575600746200,2.899746337890625,-0.008803484180569648,0.5208779772937298,2.319536003011465
1783245575610757400,2.90975732421875,0.2260346147418022,0.714877285349369,1.9051655128031968
1783245575620769300,2.919769287109375,0.4038286379277706,0.6577770955115556,1.464963831245899
1783245575630781200,2.92978125,0.3869610897570848,0.40292788969576354,1.071159597595781
1783245575640793300,2.93979345703125,0.389019775852561,0.35987463764995337,0.8527083506550639
1783245575650804200,2.94980419921875,0.37981881678700447,0.5135702846288681,0.7314107061948627
1783245575660816100,2.959816162109375,0.3919727804392576,0.6224331026688218,0.6206132668305188
1783245575670828300,2.969828369140625,0.6037912383019923,0.716986532588303,0.5532811674442142
1783245575680840200,2.979840087890625,0.9153390674173831,0.7506047245517372,0.5285634902950376
1783245575690851300,2.989851318359375,1.1611591636031866,0.6827519622921944,0.5120419425504282
1783245575700863200,2.99986328125,1.4259715450286865,0.5695929083630442,0.5228557801727205
1783245575710875400,3.00987548828125,1.6929916656315325,0.46435003438591954,0.5677458922568709
1783245575720887300,3.01988720703125,1.9077385781615972,0.42920419446378943,0.6440884696379303
1783245575730898200,3.029898193359375,2.025914875730872,0.4089215771526098,0.7101902965769171
1783245575740910300,3.039910400390625,2.076221752166748,0.35648090355843304,0.773507826559618
1783245575750922200,3.049922119140625,2.1425889520436523,0.29516368054747577,0.8470614308092743
1783245575760933000,3.05993310546875,2.1827625569999216,0.23444909960478544,0.9605318157099186
1783245575770945300,3.0699453125,2.1736837630093095,0.2273597258657217,1.049695077023655
1783245575780957200,3.079957275390625,2.1303309434950353,0.2304720126673579,1.0990687642626464
1783245575790969000,3.089968994140625,2.0970307314395904,0.1792947831377387,1.1189148898527026
1783245575800980200,3.099980224609375,2.025085439169407,0.09794073427021503,1.0841890289083123
1783245575810992000,3.1099921875,1.859882602009177,-0.014774083022773265,0.9769784350547939
1783245575821004000,3.120004150390625,1.6190525691956281,-0.15145809718519448,0.8340861408367752
1783245575831016200,3.13001611328125,1.2929419617205857,-0.2566436880171299,0.6547301290310918
1783245575841027600,3.140027587890625,0.9882932444691658,-0.3126557903572917,0.5290496298441663
1783245575851039500,3.15003955078125,0.7051701303273439,-0.3456435754626989,0.42891383321508764
1783245575861051400,3.160051513671875,0.4419651840984821,-0.3734270699232817,0.27820502002723513
1783245575871063600,3.1700634765625,0.2818962026953697,-0.39931349859088655,0.0931007834257558
1783245575881074400,3.180074462890625,0.20676175899505614,-0.4422928086176514,0.006422763056494295
1783245575891086300,3.19008642578125,0.19557693263590334,-0.5177838106706738,-0.047861127251572905
1783245575901098500,3.200098388671875,0.24646190122067926,-0.589023000498116,-0.07667889666333794
1783245575911110400,3.2101103515625,0.21790391525626182,-0.6048205813497305,-0.06070055241733789
1783245575921121300,3.220121337890625,0.05611234784424304,-0.5540592391446233,-0.11137217051237822
1783245575931133400,3.230133544921875,-0.241768190446496,-0.49501872889399523,-0.234342899283953
1783245575941145300,3.240145263671875,-0.5748047977924347,-0.4182794803455472,-0.3634349604800343
1783245575951157200,3.2501572265625,-0.9287304639101028,-0.3512918104827404,-0.525813241738826
1783245575961168400,3.26016845703125,-1.285059684038162,-0.2904381133303046,-0.7040706446528434
1783245575971180500,3.2701806640625,-1.518247093144059,-0.15228548792004584,-0.8417612785745412
1783245575981192400,3.2801923828125,-1.5422551607191561,-0.037861528621613974,-0.9366200481161474
1783245575991203300,3.290203369140625,-1.4543401459008454,0.044449382579326624,-0.9936554290894418
1783245576001215500,3.300215576171875,-1.3744798427224159,0.026336510522663593,-1.002479590731859
1783245576011227400,3.310227294921875,-1.2599357641756534,-0.056636663979291915,-0.9455376601956784
1783245576021239600,3.320239501953125,-1.086837789851427,-0.2222548039421439,-0.8758133319105953
1783245576031250400,3.33025048828125,-0.9583458499729632,-0.4870440967530012,-0.788338973531872
1783245576041262300,3.340262451171875,-1.0519278045117855,-0.7044479535326361,-0.6531629527796059
1783245576051274200,3.350274169921875,-1.2458125462770462,-0.7586164738327265,-0.47324707860145715
1783245576061286400,3.360286376953125,-1.5091455027997493,-0.5676750920429825,-0.32203977783955634
1783245576071297300,3.37029736328125,-1.687123650380969,-0.20255670852065086,-0.22521087726876138
1783245576081309400,3.380309326171875,-1.5838105754226446,0.23389672641903161,-0.2839323846980929
1783245576091321300,3.3903212890625,-1.1727929027736186,0.6021919864118099,-0.5063915155733004
1783245576101333500,3.40033349609375,-0.6010340485483407,0.8529767192676663,-0.7381902102671564
1783245576111344400,3.410344482421875,-0.028102643412351608,1.0363447431936859,-0.8797616311449558
1783245576121356500,3.4203564453125,0.5393681582301855,1.0838953066587447,-0.9826057003520429
1783245576131368400,3.430368408203125,0.7790490210086107,0.8832900244668126,-0.884000291628018
1783245576141379300,3.44037939453125,0.6556506048768759,0.6362497388362884,-0.5877796493735165
1783245576151391500,3.4503916015625,0.3670832538545131,0.5518658207535744,-0.1864878729796037
1783245576161403400,3.4604033203125,0.1474503228485584,0.7502890827313065,0.230781188214384
1783245576171415300,3.470415283203125,0.08529635675251483,1.0764712941378354,0.45704212252534926
1783245576181426200,3.48042626953125,0.1705915444612503,1.4028659792512654,0.35961960344295946
1783245576191438300,3.490438232421875,0.4483405643492937,1.5689184189781546,0.10377046333700418
1783245576201450200,3.5004501953125,0.8000567377239465,1.6437094560682772,-0.21681034786589443
1783245576211462400,3.51046240234375,1.0398661953181028,1.6791013797059655,-0.4590077235098928
1783245576221473500,3.5204736328125,1.2345026322335004,1.787451572048664,-0.5665011163601651
1783245576231485400,3.5304853515625,1.2562240501761435,1.9097461185917257,-0.5317674374355003
1783245576241497600,3.54049755859375,1.0669441718578339,1.9899825616061686,-0.4380595914946869
1783245576251509500,3.550509521484375,0.9433096088826656,1.9584134111270308,-0.31048655655942853
1783245576261520400,3.560520263671875,0.9767419228851795,1.9591884871527552,-0.04030680288188159
1783245576271532300,3.5705322265625,1.0170803630143403,1.9529034155339002,0.21337956969961522
1783245576281544400,3.58054443359375,1.0076929414659739,1.8506167610138653,0.4040871427334845
1783245576291556400,3.590556396484375,0.9533552020788192,1.704587410879135,0.49479931398965415
1783245576301567200,3.600567138671875,0.8437620239377022,1.6130255639910698,0.6099847591798753
1783245576311579400,3.610579345703125,0.521480034840107,1.5314742389857767,0.8286527176111936
1783245576321591300,3.62059130859375,0.3837935656368732,1.4795432684794068,1.1230724479235707
1783245576331603200,3.630603271484375,0.5145423445314169,1.5467217847391963,1.4278554590791463
1783245576341614600,3.640614501953125,0.7318383570224046,1.6475111864387988,1.5770777600362895
1783245576351626500,3.65062646484375,1.1286685143649577,1.5869918358072637,1.477133284728229
1783245576361638400,3.660638427734375,1.5457278052657841,1.4431038816154003,1.1412738750465214
1783245576371649500,3.6706494140625,1.761677079322934,1.374361769300699,0.7884077279191464
1783245576381661400,3.680661376953125,1.9523264924287795,1.4164827089324592,0.6175913617260754
1783245576391673300,3.69067333984375,2.08421859613955,1.4733987743750214,0.6695239396676421
1783245576401685500,3.700685546875,2.2420511967927217,1.4698460503295063,0.7551156261049211
1783245576411696400,3.7106962890625,2.3502947138905523,1.351392397123575,0.7659080921456217
1783245576421708300,3.720708251953125,2.193933354833722,1.1731903776586055,0.7773420709602534
1783245576431720400,3.730720458984375,2.0421844580084083,1.0764175181239843,0.840425865252316
1783245576441732400,3.740732421875,1.8331114994615316,1.008020858246088,1.017488505423814
1783245576451743500,3.750743408203125,1.3181295944690703,0.9475216736197472,1.2052362057387829
1783245576461755400,3.76075537109375,0.3239642430961132,0.8313704521372914,1.3626027963154017
1783245576471767600,3.770767578125,-0.33343817388415337,0.981968717622757,1.533593569227308
1783245576481779500,3.780779541015625,-0.5564549021095038,1.1670863616950808,1.9018926286123692
1783245576491790300,3.790790283203125,-0.8075473857402801,0.6039468672551215,1.5036881141766905
1783245576501802500,3.800802490234375,-0.5829577091097832,0.038094898986071345,0.8548862061507999
1783245576511814400,3.810814453125,-0.7939362090170383,-0.6087823245875537,0.18295739729851485
1783245576521825300,3.8208251953125,-1.3804226767748593,-1.2004871115155518,-0.3361307739689946
1783245576531837400,3.83083740234375,-1.823878976213932,-1.4438134911894798,-0.4112069116108119
1783245576541849300,3.840849365234375,-1.7549065622746944,-1.4014175340086221,-0.13179200433716176
1783245576551861500,3.850861572265625,-1.6432786634355783,-1.345584149236232,0.05620689425989985
1783245576561872400,3.860872314453125,-1.5772615921705961,-1.305441523940116,-0.05947685584127903
1783245576571884300,3.87088427734375,-1.6813976739495993,-1.3369950384587048,-0.35332623891979453
1783245576581896200,3.880896240234375,-1.9358476513147354,-1.4521386903338134,-0.634155250775069
1783245576591908400,3.890908447265625,-2.1374971818625927,-1.6574645713068543,-0.909476751255244
1783245576601919500,3.90091943359375,-2.0902380025595426,-1.733340334893763,-1.0290046095639467
1783245576611931400,3.910931396484375,-2.2797914371222254,-1.8122738786160946,-0.9327009749762714
1783245576621943600,3.920943603515625,-2.4617548549473285,-2.025692319021374,-0.786663295404613
1783245576631955500,3.93095556640625,-2.4427391888320447,-2.2391155817322432,-0.5867712760485708
1783245576641966300,3.94096630859375,-2.3000509658187624,-2.295040444180369,-0.288284296297282
1783245576651978500,3.950978515625,-2.0735130777299404,-2.2645140807524324,-0.0265006150431931
1783245576661990400,3.960990478515625,-1.8034481826037168,-2.109711349314451,0.16108283462077377
1783245576672002300,3.971002197265625,-1.5981418831139802,-1.922445295036584,0.2495264033578336
1783245576682013400,3.981013427734375,-1.3354443018853663,-1.7292963201999663,0.21282398164346814
1783245576692025300,3.991025390625,-1.4131120634555816,-1.6058343373127282,0.13000760513842105
1783245576702037200,4.001037353515625,-1.5531038869917393,-1.4711702846705912,0.005911854392290115
1783245576712048400,4.01104833984375,-1.731551990172267,-1.3574885220415889,-0.13438903509303926
1783245576722060500,4.021060546875,-1.9365964238554239,-1.4053374839313328,-0.2280726964406669
1783245576732072400,4.031072509765625,-2.1157997293174264,-1.5630341832451522,-0.1442166016243398
1783245576742084600,4.041084716796875,-2.0645605404675007,-1.6038240204036236,0.10687822009399532
1783245576752095500,4.051095458984375,-1.7041572027683256,-1.232012715113908,0.3738432495087385
1783245576762107400,4.061107421875,-1.4360253215312957,-1.1013415315002202,0.5321098576650023
1783245576772119600,4.07111962890625,-1.2250129193544388,-1.3454440101131797,0.6674523940905929
1783245576782131500,4.08113134765625,-1.0930296302288771,-1.57551489463374,0.9187864313922822
1783245576792142300,4.091142333984375,-0.9720727620303631,-1.4977030484177172,1.0831569093815983
1783245576802154200,4.101154296875,-0.8124082697749138,-1.1021166075259445,1.184630493953079
1783245576812166400,4.11116650390625,-0.6509644928872584,-0.7359482765592634,1.1575881732486188
1783245576822178300,4.12117822265625,-0.4335293641865253,-0.6773632549911737,0.9241849294349551
1783245576832189000,4.13118896484375,-0.16745733808875082,-0.7247437225863337,0.5623018745720386
1783245576842200800,4.141200927734375,-0.052147535866498944,-0.7140845275364816,0.2440278059415519
1783245576852213000,4.151212890625,-0.09605389761030673,-0.5999493220515549,-0.05997735270932317
1783245576862225000,4.161224853515625,-0.23621815510392188,-0.5733863092966377,-0.4252844637367874
1783245576872235800,4.17123583984375,-0.5007920515984297,-0.6845012901775539,-0.7570264281623065
1783245576882248000,4.181248046875,-0.9210212047070264,-0.9378507589548826,-1.0664216823536903
1783245576892259800,4.191259765625,-1.2277701091080904,-1.124028725735098,-1.1838601671677083
1783245576902270700,4.201270751953125,-1.2945908979713916,-0.9808213011533021,-0.9292152517523616
1783245576912283000,4.211282958984375,-1.101951772353053,-0.43802652947530146,-0.5649287890095264
1783245576922294800,4.221294677734375,-0.6488286499023437,0.12107844875156878,-0.29947577159292993
1783245576932306700,4.231306640625,-0.19140812251865863,0.5679686681620776,-0.10912983494568615
1783245576942318000,4.241318115234375,0.16798340778946874,0.9698429571516811,-0.11342121199667453
1783245576952330000,4.251330078125,0.31224224112033844,1.1358604716956615,-0.29730087523926046
1783245576962342000,4.261341796875,0.3820546130150556,1.2644671239949763,-0.39002734545990825
1783245576972354000,4.27135400390625,0.4421411251872778,1.4054698781393467,-0.4139551143404096
1783245576982365000,4.281364990234375,0.4692968431383371,1.4424180913083255,-0.4377599874936044
1783245576992376800,4.291376953125,0.45759646847248076,1.3479355346679687,-0.40738351739775386
1783245577002389000,4.301388916015625,0.3191875302135944,1.1512987177155911,-0.36238819137345996
1783245577012401000,4.31140087890625,0.20289280860722064,0.98095574118793,-0.23663771395655347
1783245577022411800,4.321411865234375,0.11223755517005919,0.9081056090325117,0.013126388880982994
1783245577032424000,4.331423828125,0.02563888364732265,0.92999449249655,0.2743855896032415
1783245577042435800,4.341435791015625,0.03706862467825413,0.9820251239851117,0.43414340443164107
1783245577052446700,4.35144677734375,0.11372867051064968,0.9499413019821047,0.5087701543381438
1783245577062459000,4.361458984375,0.3226566676288843,0.8960817015007138,0.5118432416405528
1783245577072470800,4.371470703125,0.5971271042376757,0.866185160408914,0.44879795272797346
1783245577082482700,4.381482666015625,0.8410252924501895,0.7722086535945534,0.30777484991531817
1783245577092493800,4.391493896484375,0.9380062417775392,0.6466469219490886,0.23077402782123535
1783245577102506000,4.401506103515625,0.9934247621387242,0.5546572050377726,0.24248762729484585
1783245577112518000,4.411517822265625,0.9846762230157852,0.5986740414187312,0.2165780734799802
1783245577122529800,4.42152978515625,0.8872031062573194,0.6904726196721196,0.23031747969277203
1783245577132541000,4.431541015625,0.8280985908597708,0.8982757044136523,0.21840086846034973
1783245577142552800,4.441552734375,0.8467845866292715,1.0466688610702752,0.17659334215931594
1783245577152564700,4.451564697265625,0.8634446295291185,1.2063199093222616,0.10188980068955569
1783245577162577000,4.461576904296875,0.9017208764314651,1.290162560135126,-0.05716846930105239
1783245577172587800,4.471587890625,0.9230015648692845,1.2666454909473657,-0.23206688064336775
1783245577182599700,4.481599609375,1.1160130309313534,1.2335332026794552,-0.35564985956177114
1783245577192611800,4.49161181640625,1.3526578870147465,1.177469662413001,-0.45935387006644157
1783245577202623700,4.501623779296875,1.4122475555807352,1.04563425732553,-0.5159923241440206
1783245577212635000,4.511634765625,1.4000240338236092,0.8929334666028619,-0.5047785639513284
1783245577222647000,4.52164697265625,1.3253186291903256,0.7243801499709487,-0.3947290568774566
1783245577232659000,4.531658935546875,1.2031143912792206,0.6141399060979486,-0.19058394665420053
1783245577242669800,4.541669921875,1.0236860448896885,0.5592039085566998,0.07354911073762924
1783245577252682000,4.551681884765625,0.8866735294252633,0.4720169157519936,0.3017855463726446
1783245577262694000,4.56169384765625,0.8028916688889265,0.3426318264260888,0.4359957177674398
1783245577272705800,4.571705810546875,0.6509621547996998,0.11661766995042562,0.5550528898244723
1783245577282716700,4.581716552734375,0.36864684990942476,-0.12000219782218337,0.7000067562147975
1783245577292728800,4.591728759765625,0.13417641525566576,-0.3178666568733752,0.8187221290968358
1783245577302740700,4.60174072265625,-0.03459200543165207,-0.46834728732854125,0.9039308806311339
1783245577312753000,4.6117529296875,-0.18766425981521606,-0.6023103520944714,0.9273470467276871
1783245577322764000,4.621763916015625,-0.3127221335917711,-0.7422473767034709,0.908126871016249
1783245577332776000,4.63177587890625,-0.2646159820705652,-0.8017199947610497,0.8653340234722942
1783245577342788000,4.6417880859375,-0.1516688173264265,-0.8175703287132083,0.76397639343068
1783245577352800000,4.651800048828125,-0.027643209207057953,-0.7765395224057138,0.6247082079939544
1783245577362811000,4.661810791015625,0.10449322465360164,-0.7377684777237474,0.44274172142893076
1783245577372822800,4.67182275390625,-0.04179097702503204,-0.6868105900332331,0.27740429810360073
1783245577382835000,4.6818349609375,-0.12168868960440159,-0.5397689941160381,0.12144867030344902
1783245577392845800,4.691845703125,-0.28483050258159637,-0.4546788274601102,0.05514715607389807
1783245577402857700,4.701857666015625,-0.5735539209485053,-0.5292620670184492,-0.05347659251317381
1783245577412870000,4.711869873046875,-0.8007149093717336,-0.5522108347989618,-0.17279409600682555
1783245577422881800,4.7218818359375,-1.30572779353559,-0.7021162957146764,-0.2700064429372549
1783245577432892700,4.731892578125,-1.6644459546267985,-0.8436477499082684,-0.41526974060293287
1783245577442904800,4.74190478515625,-2.043800076511502,-0.9294904884971678,-0.48160395152568813
1783245577452916700,4.751916748046875,-2.231848951730132,-0.8860926607973874,-0.5410617738729343
1783245577462929000,4.761928955078125,-2.2117542582064864,-0.7719961798876523,-0.44946839933544397
1783245577472940000,4.77193994140625,-2.14251939393878,-0.6183604464024305,-0.3106206312678754
1783245577482952000,4.781951904296875,-1.876412296527624,-0.4485910319790244,-0.08227554762661457
1783245577492963800,4.7919638671875,-1.4774182391494513,-0.2697100903391838,0.16852401747219264
1783245577502976000,4.80197607421875,-1.0819435880690813,-0.15915595821142195,0.3247154998548329
1783245577512987000,4.81198681640625,-0.8264169213831424,-0.12690467068701983,0.4311386696577072
1783245577522998800,4.821998779296875,-0.6765501850426197,-0.11283902819454669,0.5217772642210126
1783245577533011000,4.832010986328125,-0.5761497826606035,0.01044949782192707,0.7241156538158655
1783245577543021800,4.842021728515625,-0.4522995311081409,0.27865269072949883,0.9391315194804221
1783245577553033700,4.85203369140625,-0.2745060924440622,0.5280585364475846,1.0430258283928036
1783245577563046000,4.8620458984375,-0.0457838460534811,0.6495654397442937,1.037337407492846
1783245577573057800,4.872057861328125,0.09954057068228721,0.5852645247474313,0.8988720628716051
1783245577583069000,4.88206884765625,0.08409867140054703,0.32092677509635686,0.7287987701307982
1783245577593080800,4.892080810546875,0.05882686749994755,0.01977496004998684,0.6208126618601382
1783245577603093000,4.902093017578125,-0.08815233070552349,-0.023938217209279536,0.5910579038592055
1783245577613105000,4.91210498046875,-0.34823826813101766,-0.039844519132375716,0.6542587121270597
1783245577623115800,4.92211572265625,-0.605541296839714,-0.06023936464637518,0.6653330638490617
1783245577633128000,4.9321279296875,-0.7649158662378788,-0.0670809011042118,0.637686493641138
1783245577643139800,4.942139892578125,-0.9339788859575986,-0.021426818910241126,0.6716046914644539
1783245577653151700,4.95215185546875,-1.0378805744588375,0.1624932859405875,0.8904659074455499
1783245577663163000,4.962162841796875,-0.8922562979936599,0.39444881516396996,1.159307544387132
1783245577673174800,4.9721748046875,-0.6039379532963037,0.5236448116585612,1.2974378118351102
1783245577683186700,4.982186767578125,-0.300256619772315,0.4796823358133435,1.2412518142327666
1783245577693198800,4.99219873046875,0.16712942130863664,0.44713440342992544,1.090909277074039
1783245577703210000,5.0022099609375,0.6881207958489656,0.7580170466348528,1.0081384202111512
1783245577713222000,5.012221923828125,0.8723428062558174,1.1422384822949767,1.0893217886868864
1783245577723234000,5.022234130859375,0.9134691818922758,1.546774391709268,1.1445784695498644
1783245577733245000,5.032244873046875,0.8273264374434948,1.8593457186535,1.156887842959538
1783245577743256800,5.0422568359375,0.6963011796951294,2.11052529604584,1.0013706065766512
1783245577753269000,5.05226904296875,0.5858797340363264,2.35044785862565,0.806130577744916
1783245577763281000,5.062281005859375,0.4667524193525314,2.510023795814812,0.6645357029262929
1783245577773291800,5.072291748046875,0.2947229510426521,2.5606220564126967,0.5152068363221362
1783245577783304000,5.082303955078125,0.07574351550936699,2.520432084843516,0.38505222392845895
1783245577793315800,5.09231591796875,-0.22510347137153147,2.4538509499549863,0.2602516128486022
1783245577803327700,5.10232763671875,-0.48653965436220165,2.2835686175733803,0.14510777831040322
1783245577813339000,5.1123388671875,-0.7333323949724435,2.0678674730584024,-0.0039836993413046
1783245577823350800,5.122350830078125,-1.0523872387170792,1.7839163836598395,-0.158699885006994
1783245577833363500,5.132363525390625,-1.393782509085536,1.4651482479020952,-0.24134930744729935
1783245577843375600,5.142375732421875,-1.7816583755999802,1.1546320999220012,-0.16209259618520735
1783245577853386800,5.15238671875,-2.1484242340683934,0.9433364968895912,0.0418062476594001
1783245577863398700,5.162398681640625,-2.4026848263412712,0.908006240311265,0.4111210599582642
1783245577873410800,5.172410888671875,-2.461332245621085,1.0080305028572678,0.7898023971479385
1783245577883421700,5.182421630859375,-2.266550847277045,1.1987658406808972,1.075915559951216
1783245577893433600,5.19243359375,-1.9340198513656854,1.4361691139161585,1.29154466214329
1783245577903445800,5.20244580078125,-1.4249807804256678,1.7003768074467778,1.430660871888697
1783245577913457700,5.212457763671875,-0.7838508683323859,1.9596406148344276,1.5217837428376078
1783245577923468500,5.222468505859375,-0.22219079879522322,2.136849239347875,1.5244858414031563
1783245577933480400,5.23248046875,0.1687210744142532,2.18902307869941,1.4757915147304534
1783245577943492600,5.24249267578125,0.42765901084840297,2.147935281507671,1.380374015327543
1783245577953504500,5.25250439453125,0.5571072285383939,2.0447586924105883,1.2134817637756465
1783245577963515600,5.262515625,0.6037199266314506,1.9038859943866728,1.0189216069668532
1783245577973527600,5.272527587890625,0.6037146659344435,1.8309163275048135,0.8908240732334554
1783245577983539500,5.28253955078125,0.6240156956851483,1.8661553986683488,0.766171565387398
1783245577993551600,5.292551513671875,0.6186918703138828,1.8966481520876288,0.6670650022082031
1783245578003562800,5.302562744140625,0.6645020198523998,1.9494819166526198,0.6205803144089878
1783245578013574700,5.31257470703125,0.7572808413147926,2.029542126317322,0.5573769853904843
1783245578023586600,5.322586669921875,0.8359726852357388,2.0733789299562573,0.49287853852752594
1783245578033597700,5.33259765625,0.937363267698884,2.0527289406374094,0.39667869310788806
1783245578043609600,5.342609619140625,1.002862452569604,2.024598240174353,0.2996385061402805
1783245578053621500,5.35262158203125,1.0536924760967492,1.9330919228658079,0.213399936634209
1783245578063633700,5.362633544921875,1.0481804346770047,1.860160834428668,0.14424226578855887
1783245578073644500,5.37264453125,0.9197440243780612,1.740406620018184,0.11168543771263212
1783245578083656400,5.382656494140625,0.6373819577366113,1.5838994227498768,0.14554996911995113
1783245578093668600,5.392668701171875,0.3015595190644264,1.3951882842302321,0.20649463249146938
1783245578103680500,5.402680419921875,-0.023968904608488082,1.2592694092214107,0.2875198512634262
1783245578113691600,5.412691650390625,-0.3301671893894672,1.1991978023573755,0.40043746111951767
1783245578123703800,5.422703857421875,-0.5809036991894245,1.1946385316178203,0.5147722808297723
1783245578133715700,5.4327158203125,-0.7704746694087982,1.1940277062430977,0.6176457953270524
1783245578143727600,5.4427275390625,-0.8995037849038838,1.2628536974489688,0.7529271761499345
1783245578153738500,5.452738525390625,-0.8561760998308658,1.4042398979529738,0.7804541385661811
1783245578163750700,5.462750732421875,-0.8562848209023475,1.5025170245707034,0.7357505620300769
1783245578173762600,5.472762451171875,-0.9308791663765906,1.5854630188047885,0.6005044717162847
1783245578183773400,5.4827734375,-1.0697136365711688,1.611426896622777,0.3305241861335933
1783245578193785600,5.49278564453125,-1.3262620475202798,1.5877867855772374,-0.017215119499340653
1783245578203797500,5.502797607421875,-1.4795663570940494,1.627098220746219,-0.21499518820270894
1783245578213809700,5.5128095703125,-1.5852730491906404,1.7396543403461575,-0.41448038032352924
1783245578223820800,5.52282080078125,-1.719932864049077,1.8849509922921657,-0.6469643904004245
1783245578233832700,5.532832763671875,-1.7131284447312354,2.0111896002858876,-0.6656248864024877
1783245578243844600,5.5428447265625,-1.6367998228102922,2.1416344277977943,-0.602532689608261
1783245578253856800,5.552856689453125,-1.4507535195857286,2.326011628766358,-0.39170587313137945
1783245578263867600,5.56286767578125,-1.2261848857432602,2.3768021970659494,-0.21827285816650838
1783245578273879600,5.572879638671875,-1.0748784719884394,2.2015604887112974,-0.2047922124877572
1783245578283891700,5.5828916015625,-1.0919874276995658,1.8131535840600728,-0.4373107824213803
1783245578293903600,5.592903564453125,-1.3353823425650595,1.2762930247366429,-0.7607118386767804
1783245578303914500,5.60291455078125,-1.7974913200259208,0.7806120325416326,-0.9444163280155509
1783245578313926700,5.6129267578125,-2.3707950656056402,0.35711686337441206,-1.139225856475532
1783245578323938600,5.6229384765625,-2.8672850360959767,0.08550240071862936,-1.0675482021655887
1783245578333949400,5.632949462890625,-3.224751735821366,-0.016426818665862084,-0.7845901423923671
1783245578343961600,5.642961669921875,-3.2984313045382496,0.1190168400466442,-0.3178784203764051
1783245578353973500,5.652973388671875,-3.1452807242214678,0.3995600206978619,0.16695707868272439
1783245578363985700,5.662985595703125,-2.7896172745257615,0.7254224986307323,0.5670360634870827
1783245578373996500,5.67299658203125,-2.1869050636321306,1.021185021854192,0.8620228530976921
1783245578384008700,5.6830087890625,-1.4503735803574322,1.2462180583380162,1.0238081368993968
1783245578394020600,5.6930205078125,-0.7917962743788957,1.3725604189671574,1.1119017231550068
1783245578404032800,5.70303271484375,-0.2787117274403572,1.416828453630209,1.116086315363273
1783245578414043600,5.713043701171875,0.17000117735266684,1.3638919593431054,1.0468049085400999
1783245578424055600,5.7230556640625,0.49744683282375335,1.2689017454415559,0.9747432233486324
1783245578434067700,5.733067626953125,0.826481218791008,1.2769504657320678,0.9911131972607224
1783245578444079600,5.74307958984375,1.0700357081323861,1.3913148037977516,0.9644839143365621
1783245578454090500,5.753090576171875,1.1948422374963759,1.4862693618640304,0.8765282021816819
1783245578464102400,5.763102294921875,1.069368184134364,1.5402091879747808,0.7417530173152684
1783245578474114600,5.773114501953125,1.06693248142004,1.6200762131549418,0.5934644900768995
1783245578484125700,5.783125732421875,1.0356640674531459,1.6468173589557409,0.4268107965212315
1783245578494137600,5.7931376953125,1.0089823967546223,1.592822295526415,0.23715010219179092
1783245578504149800,5.803149658203125,1.0788730945825575,1.535424876307696,0.10728365908972919
1783245578514161700,5.81316162109375,1.1746832465648651,1.5190399970874189,0.06853614141382276
1783245578524172500,5.823172607421875,1.3437673090726137,1.4477296417199075,0.10405958247669041
1783245578534184700,5.833184814453125,1.383230135411024,1.395254773595184,0.10161525806449354
1783245578544196600,5.843196533203125,1.320750590622425,1.2946331296779214,0.116425106520392
1783245578554208500,5.85320849609375,1.2364707174360752,1.0547319021470845,0.04555003729760647
1783245578564219600,5.8632197265625,0.891799201875925,0.7240799979805946,-0.021447861698269843
1783245578574231600,5.8732314453125,0.31068098315298553,0.35750294008255,0.2270474998450838
1783245578584243500,5.883243408203125,0.04122457531392574,0.1724129146695137,0.5317030669623986
1783245578594255600,5.893255615234375,0.15916881769299507,0.10598740873411297,0.9277567965723573
1783245578604266800,5.903266845703125,0.10898878250718116,0.058090954440832135,1.3453082549042998
1783245578614278700,5.913278564453125,-0.2184790847957134,-0.07336918759346008,1.6319667035654186
1783245578624290800,5.923290771484375,-0.22973230021595953,-0.23246070226654408,1.618084600946307
1783245578634301700,5.9333017578125,-0.2296329314947128,-0.23013298997133969,1.4554174197435379
1783245578644313600,5.943313720703125,-0.33173546161949635,-0.04130611611753702,1.0631397380735725
1783245578654325800,5.95332568359375,-0.42228257850706574,0.04324278326854109,0.5599729201678186
1783245578664337700,5.963337646484375,-0.8452350190997123,-0.16137100391238926,0.2518673404607922
1783245578674348500,5.9733486328125,-1.141745438081026,-0.08743439169451594,-0.026933672698214648
1783245578684360400,5.9833603515625,-0.9662164372175931,0.0073087155781686305,-0.22862733464874327
1783245578694372600,5.99337255859375,-0.6592202800571918,0.12433087467625736,-0.22941899648308753
1783245578704384500,6.003384521484375,-0.29091362188756464,0.22351707896292208,-0.26147563821822406
1783245578714395600,6.013395751953125,0.04173778553307056,0.09599822190031408,-0.4920357675604522
1783245578724407600,6.023407470703125,0.28402444689571854,-0.14700769364759325,-0.8085909765090793
1783245578734419700,6.033419677734375,0.5128326180040836,-0.3992490550525486,-1.0733394989181309
1783245578744431600,6.043431640625,0.7085685405939817,-0.515328088081628,-1.1731862129401416
1783245578754442800,6.05344287109375,0.8192249640524387,-0.4354027568429708,-1.1162051194373517
1783245578764454700,6.06345458984375,0.8868126456350087,-0.3473191074594855,-1.088874191049859
1783245578774466600,6.073466552734375,0.9115139561712742,-0.40853228557407856,-1.1330175033546983
1783245578784477700,6.083477783203125,1.0258739103227854,-0.45241789679080247,-1.1083343129970133
1783245578794489600,6.093489501953125,1.0086223312705755,-0.6251287714935839,-0.9196883486680686
1783245578804501500,6.10350146484375,0.8923328703612089,-0.8650862592563032,-0.6642756637506186
1783245578814513700,6.113513671875,0.8794026616394519,-1.0573122740291059,-0.49064073300547895
1783245578824524500,6.123524658203125,0.8323053948998451,-1.1953716681979596,-0.3100419545970857
1783245578834536400,6.133536376953125,0.6363876860022545,-1.2804251561053097,-0.16446955444961786
1783245578844548400,6.14354833984375,0.3733171798080206,-1.2288750016100705,-0.1030725442007184
1783245578854560300,6.153560302734375,0.1400479376375675,-1.124901709177345,-0.12915084217861295
1783245578864571600,6.163571533203125,0.14520400522649288,-0.967452262622863,-0.18321064140722154
1783245578874583600,6.17358349609375,0.35932372576892374,-0.8853070633776485,-0.19496398836933077
1783245578884595500,6.183595458984375,0.5951338845938444,-0.9101873837426304,-0.18283800870254635
1783245578894607600,6.193607666015625,0.8334738541573286,-1.038456474650651,-0.16253325262479484
1783245578904618500,6.203618408203125,1.0102081391572952,-1.1842371107213199,-0.07173734860792756
1783245578914630400,6.21363037109375,1.025700891843438,-1.3072026883937418,0.08360212005525827
1783245578924642600,6.223642578125,0.872233500662446,-1.4023540842063724,0.23339330694153904
1783245578934653400,6.2336533203125,0.6116840373784304,-1.4301353867098687,0.34763920625932515
1783245578944665300,6.243665283203125,0.2767535791099071,-1.3600054732985793,0.4080089923523366
1783245578954677500,6.253677490234375,-0.07860358111560345,-1.2644319065511227,0.422439668764919
1783245578964689400,6.263689453125,-0.3107616471737623,-1.1183953960232436,0.4572188673317432
1783245578974700500,6.273700439453125,-0.34236733027100563,-0.9403858303904533,0.48811662135533984
1783245578984712700,6.283712646484375,-0.2501864747017622,-0.7887159901507198,0.543997498531267
1783245578994724600,6.293724609375,-0.20778408778011798,-0.6796680248022079,0.5034336521483957
1783245579004736500,6.303736572265625,-0.21416297516226768,-0.5691761442556977,0.3537508210074156
1783245579014747400,6.313747314453125,-0.2493967856287956,-0.45302945281788704,0.16649970857035368
1783245579024759600,6.323759521484375,-0.2769680986434221,-0.30319413452893496,0.03559208585228771
1783245579034771500,6.333771484375,-0.3350578840404749,-0.11280950983911751,-0.07166242020819336
1783245579044783600,6.34378369140625,-0.36606910837590695,0.03436754902601242,-0.19940131322965024
1783245579054794500,6.35379443359375,-0.3710024731248617,0.11006649474129081,-0.3494023800069466
1783245579064806400,6.363806396484375,-0.3824450736373663,0.15915741951614618,-0.4714166483039036
1783245579074818300,6.373818359375,-0.36057810974419113,0.2137283831372857,-0.5015083466416225
1783245579084829700,6.38382958984375,-0.3731798171639442,0.3416131509028375,-0.39911373823508617
1783245579094841600,6.393841552734375,-0.45660862647891043,0.4320347417145967,-0.2558905680948868
1783245579104853500,6.403853515625,-0.517958874976635,0.37681320523023604,-0.1153956904074177
1783245579114865700,6.41386572265625,-0.5100654913783074,0.2875841852039099,0.06283244987949728
1783245579124876500,6.42387646484375,-0.6892454159647226,0.2395018529497087,0.15485358484238385
1783245579134888400,6.433888427734375,-0.9747241533219814,0.2073961113758385,0.17087427039276806
1783245579144900600,6.443900634765625,-1.1701058556467294,0.19124562543332577,0.1693149121215567
1783245579154912500,6.45391259765625,-1.3408259949237107,0.2138856195256114,0.24902159564085302
1783245579164923400,6.46392333984375,-1.4396236382842063,0.2334066048145294,0.394947193140164
1783245579174935600,6.473935546875,-1.3399702548772097,0.23382643766179678,0.5094973726341501
1783245579184947500,6.483947509765625,-1.1068582490950822,0.19665435260906813,0.657043155213818
1783245579194959400,6.49395947265625,-0.7534545610249042,0.1440916600704193,0.7724012535572051
1783245579204970500,6.503970458984375,-0.4248685033470392,0.10495865020826459,0.8093434753768145
1783245579214982400,6.513982421875,-0.13065350182652472,0.20545476804971693,0.7601881070636213
1783245579224994300,6.523994384765625,0.047882279637455935,0.32141528926566243,0.6733744045507163
1783245579235006500,6.53400634765625,0.1558031406521797,0.3272925107359886,0.49612102758008986
1783245579245017600,6.544017578125,0.24364450571238994,0.30560908671617504,0.3273535202082246
1783245579255029500,6.554029541015625,0.3580500525712967,0.2024585088431835,0.30402559865070505
1783245579265041700,6.564041748046875,0.5371615880966186,0.3517570899069309,0.19856131874155253
1783245579275052500,6.574052490234375,0.6593973901897668,0.5638698545411229,0.1082818946131505
1783245579285064400,6.584064453125,0.7101502568274736,0.5192015685141086,0.1408994581666775
1783245579295076400,6.594076416015625,0.47720483978390693,0.32482626675292847,0.206530891114939
1783245579305088500,6.604088623046875,0.25001053361296655,0.19037994851469991,0.36710583101250227
1783245579315099400,6.614099365234375,0.09989479094743728,0.13357114283889532,0.508995524059236
1783245579325111300,6.624111328125,-0.05510229401886463,0.09605521278455853,0.581305923314765
1783245579335123500,6.63412353515625,-0.12396014166772365,0.08270429443269968,0.5568704606404528
1783245579345135400,6.64413525390625,-0.13839081808030604,0.07068973925113678,0.44080315458178515
1783245579355146500,6.654146484375,0.13157237023711205,0.16538213924989104,0.3372858988208696
1783245579365158700,6.66415869140625,0.4010352078169584,0.19100334111005066,0.25528500341717153
1783245579375170600,6.674170654296875,0.5332160653412342,0.08678308817893267,0.13954510268196463
1783245579385182500,6.684182373046875,0.6651566843688488,-0.007590016737580299,0.015238668327219783
1783245579395193600,6.694193603515625,0.7318518010258674,-0.06428776325434446,-0.05415593481315299
1783245579405205500,6.70420556640625,0.7564969974607229,-0.06733253777772188,-0.04861673139184713
1783245579415217400,6.714217529296875,0.7258744801819325,-0.08109145240858197,-0.044413397950492796
1783245579425229600,6.7242294921875,0.7763906154543161,-0.09981690340563654,0.08366968713244423
1783245579435240400,6.734240478515625,0.8457488138407468,-0.09711714292764663,0.29141318717384707
1783245579445252400,6.74425244140625,0.8614718681514263,-0.12002470191493629,0.46450522494763136
1783245579455264500,6.754264404296875,0.8248094861865043,-0.14577449859082697,0.6409081591013819
1783245579465275600,6.764275634765625,0.6823539028853177,-0.21796704362034797,0.6317373029131442
1783245579475287600,6.77428759765625,0.5236456884413957,-0.32774624585285783,0.5153094564463943
1783245579485299700,6.7842998046875,0.4024374758303165,-0.4218779432289302,0.42540896689929064
1783245579495311600,6.7943115234375,0.26335575287640095,-0.4593324984848499,0.3731282331071794
1783245579505322500,6.804322509765625,0.11727262672781943,-0.4210914690263569,0.4189709697410464
1783245579515334700,6.814334716796875,-0.09513912085294723,-0.3847919290244579,0.46665173545703287
1783245579525346600,6.8243466796875,-0.2778904741853475,-0.44943128219544887,0.513945255421102
1783245579535358500,6.8343583984375,-0.438265160536766,-0.6275010535828769,0.5368725420221686
1783245579545369300,6.844369384765625,-0.4920528648257255,-0.7419736743286252,0.49925081350579853
1783245579555381500,6.854381591796875,-0.49599137331843374,-0.7617588635116815,0.5224737951178103
1783245579565393400,6.864393310546875,-0.43879999806582926,-0.7451387142308056,0.5886309324406087
1783245579575405600,6.874405517578125,-0.36865327965021133,-0.729333096203208,0.6154658940047025
1783245579585416400,6.88441650390625,-0.40720191375315185,-0.7902681880287825,0.5326172957304864
1783245579595428400,6.894428466796875,-0.48398295561671256,-0.9210464852787553,0.31125111119113863
1783245579605440300,6.904440185546875,-0.5057008664280176,-0.9201368230879307,0.19665632537044583
1783245579615452400,6.914452392578125,-0.46512627945542334,-0.8471757779039442,0.16151044891569763
1783245579625463600,6.924463623046875,-0.469636450356245,-0.7908592857897281,0.09192052413262426
1783245579635475500,6.934475341796875,-0.4809335049182176,-0.7864129739053547,0.024453811181755734
1783245579645487600,6.944487548828125,-0.47406011201739306,-0.8757552450478077,-0.044411114661861206
1783245579655498500,6.95449853515625,-0.41531975375711916,-0.9174745450761169,-0.08121361748352646
1783245579665510400,6.964510498046875,-0.2856131773918867,-0.8707822058755904,-0.03024941878323443
1783245579675522600,6.9745224609375,-0.20248598137199877,-0.7991675337992608,0.02417640987932682
1783245579685534500,6.984534423828125,-0.15122633425593376,-0.7775475304044782,0.004936241692630574
1783245579695545300,6.99454541015625,-0.06727379332780838,-0.7273570468898862,-0.06822519403481855
1783245579705557500,7.0045576171875,-0.057557285955548286,-0.6955919354472309,-0.09463750974005088
1783245579715569400,7.0145693359375,-0.06869593508541584,-0.7171849777698517,-0.05822744943522848
1783245579725581300,7.024581298828125,0.004942717099189758,-0.7141404955074191,-0.012624704702850431
1783245579735592700,7.0345927734375,0.057358548513054844,-0.6995788861915468,0.047531246843235564
1783245579745604600,7.0446044921875,0.054662149035930634,-0.6793211110606789,0.14182092039315028
1783245579755616500,7.054616455078125,0.1364320852279663,-0.6438545147515833,0.24303662121342492
1783245579765628700,7.064628662109375,0.11243103191554546,-0.6175251646220684,0.37814810709580776
1783245579775639600,7.0746396484375,-0.11291501604020594,-0.6643265171550214,0.5361387478549033
1783245579785651500,7.0846513671875,-0.23907354453504084,-0.7163081949353217,0.549774145703949
1783245579795663600,7.09466357421875,-0.3419558268606663,-0.7128755901381373,0.48353353134877974
1783245579805675500,7.104675537109375,-0.31785248221755025,-0.6564873479619622,0.48711865982655433
1783245579815686400,7.114686279296875,-0.16852292149364947,-0.4683895190350711,0.551317794949375
1783245579825698300,7.1246982421875,-0.10952654264569282,-0.21390432422608135,0.5992434753371402
1783245579835710500,7.13471044921875,-0.30457740558087826,-0.017338526683300732,0.622179858560115
1783245579845721600,7.1447216796875,-0.36865211060643194,0.13854600864201783,0.5820455992335454
1783245579855733800,7.154733642578125,-0.3941115460336208,0.3017491964176297,0.559530473629944
1783245579865745700,7.16474560546875,-0.5505851332932711,0.4406387578003108,0.5824493211962283
1783245579875757600,7.174757568359375,-0.6899363208383321,0.4776571135960519,0.7345416246317327
1783245579885768400,7.1847685546875,-0.8080851458787918,0.4366637166894972,0.8390641484450548
1783245579895780600,7.194780517578125,-1.0662895073413847,0.3262517695114016,0.806388059637323
1783245579905792500,7.20479248046875,-1.2492121255874633,0.2297625492237508,0.6988111166894435
1783245579915804700,7.2148046875,-1.3340455410033463,0.23386793871596454,0.582417026361823
1783245579925815600,7.224815673828125,-1.3686147500813006,0.33250250046923757,0.48677799316272136
1783245579935827500,7.234827392578125,-1.205705576816201,0.43971682064980266,0.40977673267722126
1783245579945839600,7.244839599609375,-1.0541501567363738,0.4926135674484074,0.3689681177530437
1783245579955851500,7.2548515625,-0.8848264402538537,0.44279652035608885,0.22562479183189568
1783245579965862400,7.2648623046875,-0.5508616121470928,0.4117020747166127,0.035548940830305215
1783245579975874300,7.274874267578125,-0.1486187821060419,0.4525830972898751,-0.05154971610382199
1783245579985886500,7.284886474609375,0.11581541365683078,0.5569105369225144,-0.03219115483500063
1783245579995897600,7.294897705078125,0.4424491682231426,0.5815400973968208,0.018059461368992922
1783245580005909500,7.304909423828125,0.6253016438424587,0.5618167214035987,0.041530609055794775
1783245580015921700,7.314921630859375,0.7463339153647423,0.5297174095705152,0.11832794446703046
1783245580025933600,7.32493359375,0.9864145911157131,0.6062615739382803,0.2569238931979984
1783245580035944400,7.3349443359375,0.7683177836358547,1.0103710746340453,0.29137353101689367
1783245580045956600,7.34495654296875,0.5423369449079036,1.1251938239917159,0.312151640227437
1783245580055968500,7.354968505859375,1.0539069956302642,0.7092033313661813,0.34785876729413867
1783245580065980400,7.36498046875,1.738144812566042,0.38652766677588224,0.5717082200165837
1783245580075991600,7.374991455078125,1.8648574678122996,0.5003049987338483,0.7723745847459882
1783245580086003500,7.38500341796875,1.4299714283198117,0.6679856241844594,1.118168163138628
1783245580096015400,7.395015380859375,0.7657984942913055,0.5902588259033859,1.468902924260497
1783245580106027500,7.405027587890625,-0.06129822604954242,0.5669438551589846,1.625367743691802
1783245580116038700,7.41503857421875,-0.8237859883576631,0.6302002295389771,1.6184452509522438
1783245580126050600,7.425050537109375,-1.1197200687557458,0.5233256627067924,1.6367396170556545
