time,seconds_elapsed,z,y,x
1783245490038535700,0.06253564453125,0.382203081575036,-0.7746522473543882,0.04268935063686222
1783245490048547600,0.072547607421875,0.003685410514473915,-0.7946738756418228,0.03494560464229435
1783245490058559700,0.082559814453125,-0.2803811219573021,-0.764374598968029,-0.04508022782877087
1783245490068570600,0.092570556640625,-0.41025545610487457,-0.6744406455427407,-0.13579159536734223
1783245490078582500,0.10258251953125,-0.5191203199714421,-0.6775058783322573,-0.2570091237960383
1783245490088593400,0.112593505859375,-0.5286421815544367,-0.6975175697475672,-0.40298645148258655
1783245490098605600,0.12260546875,-0.5542974318146705,-0.7005354562640189,-0.45958643671330063
1783245490108617500,0.132617431640625,-0.5807049617469311,-0.6862427270174026,-0.4019511901507154
1783245490118628600,0.142628662109375,-0.5909750113487243,-0.566920766544342,-0.2617547474205494
1783245490128640800,0.152640869140625,-0.6807593271702528,-0.3827718213737011,-0.04304616471789777
1783245490138652700,0.162652587890625,-0.7633312273949384,-0.17389993835687637,0.1818229864411056
1783245490148663600,0.17266357421875,-0.8654208980381488,0.03518646419346332,0.3506547546882182
1783245490158675700,0.18267578125,-0.8536836984932422,0.23648060543239116,0.43291656605042517
1783245490168687600,0.1926875,-0.7378887431025505,0.40471594215631485,0.4277691932246089
1783245490178698500,0.202698486328125,-0.4686006775677204,0.5046662626832723,0.3556988863352686
1783245490188710700,0.212710693359375,-0.1005348424166441,0.5287661001950502,0.25935382375866173
1783245490198721500,0.222721435546875,0.18288520884513854,0.5165034154713154,0.09992701271660626
1783245490208733400,0.2327333984375,0.3258984260290861,0.45268239294588564,-0.007572846407070756
1783245490218745300,0.242745361328125,0.3666840254038572,0.3145721453726291,-0.10034706475958227
1783245490228756700,0.2527568359375,0.2840320456802845,0.2302782436609268,-0.11228322094269096
1783245490238768600,0.2627685546875,0.1653150653630495,0.2957949641883373,-0.054029257959872484
1783245490248780500,0.272780517578125,0.01152268001139164,0.4063771533668041,-0.007806801293417811
1783245490258791700,0.282791748046875,-0.10299451052844524,0.5041998142153025,-0.029146234181150792
1783245490268803600,0.292803466796875,-0.12545944031476974,0.5317302106976509,-0.11110336350835859
1783245490278815500,0.3028154296875,-0.10214987639784813,0.5442079994767904,-0.16244016751386225
1783245490288826400,0.312826416015625,-0.13926000213026998,0.5320785857439041,-0.16815204235464334
1783245490298838500,0.322838623046875,-0.2505658294081688,0.5168605583459138,-0.11303075137436389
1783245490308850400,0.332850341796875,-0.3183633543491363,0.525355414968729,0.008264262737333774
1783245490318861600,0.342861572265625,-0.35372108345627784,0.5199181923508643,0.10718275599852203
1783245490328873700,0.352873779296875,-0.3331453284174204,0.43972880334854125,0.09287672887891531
1783245490338884600,0.362884521484375,-0.25237784726619716,0.37962709360718727,0.02762172802761197
1783245490348896500,0.372896484375,-0.14518880765736103,0.3098252431064844,-0.03799479961246252
1783245490358908700,0.38290869140625,-0.03540741346776485,0.3010316957980394,-0.07616342142187059
1783245490368919600,0.39291943359375,0.038702947881817815,0.2962701804846525,-0.08424743222147225
1783245490378931500,0.402931396484375,-0.0008691840499639511,0.227681797426939,-0.06874547331556677
1783245490388943600,0.412943603515625,-0.0661614481717348,0.1892430534392595,-0.035673590123280884
1783245490398954800,0.422954833984375,-0.08837912519872188,0.20746903048157692,-0.013705942334607243
1783245490408966700,0.432966552734375,-0.09115969582796096,0.21650223176479338,0.07320822487808763
1783245490418978800,0.442978759765625,-0.06523673454225062,0.21121990744769573,0.13464673618115483
1783245490428989700,0.45298974609375,0.005488660544157028,0.18510113132894038,0.14886406210400163
1783245490439001600,0.463001708984375,0.08272562948167324,0.17956337094604968,0.14989844665303825
1783245490449012500,0.473012451171875,0.1255307519853115,0.19322072489857672,0.19140483458302915
1783245490459024600,0.483024658203125,0.16414952871501445,0.2275461883485317,0.27348632094226777
1783245490469036500,0.49303662109375,0.24103753808438777,0.23926117606163025,0.30159298294261094
1783245490479047400,0.50304736328125,0.33201778569221496,0.20692893225550651,0.2554473909046501
1783245490489059600,0.5130595703125,0.34967268484830855,0.10537935983836651,0.24595110215432942
1783245490499071500,0.523071533203125,0.4013894280821085,0.09552432077825068,0.24459457297883927
1783245490509082600,0.53308251953125,0.44266427227854727,0.13450783916711806,0.34910832896381616
1783245490519094500,0.543094482421875,0.4577800083458423,0.13771452625393868,0.3312265622492879
1783245490529106700,0.553106689453125,0.48544309129714963,0.10681377655565738,0.23271358104906975
1783245490539117600,0.56311767578125,0.47511108237504956,0.04903495680391788,0.10741700314581394
1783245490549129500,0.57312939453125,0.4170072684526443,-0.000986088427901268,-0.016306626352295277
1783245490559141600,0.5831416015625,0.4043161291837692,0.0035217443853616712,-0.12317235229089855
1783245490569152500,0.593152587890625,0.4310772948592901,0.014028525352478026,-0.19388759130947292
1783245490579164400,0.603164306640625,0.46839960203766823,0.046558337557315824,-0.23405147858932612
1783245490589175600,0.613175537109375,0.5700000278592109,0.062172670796513556,-0.2291116840995848
1783245490599187700,0.623187744140625,0.6779664815813302,0.01581073259413242,-0.21370781527329236
1783245490609199600,0.63319970703125,0.7792886749833822,-0.09394961880743503,-0.14285313125140964
1783245490619210500,0.64321044921875,0.8983049305081366,-0.18386895918548107,0.013072101410478354
1783245490629222700,0.65322265625,0.9888345117390155,-0.23895664015710352,0.13457736073937265
1783245490639234600,0.663234619140625,1.0463836143881082,-0.2601689395338297,0.18074852561000734
1783245490649245400,0.673245361328125,1.0836322718083857,-0.27488895428180693,0.19725578910093752
1783245490659257600,0.683257568359375,1.028631100076437,-0.29913141513466834,0.2020467862371355
1783245490669269500,0.69326953125,0.8814414739906787,-0.2776619261264801,0.24801760623008012
1783245490679280600,0.70328076171875,0.7414262695789336,-0.28781448682844635,0.28047301975814626
1783245490689292500,0.71329248046875,0.6717635352879763,-0.3628980771243572,0.23693582012029363
1783245490699304700,0.7233046875,0.5650093799650668,-0.4920224696874618,0.14688862471203318
1783245490709315600,0.733315673828125,0.4711369180470705,-0.5558154351621866,-0.03374548987122252
1783245490719327700,0.74332763671875,0.3755845402181148,-0.5547580350637435,-0.15371458914140237
1783245490729338600,0.753338623046875,0.28614275422394275,-0.512500025048852,-0.2492921562105417
1783245490739350500,0.7633505859375,0.2502659696787596,-0.5210486576855182,-0.28666831246800717
1783245490749362400,0.773362548828125,0.17352175269424913,-0.6351590209901332,-0.3014365137392655
1783245490759373300,0.783373291015625,0.1343225457280874,-0.7915876000642776,-0.29513102038688954
1783245490769385200,0.79338525390625,0.07983224612772465,-0.9858920285463333,-0.2998658851553686
1783245490779397000,0.803397216796875,-0.01877367405295372,-1.1630705501824616,-0.30835750864148137
1783245490789408300,0.813408203125,-0.14892097992300987,-1.278636957514286,-0.26297712882235647
1783245490799420200,0.823420166015625,-0.28516251101493834,-1.2753145350933075,-0.1436930344079621
1783245490809432000,0.83343212890625,-0.46896015852987766,-1.2435410942137242,0.049134215927310286
1783245490819443200,0.843443115234375,-0.7141612460345029,-1.2066928342878818,0.2821880435151048
1783245490829455000,0.853455078125,-0.9761088856786488,-1.1690911256462335,0.464294395208545
1783245490839466000,0.863466064453125,-1.196367839628458,-1.1338707591831683,0.5478390494555234
1783245490849478000,0.873477783203125,-1.4343249473541975,-1.1244576186716555,0.4905494745254516
1783245490859490000,0.883489990234375,-1.6645698732674121,-1.1395394524693487,0.341723881268315
1783245490869501200,0.893501220703125,-1.838064153432846,-1.2053005031466484,0.1475359553053975
1783245490879513000,0.90351318359375,-1.935900258284807,-1.2738491387158632,-0.06565046644229441
1783245490889525200,0.913525146484375,-2.090488762450218,-1.2379577411234377,-0.17585812321994454
1783245490899536100,0.9235361328125,-2.17038238337636,-1.0629518873512744,-0.10498685338944196
1783245490909548000,0.933548095703125,-2.1554922727584835,-0.8909913926243781,-0.016088161296024917
1783245490919560200,0.943560302734375,-2.0323294189482928,-0.8187146764427423,0.13480609146133066
1783245490929571000,0.953571044921875,-1.8302338981986044,-0.7412526665776967,0.3377863226236775
1783245490939583000,0.9635830078125,-1.5835370191782712,-0.5826064114540815,0.5469881317146122
1783245490949595100,0.97359521484375,-1.330405723196268,-0.4150561343848705,0.7257842446152121
1783245490959606300,0.983606201171875,-1.1268073966681957,-0.26716274394392964,0.8468420159049331
1783245490969618200,0.9936181640625,-0.9729185652047395,-0.10075754525661468,0.9373571302190422
1783245490979629000,1.003629150390625,-0.8728922568321228,0.09624036009311676,1.0109862839229404
1783245490989641200,1.01364111328125,-0.9437976846605539,0.31602818939983846,1.149746739033237
1783245490999653000,1.023653076171875,-1.038576740029454,0.570880317825079,1.2952587142303584
1783245491009664000,1.0336640625,-1.0890057815402745,0.8749088573515414,1.394280229474604
1783245491019676200,1.04367626953125,-1.0591823056846856,1.1716180137753487,1.3252435181275009
1783245491029688000,1.05368798828125,-0.922073928630352,1.3796803339749575,1.0919222535088657
1783245491039699200,1.06369921875,-0.7204319968670606,1.5116536862283945,0.7375561501473188
1783245491049711000,1.073711181640625,-0.5021463888168335,1.6329665282577275,0.4166991888841614
1783245491059723300,1.08372314453125,-0.3112444622546434,1.670996691444516,0.14851239912211894
1783245491069734100,1.093734130859375,-0.06656885992884636,1.4932324788749216,-0.10131315157907084
1783245491079746000,1.10374609375,0.08295417754054069,1.355855806273222,-0.22769809097461402
1783245491089757200,1.113757080078125,0.12005436640083789,1.2346814959317445,-0.2541610774211585
1783245491099769000,1.12376904296875,0.04643851056993007,1.1853209604352712,-0.14529866124000398
1783245491109781000,1.133781005859375,-0.08338204756379126,1.212882336577773,0.05039459125194698
1783245491119792000,1.143792236328125,-0.23037176716327665,1.25270581292212,0.3375281466115266
1783245491129804000,1.153803955078125,-0.37465281232595443,1.2020417936116456,0.6732182641409337
1783245491139816000,1.16381591796875,-0.432541522192955,1.1405956835240125,1.0518668681047856
1783245491149827000,1.1738271484375,-0.3771048816531896,1.0977712717980146,1.459675077188015
1783245491159839200,1.183839111328125,-0.28655250406861305,1.0770078852325677,1.823533816038072
1783245491169851100,1.19385107421875,-0.1975789201080799,1.0648808095872402,2.1341873266622424
1783245491179862000,1.203862060546875,-0.0665717825382948,1.0338847828209399,2.330065580332279
1783245491189874200,1.213874267578125,0.030158406898379325,1.047340476721525,2.408649141573161
1783245491199886000,1.223885986328125,0.16197452276349067,1.0757511631697416,2.432910014865547
1783245491209897000,1.23389697265625,0.29023382292985916,1.1498381436437368,2.39883063513115
1783245491219909000,1.2439091796875,0.4807371055632829,1.1967623919039965,2.2249748281769453
1783245491229920300,1.253920166015625,0.6643073740631341,1.234322599491477,1.962751148070395
1783245491239932200,1.26393212890625,0.7647919475972652,1.2459820576250553,1.5981418831139802
1783245491249944300,1.2739443359375,0.8858820867866277,1.264406772109866,1.2368778369322417
1783245491259955200,1.283955078125,0.9274339943587779,1.2790987298071383,0.993935853466019
1783245491269967000,1.293967041015625,0.9757032274872064,1.3992249924004077,0.7987434631682931
1783245491279979300,1.303979248046875,1.1217910298109053,1.4805366634309292,0.6143339673653244
1783245491289990100,1.313990234375,1.2964169443547724,1.4553361712008714,0.41214762652702625
1783245491300002000,1.324001953125,1.5038000501185655,1.3665508032888174,0.22560214160867034
1783245491310014000,1.334013916015625,1.6527099241256713,1.199411445108056,0.103766590879485
1783245491320025000,1.344025146484375,1.7638994315475225,0.9406202236682176,0.03817406516950577
1783245491330037000,1.354037109375,1.8283967458993196,0.7291852121651172,0.027801906900107858
1783245491340049200,1.364049072265625,1.6795733811318874,0.5675508811414242,0.15314071650989353
1783245491350060300,1.374060302734375,1.4030033418953418,0.4509317498862743,0.2963835046660155
1783245491360072200,1.384072265625,1.0668395424395798,0.44370589028596874,0.4996361230289563
1783245491370083000,1.3940830078125,0.7777209872752427,0.5105009601861238,0.6894697262398898
1783245491380095000,1.404094970703125,0.5668482858300209,0.5301069934099912,0.8521699329294263
1783245491390107100,1.414107177734375,0.33508827917873857,0.45924657376706596,0.8940538489349186
1783245491400118000,1.424117919921875,0.2170540204286575,0.3563333117812872,0.8252642442166804
1783245491410130000,1.4341298828125,0.1346188983261585,0.2503559860497713,0.6985583109721542
1783245491420142000,1.44414208984375,0.01605214013457298,0.21531857493817805,0.5912845887545496
1783245491430153200,1.4541533203125,-0.14015607418715953,0.27076982852518555,0.53533009835314
1783245491440165000,1.4641650390625,-0.20816811866164206,0.33795945070087907,0.44509069570787246
1783245491450177300,1.47417724609375,-0.20297756428122518,0.3264554753899574,0.3448907843340188
1783245491460188200,1.484188232421875,-0.20574469090700148,0.23347031770050525,0.2455358724169433
1783245491470200000,1.494199951171875,-0.1876613372057676,0.10528875894546508,0.163381028560549
1783245491480212200,1.504212158203125,-0.11889876662492752,-0.039899464190006256,0.12453881833851337
1783245491490223000,1.51422314453125,-0.0302770648419857,-0.12043079849779605,0.0931494083404541
1783245491500235000,1.524235107421875,0.002886369091272354,-0.14304010519087315,0.03693316173031926
1783245491510246100,1.53424609375,-0.000495090040564537,-0.15587211423516273,-0.00841119692735374
1783245491520258300,1.54425830078125,-0.018671967244148255,-0.23853286178708075,-0.08283544653169811
1783245491530270200,1.554270263671875,-0.014946224719285963,-0.4357201522290706,-0.18788681652471423
1783245491540281000,1.564281005859375,-0.01310731885433197,-0.6102256552636623,-0.2637023012917489
1783245491550293200,1.574293212890625,-0.06936988882422447,-0.7208581133246421,-0.26601898073628544
1783245491560305200,1.58430517578125,-0.20057284122705457,-0.7962988464951515,-0.18795454799868166
1783245491570316000,1.59431591796875,-0.3578045533776283,-0.8335545181781053,-0.05628872732445597
1783245491580328200,1.604328125,-0.4897311438798904,-0.7845552172094583,0.03976918887384236
1783245491590340000,1.614340087890625,-0.6416735174506902,-0.784281660965085,0.1358561850361526
1783245491600351000,1.62435107421875,-0.8277145599782466,-0.8485656248271465,0.275313536369428
1783245491610363000,1.63436279296875,-0.9382003030449152,-0.9219266291141509,0.4646520860724151
1783245491620375000,1.644375,-0.9858727393239736,-0.9240408447891473,0.6617397155322134
1783245491630386200,1.65438623046875,-0.9915373409569262,-0.9971446594446897,0.8577127348136157
1783245491640398000,1.664398193359375,-0.9680997667461633,-1.0690952124118804,0.9544146480038761
1783245491650409200,1.6744091796875,-0.9801017547070979,-1.0277794516831635,1.0851689067911356
1783245491660421000,1.684421142578125,-0.9637439096242189,-1.0174193857103586,1.1601381499923764
1783245491670433000,1.69443310546875,-0.8893249207168817,-1.0354179837375879,1.153988760517165
1783245491680444000,1.70444384765625,-0.8323632625669241,-1.0401876823574303,1.134593958891183
1783245491690456000,1.7144560546875,-0.7703969279974698,-0.9990788423776626,0.9533298484418541
1783245491700468000,1.724468017578125,-0.6926286286622285,-0.9155945034831762,0.6778109256934374
1783245491710479000,1.73447900390625,-0.6468459516525268,-0.8574497730284929,0.4164158053655177
1783245491720491300,1.7444912109375,-0.6732569887161255,-0.8646364696621894,0.2283651035159826
1783245491730503200,1.754503173828125,-0.8013660667568445,-0.910343158826232,-0.019688523875549434
1783245491740514000,1.76451416015625,-1.0328332279413939,-0.8362824818372726,-0.023470526632294056
1783245491750526200,1.774526123046875,-1.3789952743202447,-0.5918599774897099,0.29181020540110764
1783245491760536800,1.784536865234375,-1.6893997786194086,-0.2514291682392359,0.7860355188950896
1783245491770549000,1.794549072265625,-1.7756027288228273,0.01695405741035938,1.2311293564081192
1783245491780561000,1.804560791015625,-1.7509499336034058,0.14217150566279887,1.5142898799508808
1783245491790572000,1.814572021484375,-1.565487567746639,0.28265140497684477,1.7074062676921486
1783245491800584000,1.824583984375,-1.2422984006762503,0.40775136432945724,1.7692951531112193
1783245491810596000,1.83459619140625,-0.8280243565797806,0.5431096828460693,1.7251581974819301
1783245491820607000,1.84460693359375,-0.44036008698940277,0.7118091299504041,1.6196324149101973
1783245491830619000,1.854618896484375,-0.07482113996744155,0.8955711216300726,1.449678583830595
1783245491840631000,1.864631103515625,0.13374153096973895,1.09809685049057,1.2677430769257247
1783245491850642000,1.874641845703125,0.27048750445246694,1.34815706846416,1.093571628151089
1783245491860653800,1.88465380859375,0.4299222796052694,1.4585849438637495,0.8866771826870739
1783245491870666000,1.894666015625,0.49847383778393267,1.4208593165814876,0.5939486203320324
1783245491880676900,1.9046767578125,0.45856969741880893,1.2993611811131238,0.25297800511643287
1783245491890689000,1.91468896484375,0.3711807523012161,1.1581401080429554,0.010397036982327698
1783245491900700000,1.924699951171875,0.15242752673923968,1.092397177544236,-0.1754023057438433
1783245491910712000,1.934712158203125,-0.16589491107761858,1.1155886680394411,-0.25605682803988455
1783245491920724000,1.944723876953125,-0.45117958716750145,1.130307513743639,-0.2907809354186058
1783245491930734800,1.95473486328125,-0.680249624082446,1.0924188048541545,-0.3257378286398947
1783245491940747000,1.9647470703125,-0.8555494923651218,1.0526444283485412,-0.2999685966111719
1783245491950759000,1.974759033203125,-0.944526583456993,0.9915151291251182,-0.13162804594710467
1783245491960769800,1.984769775390625,-0.9931704951167106,0.9566858078062533,0.08409808687865733
1783245491970782000,1.994781982421875,-1.0407605138093232,0.8577513863235712,0.2898864707969129
1783245491980793900,2.0047939453125,-1.0940718327581882,0.7584533922255039,0.5227458169922232
1783245491990805000,2.014804931640625,-1.2267220613598824,0.6907698490530252,0.7690775159619748
1783245492000817200,2.024817138671875,-1.3566022407263516,0.6626783115565776,1.0105046378858387
1783245492010829000,2.0348291015625,-1.435487561392784,0.6591337708175182,1.2361945308431983
1783245492020840000,2.04483984375,-1.4462743283450603,0.7488625570595264,1.4432221011675894
1783245492030851800,2.054851806640625,-1.3732231206595897,0.9317132791131735,1.553824017959833
1783245492040863000,2.064863037109375,-1.286467797270417,1.0596335565835238,1.5068155985474585
1783245492050875000,2.074875,-1.074685579764843,1.0378472567111252,1.3146505201816558
1783245492060886800,2.08488671875,-0.7845610624283552,0.9652531451433897,1.0706336740255356
1783245492070898200,2.094898193359375,-0.5365513472437858,0.932163360968232,0.8557149120599031
1783245492080910000,2.10491015625,-0.35148645627200603,0.959198667410016,0.7075267764560877
1783245492090922000,2.114921875,-0.1840986762881279,0.9601409166961907,0.6145626615546643
1783245492100932900,2.124932861328125,-0.035848727494478226,0.8991694383829831,0.517269577538222
1783245492110945000,2.134945068359375,0.06199146901071071,0.8102572292208671,0.4437703338243067
1783245492120957000,2.14495703125,0.11433774231970309,0.7022071888685226,0.4116952796496451
1783245492130967800,2.1549677734375,0.09598083237409591,0.6097551151424646,0.44495055658482013
1783245492140980000,2.16497998046875,0.06130933196544647,0.5471060590058565,0.5958611759550869
1783245492150992000,2.174991943359375,0.015988427248597146,0.5361819294095039,0.7727890838310122
1783245492161002800,2.185002685546875,-0.021958149307966232,0.5135089098304509,1.0143415126349777
1783245492171015000,2.195014892578125,0.005884381863474846,0.4379010033994913,1.2412778254568575
1783245492181026000,2.205026123046875,0.043027825343608855,0.3552168749719858,1.441738584611565
1783245492191038000,2.215037841796875,0.11955810731649398,0.28238310942947864,1.6070836067214607
1783245492201050000,2.225050048828125,0.22091186490058898,0.25558161174356936,1.7381185090810058
1783245492211061000,2.23506103515625,0.38974984369277954,0.23655483971238134,1.7939058627545832
1783245492221073000,2.245072998046875,0.5693325038611888,0.15576631577312947,1.739713815448433
1783245492231085000,2.2550849609375,0.6783259625434875,0.03642623512148857,1.6049822505280376
1783245492241096000,2.265095947265625,0.6573112315654754,-0.07800970687568187,1.4274249587073922
1783245492251107800,2.27510791015625,0.5066460383236407,-0.15706629245579243,1.2744520730450748
1783245492261119700,2.28511962890625,0.264855051523447,-0.062432198515534394,1.1801073174402117
1783245492271131100,2.295131103515625,-0.013611761245131491,0.14157178620398045,1.1455141429647802
1783245492281143000,2.30514306640625,-0.24433716415166853,0.31182372344732284,1.0488692937240003
1783245492291154000,2.31515380859375,-0.34930735866725443,0.38353228435218334,0.8559764125403017
1783245492301166000,2.325166015625,-0.31782091803550716,0.3636901042848825,0.5920881602223962
1783245492311178000,2.335177978515625,-0.2303565695941448,0.2751379606068134,0.3728131027434021
1783245492321188900,2.34518896484375,-0.07467384045124054,0.1789297492176294,0.20878457005955278
1783245492331200800,2.35520068359375,0.0995019922375679,0.13229951546788216,0.14744571973867712
1783245492341213000,2.365212890625,0.26773206826448437,0.17134382413327692,0.22954802969023583
1783245492351224000,2.37522412109375,0.3766892865896225,0.20474808108508585,0.3734059540700167
1783245492361236000,2.385236083984375,0.4512777868449688,0.17066870135068893,0.5239475939974189
1783245492371248000,2.395248046875,0.4592886593431234,0.10031506218612193,0.6256959038570523
1783245492381259000,2.405259033203125,0.34355215614140033,0.0008025485545396804,0.7412585117965936
1783245492391271000,2.41527099609375,0.1294739366531372,-0.0013724573969841002,0.8624138251766562
1783245492401283000,2.425282958984375,-0.16881518243849278,0.05882979010939598,0.9819324772655963
1783245492411294000,2.4352939453125,-0.5590402424275874,0.1796276683539152,1.003213238768652
1783245492421305900,2.445305908203125,-0.9512725505858659,0.2666588860750198,0.9385974856689572
1783245492431316700,2.455316650390625,-1.2919020972788333,0.30128304021060465,0.7317763246368616
1783245492441329000,2.465328857421875,-1.4915221678256987,0.19644085598886013,0.42289618036076426
1783245492451340800,2.4753408203125,-1.618912868463993,0.05103869784176349,0.07270495153106749
1783245492461352000,2.48535205078125,-1.6758201660782097,0.002339256602525711,-0.20569632172062993
1783245492471364000,2.495364013671875,-1.596944782283902,0.06941957318484783,-0.29699827556349334
1783245492481376000,2.5053759765625,-1.4586428115308283,0.12602818011343478,-0.16922515147887168
1783245492491387000,2.515386962890625,-1.3298808225393295,0.1719371138513088,0.0733038672722876
1783245492501399000,2.52539892578125,-1.246808571577072,0.24758359872698782,0.5333912757776678
1783245492511411000,2.535410888671875,-1.2281909648686646,0.40413258931040763,1.0850185385350137
1783245492521421800,2.545421875,-1.2821516876369714,0.6742717187166214,1.656692271760106
1783245492531434000,2.55543408203125,-1.3937562056005,1.0034078114926814,2.1528502338171003
1783245492541446000,2.56544580078125,-1.4735323376268148,1.3260907826066017,2.5338167593345045
1783245492551457000,2.57545703125,-1.456129367405176,1.6592559847682713,2.7997482079178093
1783245492561469000,2.585468994140625,-1.3494909474164247,1.9383616799622774,2.840745404216647
1783245492571480000,2.59547998046875,-1.0944202078044414,2.1172265472501515,2.690894449967146
1783245492581492000,2.605491943359375,-0.7787029840499162,2.1139555627554656,2.3255253065541384
1783245492591504000,2.61550390625,-0.5253834720194339,2.0213503442943095,1.9025148521639406
1783245492601515000,2.625514892578125,-0.29548399854302404,1.9862305155962705,1.5349693876251578
1783245492611527000,2.63552685546875,-0.20124621044397353,2.0469921505510804,1.3160561491958795
1783245492621538800,2.645538818359375,-0.27077567374408246,2.092863090366125,1.1048097921326756
1783245492631550000,2.655550048828125,-0.35642508171796794,2.098399097183347,0.8937685291875154
1783245492641562000,2.66556201171875,-0.5283247861683369,2.0471897189497947,0.7152642388403415
1783245492651574000,2.675573974609375,-0.6538800880730151,1.919236708253622,0.5955431229818612
1783245492661585000,2.6855849609375,-0.6748521489530801,1.782207241654396,0.5709115897461772
1783245492671597000,2.69559716796875,-0.6646727002441882,1.5952689580261707,0.6231818021442741
1783245492681609000,2.70560888671875,-0.6085884094506502,1.4105238005280494,0.7398745831575244
1783245492691619800,2.715619873046875,-0.514974890729785,1.276173197749257,0.9326355085246264
1783245492701632000,2.725632080078125,-0.4618810139238834,1.2061170802265404,1.2031517276149242
1783245492711643000,2.735642822265625,-0.4247860857605934,1.1920756953924894,1.6023805435970424
1783245492721654800,2.74565478515625,-0.4816507132768631,1.2169488553643226,2.071608267021924
1783245492731667000,2.7556669921875,-0.634653994077444,1.1679846257090567,2.544882927750051
1783245492741678000,2.765677978515625,-0.8740770827025175,1.1404968993246554,2.948843083103001
1783245492751690000,2.77568994140625,-1.21704705504179,1.1638427035987375,3.205340932908654
1783245492761702100,2.7857021484375,-1.5906079804778097,1.1953975332915783,3.2672558295518157
1783245492771713000,2.795713134765625,-1.9533330391228199,1.3314379888534544,3.183964382880926
1783245492781725000,2.805724853515625,-2.2874212013483044,1.536386560946703,2.9507480399414896
1783245492791737000,2.815737060546875,-2.3648761969506737,1.7522481567203998,2.5862723382368684
1783245492801748000,2.825748046875,-2.192211937868595,1.9261188689827917,2.1405834574401377
1783245492811759900,2.835759765625,-1.8608891487032173,1.927088590797782,1.6219743018612265
1783245492821772000,2.84577197265625,-1.3690771068960428,1.7255752538502216,1.1840474333681166
1783245492831783200,2.855783203125,-0.8972714958071708,1.520149711894989,0.8024222978115081
1783245492841795000,2.865795166015625,-0.41342298022508617,1.3220833005309105,0.6301438962418585
1783245492851806000,2.875805908203125,-0.02428454642891884,1.1254507213622331,0.5750608914453536
1783245492861818000,2.885818115234375,0.21759762578606603,0.9110340636998414,0.6460151999168098
1783245492871830000,2.895830078125,0.2706634455412626,0.7990104435414075,0.9137268829803913
1783245492881841000,2.9058408203125,0.18086042501926422,0.7915946143269539,1.3258490828052163
1783245492891853000,2.91585302734375,-0.060061962252855296,0.8880997628360986,1.7441697719439864
1783245492901865000,2.925864990234375,-0.41410979344546794,0.9935510188668966,2.0048285408213733
1783245492911875800,2.935875732421875,-0.7909253367632627,1.023315458011627,2.1255210589952767
1783245492921888000,2.945887939453125,-1.0127718521654605,1.046643142107129,2.0968556671336294
1783245492931900000,2.95589990234375,-1.1080699629724025,1.1341127512454985,2.057628695377707
1783245492941911000,2.9659111328125,-0.9751970315307378,1.1604349409818648,1.9460458047240972
1783245492951923000,2.9759228515625,-0.6260632758647203,1.1336948180943727,1.7444024116560817
1783245492961935000,2.98593505859375,-0.20767302862107753,1.0570452936559915,1.530524975436926
1783245492971946000,2.995946044921875,0.16287819360494613,0.9303133491873741,1.3339447109773754
1783245492981958000,3.0059580078125,0.41442134361267086,0.8240490232080221,1.2447196364738047
1783245492991969000,3.015968994140625,0.5419453152418137,0.7695633997827768,1.2686045160606503
1783245493001981000,3.02598095703125,0.6619359687566757,0.6784107182174921,1.3793968408584594
1783245493011992800,3.035992919921875,0.7715045969784259,0.5493722503721714,1.5160679955393075
1783245493022004000,3.04600390625,0.6101578507244586,0.4875280808776617,1.653539506817609
1783245493032016100,3.05601611328125,0.3434703230768442,0.44319677172005173,1.7453721334710717
1783245493042028000,3.066028076171875,-0.04239186552762985,0.427073319914937,1.773688858025521
1783245493052039000,3.076038818359375,-0.48692485428750515,0.4888689740926027,1.7407921122044323
1783245493062051000,3.086051025390625,-0.9562637830018996,0.5287549942791462,1.6181477293103932
1783245493072063000,3.09606298828125,-1.3088140691131354,0.4904465986728668,1.385357356698066
1783245493082073900,3.106073974609375,-1.5769225694745779,0.4055015395760536,1.0598702879488469
1783245493092086000,3.1160859375,-1.706366695511341,0.3335474794775247,0.7583870489910245
1783245493102098000,3.126097900390625,-1.774707825809717,0.26833997102975843,0.5742030325070023
1783245493112109000,3.136109130859375,-1.8021183953046798,0.15221534529328345,0.507930525176227
1783245493122121200,3.146121337890625,-1.8785200824618338,-0.04754968668222427,0.6116748311586677
1783245493132132000,3.156132080078125,-2.0202076039999723,-0.18000526949465273,0.7950042766399681
1783245493142144000,3.16614404296875,-2.2536481110841033,-0.24675942286252975,1.0125072098799048
1783245493152156000,3.176156005859375,-2.366326980280876,-0.27302959015071393,1.1664049553021787
1783245493162167000,3.1861669921875,-2.2318793468683955,-0.3123094611376524,1.163191984605044
1783245493172179000,3.196178955078125,-1.9578128148853777,-0.35003684198558327,0.9315474210269749
1783245493182190800,3.20619091796875,-1.6065765339821576,-0.45012335611283777,0.6499424563631415
1783245493192202000,3.216201904296875,-1.1571551886588334,-0.5704290669262408,0.4692012738093734
1783245493202214000,3.2262138671875,-0.6571651010930538,-0.6469716238588095,0.3819967453479767
1783245493212225800,3.236225830078125,-0.3986135336279869,-0.7548363707721233,0.41006417131647466
1783245493222237200,3.2462373046875,-0.28766192661523815,-0.7986486244916915,0.5745759574726224
1783245493232249000,3.2562490234375,-0.4196726882696151,-0.7705909892648458,0.8691733824394643
1783245493242261000,3.266260986328125,-0.9516191720664501,-0.6413473542362451,1.196684942753613
1783245493252271900,3.27627197265625,-1.6907739895820617,-0.36296471261978147,1.4170400505542755
1783245493262284000,3.286283935546875,-2.351089663660526,0.06591594897806644,1.54095679147169
1783245493272296000,3.2962958984375,-2.7654975632697343,0.5302461096197366,1.516023425745219
1783245493282306800,3.306306884765625,-2.9366759677082297,0.9062006521940231,1.3398318693198263
1783245493292319000,3.316319091796875,-2.834333783608675,1.1290472845494746,1.0597546987451611
1783245493302330000,3.326330078125,-2.502951373210549,1.2082014852851628,0.7076441192254423
1783245493312342000,3.336342041015625,-1.952346366173029,1.2766045749038457,0.3811889360964298
1783245493322354200,3.346354248046875,-1.4501567227363585,1.376324009284377,0.11712678851634263
1783245493332365000,3.356364990234375,-1.0200485651701687,1.4911884058266878,-0.0686335373736918
1783245493342377000,3.366376953125,-0.5547212101846933,1.5408581534028052,-0.2502519411534071
1783245493352389000,3.37638916015625,-0.18804419904351233,1.4557926827967167,-0.4086583961717784
1783245493362400000,3.38639990234375,0.14255553654432296,1.2873644538491964,-0.5940231468729674
1783245493372412000,3.396411865234375,0.3450906177550554,1.1977648469448088,-0.6532545035205781
1783245493382423800,3.406423828125,0.47118251075446604,1.0876087742239235,-0.7226552258744835
1783245493392435200,3.416435302734375,0.583599514144659,0.9461141449093818,-0.8098200068473815
1783245493402447000,3.426447021484375,0.6157903036534785,0.8544020758956671,-0.7733049974638968
1783245493412459000,3.436458984375,0.5781377416074276,0.7668015338540076,-0.6555567891135812
1783245493422470100,3.44647021484375,0.47123336415886874,0.6150462072879076,-0.44554947232604025
1783245493432482000,3.45648193359375,0.2637538122832775,0.46216801417171954,-0.2349983309853822
1783245493442493000,3.466492919921875,0.001499298647046089,0.3665530925005674,-0.015600012452900408
1783245493452504800,3.4765048828125,-0.2481546766132116,0.3370224621117115,0.14981822102367878
1783245493462517000,3.48651708984375,-0.4539812005847692,0.29021044205427166,0.2675561271756887
1783245493472528000,3.49652783203125,-0.639818244972825,0.2409697335451841,0.35397067430317397
1783245493482539800,3.506539794921875,-0.829336608222127,0.18206044845879077,0.43325770763829347
1783245493492552000,3.516552001953125,-1.0718810437381268,0.13057751398086548,0.4901759650379419
1783245493502563000,3.52656298828125,-1.3844827658206225,0.13222645023167132,0.513866564161703
1783245493512575000,3.536574951171875,-1.5605875207453965,0.2541530402451753,0.4351100575067103
1783245493522587100,3.546587158203125,-1.5686422323852776,0.4423398626297712,0.2762755863346159
1783245493532598000,3.556597900390625,-1.3944880270063875,0.5648603268831968,0.04966105281300842
1783245493542610000,3.56660986328125,-1.068338841086626,0.587915039256215,-0.22059797664582728
1783245493552622000,3.5766220703125,-0.6031716450989246,0.5354729043573141,-0.41895504151955243
1783245493562633000,3.586633056640625,-0.07515256387889385,0.44654549762606616,-0.5333114154744893
1783245493572644900,3.596644775390625,0.4241021951496601,0.33355566278398036,-0.5781640450924634
1783245493582656000,3.606656005859375,0.8514841426223516,0.19966741681993005,-0.5926438944090158
1783245493592668200,3.616668212890625,1.2033102061122656,0.08987725480198859,-0.6585155658539384
1783245493602680000,3.62668017578125,1.4115472983568906,0.0018324761241674422,-0.6729007956895977
1783245493612691000,3.63669091796875,1.3572668421149252,-0.03379588661789894,-0.573587092565745
1783245493622703000,3.646703125,1.1919500231862068,0.07448387083709239,-0.39640513686351475
1783245493632715000,3.656715087890625,0.936124665814638,0.2682499546587467,-0.2481519001342356
1783245493642726000,3.666725830078125,0.7439572493612766,0.34581600942015644,-0.14898809034246951
1783245493652738000,3.676738037109375,0.6495955426216126,0.3395470121532678,-0.05984031885880976
1783245493662750000,3.68675,0.5360872368633747,0.3787345286816358,0.09559223491530865
1783245493672761000,3.696760986328125,0.429910004645586,0.3253887229412794,0.25521789299771186
1783245493682773000,3.70677294921875,0.35579438259899615,0.26814298715293405,0.4254039253979921
1783245493692785200,3.71678515625,0.23629238938391206,0.2148720002144575,0.547849278588593
1783245493702796000,3.726796142578125,0.1435866331577301,0.18759820884168146,0.5975937719013542
1783245493712808000,3.736807861328125,0.09404489587545395,0.20140987657308576,0.591508241442591
1783245493722820000,3.746820068359375,0.10902151573300362,0.24167934311926365,0.5687873276012018
1783245493732831000,3.7568310546875,0.26671616922020913,0.2732984702199697,0.5265430903833359
1783245493742843000,3.7668427734375,0.5232242481589316,0.2180307565063238,0.3270325446255505
1783245493752854000,3.77685400390625,0.7888719113647937,0.05635083277523517,0.05833828026540577
1783245493762866700,3.78686669921875,0.8606862707316875,-0.14372750293314457,-0.17373702114643527
1783245493772878600,3.796878662109375,0.7059662491410971,-0.30318858157098294,-0.28442161125345156
1783245493782889700,3.8068896484375,0.4578150796592235,-0.2809995461165905,-0.28087833088971675
1783245493792901600,3.816901611328125,0.15547814648151398,-0.11555120976269244,-0.1995284832732752
1783245493802913800,3.826913818359375,-0.028167525342106817,-0.020436638829112053,-0.2163544207919389
1783245493812924700,3.836924560546875,-0.1793231324493885,-0.021549568507075307,-0.3877438741652295
1783245493822936800,3.846936767578125,-0.2562602416574955,-0.07832534869611263,-0.5964296234928071
1783245493832948700,3.85694873046875,-0.22809388535916805,-0.2358639348387718,-0.786690694868192
1783245493842959600,3.866959716796875,-0.3166670718252659,-0.4034703260093927,-0.8789741340290754
1783245493852971800,3.8769716796875,-0.3153495594859123,-0.5074596927940845,-0.8503443249374627
1783245493862983700,3.886983642578125,-0.3664186524659395,-0.5495674806833267,-0.678285922794044
1783245493872994600,3.89699462890625,-0.4639245024502277,-0.46534313707649705,-0.47969749684985724
1783245493883006700,3.9070068359375,-0.6012000527650118,-0.36875557098090644,-0.26509012065464627
1783245493893017900,3.917017822265625,-0.7307786188364028,-0.26908056026399135,-0.1515567717866972
1783245493903029800,3.92702978515625,-1.009477486795187,-0.3043786681383848,-0.14738085607523096
1783245493913041700,3.937041748046875,-1.143241229596734,-0.38360885671973227,-0.18394034392125905
1783245493923052800,3.947052734375,-1.3285755851596592,-0.4649263729691505,-0.24623777360860258
1783245493933064700,3.957064697265625,-1.2885440190225839,-0.3137590754240751,-0.2861022395504638
1783245493943076600,3.96707666015625,-1.015219829839468,-0.1005348424166441,-0.28775884765107185
1783245493953087700,3.977087646484375,-0.6630296092122793,0.0012765958070755003,-0.25753113837614655
1783245493963099600,3.987099609375,-0.27688743462264537,0.05742693757414818,-0.15193254629652947
1783245493973111600,3.997111572265625,-0.013479074776172637,0.1810012947946787,0.12136899266336112
1783245493983122700,4.007122802734375,0.09557985035777092,0.3795370772361755,0.48402884058505297
1783245493993134800,4.017134765625,0.2356558450460434,0.6151672033190727,0.8735694985065608
1783245494003146800,4.027146728515625,0.1652151121199131,0.8761831150710582,1.1992854806408286
1783245494013157600,4.03715771484375,-0.11283201393187045,1.104669214618206,1.3121956743754446
1783245494023169800,4.047169677734375,-0.5288759903103113,1.3463351137340067,1.2132288119278847
1783245494033180700,4.0571806640625,-1.050018756020069,1.5137415984183549,1.0443219326179474
1783245494043192600,4.067192626953125,-1.4622370366305113,1.7077771468311547,0.777373123685643
1783245494053204700,4.077204833984375,-1.6232611268013715,1.8849667743831873,0.4919147715292871
1783245494063215600,4.087215576171875,-1.7364754180490969,1.9253700964421032,0.15181392488554118
1783245494073227500,4.0972275390625,-1.7569143949657677,1.7673539559155702,-0.23466792998723685
1783245494083239700,4.10723974609375,-1.690820166811347,1.5599568216264248,-0.5820858947113156
1783245494093250800,4.117250732421875,-1.56951433904469,1.4205337378889322,-0.770744937717542
1783245494103262700,4.1272626953125,-1.4382909283757208,1.3241735508084296,-0.7195548487063497
1783245494113275000,4.13727490234375,-1.197436345642805,1.2909060719788075,-0.4559961206037551
1783245494123285800,4.14728564453125,-0.8072878580212592,1.2706260850161313,-0.10142843025550245
1783245494133297700,4.157297607421875,-0.34532910268604755,1.1636585792034864,0.1861503481209278
1783245494143309600,4.1673095703125,0.12257307122349738,1.0238426967561245,0.3956431395150721
1783245494153320700,4.17732080078125,0.5004647193402052,0.8222504493534565,0.5599235280681402
1783245494163332600,4.18733251953125,0.8417413317650556,0.5815320602208376,0.7456207255940884
1783245494173344500,4.197344482421875,1.0996493406295775,0.36091420983076095,0.9497198412511497
1783245494183356000,4.20735595703125,1.2051789225935936,0.2844751132726669,1.0999389712259173
1783245494193367800,4.217367919921875,1.1234528255432843,0.2267851408481598,1.1498494687553495
1783245494203378700,4.227378662109375,1.0067179589539765,0.19897885003387927,1.0946854346118866
1783245494213390600,4.237390625,0.7580489030778408,0.2163882499963045,0.9474811224136501
1783245494223402800,4.24740283203125,0.4980108964473009,0.27065876936614514,0.7229474868193269
1783245494233413600,4.25741357421875,0.29734511623978616,0.3133540017545223,0.4376701172530651
1783245494243425500,4.267425537109375,0.18081424778997898,0.33023440940678117,0.15511165125668047
1783245494253437700,4.277437744140625,0.1010007063627243,0.3357230699509382,-0.05675495659671723
1783245494263448800,4.28744873046875,0.11356325081586838,0.32237551259994507,-0.1825933132264763
1783245494273460700,4.297460693359375,0.23453648562729357,0.2912900539845228,-0.26690672335624693
1783245494283473000,4.307472900390625,0.4175906212985515,0.27643384563624857,-0.3216070124454796
1783245494293483800,4.31748388671875,0.5625941355168819,0.2303010400146246,-0.33019707307107743
1783245494303495700,4.32749560546875,0.7598919005960225,0.16811726330220697,-0.3187842101097107
1783245494313507800,4.3375078125,1.016263785934448,0.12579086422622204,-0.30539416532386093
1783245494323518700,4.347518798828125,1.2304232539653777,0.06887421426177025,-0.26686766998749223
1783245494333530600,4.357530517578125,1.3452759600698947,-0.01931435680091381,-0.19237050127740948
1783245494343542800,4.367542724609375,1.319745212972164,-0.08465513623952865,-0.07528839215300977
1783245494353553700,4.3775537109375,1.2040309216022491,-0.1324421388089657,0.02135751653369516
1783245494363565600,4.387565673828125,1.0435007524281739,-0.15988544152975082,0.15457798277139662
1783245494373576700,4.39757666015625,0.8618097218036651,-0.11679624138772488,0.30126104757450517
1783245494383588900,4.4075888671875,0.7464508197426796,-0.05226970094144344,0.3786289859479293
1783245494393600800,4.417600830078125,0.6529506982684135,0.011274842730164528,0.4100344337653368
1783245494403611600,4.427611572265625,0.5757172364622354,0.10092588756084442,0.3794609432600438
1783245494413623800,4.437623779296875,0.545997220981121,0.10848492463827132,0.2794457773359492
1783245494423635700,4.4476357421875,0.5549719700753688,0.05427168841361999,0.11010830632271244
1783245494433646600,4.457646484375,0.5512836369514466,-0.05417231969237327,-0.01262165422923863
1783245494443658500,4.467658447265625,0.5745400093764066,-0.14694821854531764,-0.060619632668234405
1783245494453670700,4.477670654296875,0.6105997492730617,-0.2071902135401964,-0.09990087362835183
1783245494463681800,4.487681884765625,0.6299100144207477,-0.27287118471860883,-0.0844927487520501
1783245494473693700,4.497693603515625,0.5911357548683881,-0.28922260006070133,-0.02178218081970699
1783245494483705900,4.507705810546875,0.5358996053367853,-0.37233459851145745,-0.019468825843418015
1783245494493716700,4.517716796875,0.4419388806134462,-0.5185942502707243,-0.05520634804838337
1783245494503728600,4.527728759765625,0.352562561070919,-0.6855413007497787,-0.11320184275810606
1783245494513739500,4.537739501953125,0.2723246567517519,-0.8484317693144082,-0.17621596021428704
1783245494523751700,4.547751708984375,0.2504904260843992,-0.9636953943073749,-0.21332822310486807
1783245494533763600,4.557763671875,0.28511341117620465,-1.0719266364455222,-0.22449315745346246
1783245494543774700,4.567774658203125,0.30707448309361934,-1.2128770758807659,-0.21569402065444737
1783245494553787000,4.577786865234375,0.2596259186983108,-1.3468120835959911,-0.17719682447779922
1783245494563798800,4.587798828125,0.12472002012431621,-1.4370400515317916,-0.07811280192397535
1783245494573809700,4.5978095703125,-0.0072463178664445875,-1.4171207145750522,0.09775107518332078
1783245494583821800,4.60782177734375,-0.18398235643208025,-1.336591718354821,0.30864220733437686
1783245494593833700,4.617833740234375,-0.47913200845420356,-1.2739210349082946,0.45508474137987937
1783245494603844600,4.6278447265625,-0.7075239999771118,-1.1866028169393539,0.5601233614891767
1783245494613856800,4.637856689453125,-0.8057371214479208,-1.1787316451728342,0.5633472189065069
1783245494623868700,4.64786865234375,-0.7174287233978509,-1.1704033772885798,0.2855934315118007
1783245494633879600,4.657879638671875,-0.5354197128653526,-1.1256979741215705,-0.11275809931228868
1783245494643891700,4.6678916015625,-0.3819166658490896,-1.0625152494996786,-0.5321592862972989
1783245494653902800,4.67790283203125,-0.23794892441928386,-1.0214648617088795,-0.847016276493296
1783245494663914800,4.687914794921875,-0.13663140719234942,-1.0665683242827653,-1.1693557679317892
1783245494673926700,4.6979267578125,-0.12490122191011906,-1.1599205617189408,-1.3754736760653554
1783245494683937800,4.707937744140625,-0.4752998829454183,-0.9955021529346704,-1.3841940120071172
1783245494693949700,4.71794970703125,-0.9360738124102354,-0.49986324631571766,-1.1590244165968149
1783245494703961600,4.727961669921875,-1.329346569532156,0.1433604231864214,-0.8559012284122407
1783245494713972700,4.73797265625,-1.4551713360279797,0.6068284140408039,-0.7410415080450474
1783245494723984600,4.747984619140625,-1.361141053199768,0.7374830849111079,-0.9096740273930132
1783245494733996500,4.75799658203125,-1.1803630457669496,0.6488724890440702,-1.192241261217743
1783245494744007700,4.768007568359375,-0.8261024486064911,0.5651280379086733,-1.4066041428662837
1783245494754019800,4.778019775390625,-0.41617724736928935,0.4382008631289005,-1.433167301751673
1783245494764031500,4.788031494140625,-0.16874679337739942,0.17995266252458095,-1.361537505171448
1783245494774042400,4.79804248046875,-0.09879121361970901,-0.14797463898360727,-1.1955958323426543
1783245494784054300,4.80805419921875,-0.1922322983831167,-0.3116892834126949,-0.8863985118761658
1783245494794066400,4.81806640625,-0.44192952826321125,-0.3057265756160021,-0.524953410039097
1783245494804077300,4.828077392578125,-0.6637304509580135,-0.20866028609275816,-0.27999815052170307
1783245494814089200,4.838089111328125,-0.7748825489789247,-0.10058043512403965,-0.24735355283077803
1783245494824100400,4.848100341796875,-0.8249035942107439,-0.022877602240443228,-0.38652094477415083
1783245494834112500,4.858112548828125,-0.8293851235389709,-0.02655366040468216,-0.6477215654432773
1783245494844124400,4.86812451171875,-0.7454203076511621,-0.05791092169880867,-0.8921073910422622
1783245494854135300,4.87813525390625,-0.6366331851959228,-0.0017255086183547972,-0.9860833133347332
1783245494864147500,4.8881474609375,-0.5451999331235885,0.12408815196156502,-0.9703668348953127
1783245494874159400,4.898159423828125,-0.5198340211987496,0.22199323039650914,-0.8966438654281198
1783245494884170200,4.908170166015625,-0.495920061647892,0.2556125914037227,-0.7801298019826411
1783245494894182400,4.918182373046875,-0.4206254589498043,0.31703415157198905,-0.5989264818098395
1783245494904194300,4.9281943359375,-0.29446576141119,0.40543315051496026,-0.432950139526464
1783245494914205400,4.938205322265625,-0.20967033991813658,0.4325234020143747,-0.29231607256401326
1783245494924217300,4.94821728515625,-0.13914017514288424,0.444583842164278,-0.1687465376490727
1783245494934229200,4.958229248046875,-0.03922492592930794,0.5336000962227583,-0.07454758372306823
1783245494944240400,4.968240478515625,0.10786942308843135,0.6985533425360918,-0.05459328505080193
1783245494954252300,4.978252197265625,0.28268764533400537,0.854077666246891,-0.16122505610305815
1783245494964264400,4.988264404296875,0.4821633389741182,0.9559411269187926,-0.3095255660401657
1783245494974275300,4.998275390625,0.6427244878083467,0.9975777901649474,-0.5268877391025424
1783245494984287200,5.008287353515625,0.7825146512925625,0.957641501095891,-0.7916776164352893
1783245494994298000,5.018298095703125,0.8874106115281581,0.8893611610740423,-0.9827920897696166
1783245495004310300,5.028310302734375,0.9565747486472129,0.8867448410958051,-1.0227271367296575
1783245495014322200,5.038322265625,1.060364208945632,0.9286913009434938,-0.942764249959588
1783245495024333300,5.048333251953125,1.2403887676626444,0.9389233566224574,-0.8103937150821089
1783245495034345500,5.058345458984375,1.4245762912780047,0.871804461595416,-0.7395492236606777
1783245495044357400,5.068357421875,1.595413919454813,0.6961901205360889,-0.722985334611684
1783245495054368300,5.0783681640625,1.699950983250141,0.5448544806867838,-0.7172961830593645
1783245495064380400,5.08838037109375,1.6886790631294248,0.437677716037631,-0.6478552748255432
1783245495074392300,5.098392333984375,1.5225234552890061,0.3680173198342323,-0.5228253119692207
1783245495084403200,5.1084033203125,1.2474188124299048,0.32086861516833304,-0.4038552336737513
1783245495094415400,5.118415283203125,0.9609382045537233,0.3075806790500879,-0.3291286401219666
1783245495104427300,5.12842724609375,0.7224281391203403,0.2928063037663698,-0.283417055587098
1783245495114438400,5.1384384765625,0.5247580335974693,0.2124403891533613,-0.323903525884822
1783245495124450300,5.1484501953125,0.3762970724016428,0.1287163962841034,-0.42737361803576346
1783245495134461400,5.15846142578125,0.2495978611588478,0.034956747090816497,-0.5141491074301302
1783245495144473300,5.168473388671875,0.0845049141138792,-0.08203589365184306,-0.6129723966885358
1783245495154485200,5.1784853515625,-0.12345920640826225,-0.14888532408773897,-0.6439341558590531
1783245495164496400,5.188496337890625,-0.2003238349020481,-0.20484511171877384,-0.5974168809644878
1783245495174508300,5.19850830078125,-0.0346995574593544,-0.24903613562285898,-0.49562268613651395
1783245495184520200,5.208520263671875,0.16030220563709735,-0.2487964816480875,-0.4508331118173897
1783245495194531300,5.21853125,0.17530512897968292,-0.2696791106790304,-0.44121948029771446
1783245495204543200,5.228543212890625,0.21605857965052128,-0.33319384373426436,-0.38830863190852105
1783245495214555100,5.23855517578125,0.26339783845245834,-0.45357086621820925,-0.3400591263938695
1783245495224566300,5.248566162109375,0.16967384509444236,-0.5449088412225246,-0.3371878818064928
1783245495234578400,5.258578369140625,-0.07933364895582198,-0.6254290696144104,-0.3112513303868472
1783245495244590300,5.26859033203125,-0.2967459813028574,-0.6816781955808401,-0.23519911425448953
1783245495254601200,5.278601318359375,-0.4700082062780857,-0.7291735217273235,-0.24218941153325138
1783245495264613400,5.28861328125,-0.7241098085969686,-0.8826859210938215,-0.30403562685437496
1783245495274625300,5.298625244140625,-0.9417565342217683,-1.0781436112642289,-0.39782961670868094
1783245495284636200,5.30863623046875,-1.076595212778449,-1.1478034229457377,-0.424782140237838
1783245495294648300,5.3186484375,-1.2288491365164518,-1.1610814221918582,-0.3267242093287408
1783245495304659500,5.328659423828125,-1.3973042534708975,-1.069759813800454,-0.09746676008291542
1783245495314671400,5.33867138671875,-1.4888281064361333,-0.923728125578165,0.24539324907585977
1783245495324683500,5.34868359375,-1.5202011498212813,-0.7775567366242409,0.6102211982842535
1783245495334694400,5.3586943359375,-1.534288127362728,-0.5896995845854281,0.9401210419744253
1783245495344706300,5.368706298828125,-1.5659049163758754,-0.37915363087654114,1.129607110389322
1783245495354718200,5.37871826171875,-1.5783447112321853,-0.1782107872933149,1.2374245110295712
1783245495364729300,5.388729248046875,-1.5763468154132365,-0.04288461748063564,1.269526307080686
1783245495374741200,5.3987412109375,-1.5982693088859319,0.07556056015789508,1.2962000867336987
1783245495384753200,5.408753173828125,-1.627689464637637,0.2508405546963215,1.3141867020621896
1783245495394764500,5.4187646484375,-1.6521528747648,0.4496820420861244,1.346025024871528
1783245495404776400,5.4287763671875,-1.6550234617650508,0.7009779393345117,1.2104922265708447
1783245495414788400,5.438788330078125,-1.5840274330437183,0.885185921216011,1.0438619869560002
1783245495424799500,5.448799560546875,-1.4923995351821184,0.9933137029796838,0.8026437585424632
1783245495434811400,5.458811279296875,-1.3822738575994968,1.008136593580246,0.47129941513240337
1783245495444822300,5.468822265625,-1.3835387629687785,0.9572451952546834,0.21726488670036195
1783245495454834200,5.478834228515625,-1.3276432727456091,0.9100608347535133,0.08109298677854239
1783245495464846300,5.488846435546875,-1.2313497211605309,0.9274684811502695,0.07841653411090374
1783245495474857200,5.498857177734375,-1.0427221692711115,1.0426438433378935,0.28474150912389157
1783245495484869000,5.508869140625,-0.7319786422759295,1.1197972256451845,0.6088852735053748
1783245495494881300,5.51888134765625,-0.36459494417011734,1.1299234828621147,0.8651539176650345
1783245495504892400,5.528892333984375,0.021444939088821408,1.0899842711836099,1.0429983558639884
1783245495514904300,5.538904296875,0.3318219708591699,1.0359539903104305,1.1273586738754062
1783245495524916500,5.54891650390625,0.6205185012191534,0.9557114098161459,1.1819752302039415
1783245495534927400,5.55892724609375,0.7324737323164939,0.8527513860791921,1.2832277924358844
1783245495544939300,5.568939208984375,0.698890611666441,0.7370569684535264,1.3219327861443162
1783245495554951400,5.578951416015625,0.5749696329653263,0.6195861888051033,1.2899229061603545
1783245495564962300,5.58896240234375,0.3060240972578525,0.5591448718458414,1.2864300956085324
1783245495574974200,5.59897412109375,-0.019860884767770766,0.6123147364974022,1.3104741112798453
1783245495584986000,5.608986083984375,-0.3131318834364414,0.775213972890377,1.3650092729352414
1783245495594997500,5.61899755859375,-0.465274163493514,0.925147344726324,1.3732789425000547
1783245495605009400,5.629009521484375,-0.4425958832174539,0.9958207173645496,1.2895862215518952
1783245495615020300,5.639020263671875,-0.32415830436348914,1.0268231738716362,1.0880275110926478
1783245495625032400,5.649032470703125,-0.05702244842648506,1.031491750204563,0.8733057330038398
1783245495635044400,5.65904443359375,0.23811785124540327,0.9399030153095722,0.6527290914069861
1783245495645055200,5.66905517578125,0.5529582921653986,0.7843611559420823,0.44447212541811165
1783245495655067400,5.6790673828125,0.86541855995059,0.6444049882411956,0.29263394287414846
1783245495665079300,5.689079345703125,1.0634762034863232,0.6154349143445491,0.23487996530272065
1783245495675090400,5.69909033203125,1.1760294004768133,0.6069388886779546,0.2404350421465933
1783245495685102300,5.709102294921875,1.3312760762900113,0.6765028387695551,0.29921441724300385
1783245495695114500,5.719114501953125,1.494947466099262,0.6842062527537346,0.4076483423464
1783245495705125400,5.72912548828125,1.6450976955562828,0.6524006631702184,0.500080688458681
1783245495715137300,5.73913720703125,1.80200616710186,0.5900163954496384,0.5491670101236552
1783245495725149400,5.7491494140625,1.889458240583539,0.4764817862063646,0.5247273461982608
1783245495735160300,5.759160400390625,1.9094214166820047,0.395565836495161,0.4343246062174439
1783245495745172200,5.769172119140625,1.824468174278736,0.3549731293439865,0.3726272247824818
1783245495755183000,5.77918310546875,1.6961106744349002,0.3730956460118294,0.3569391687199473
1783245495765195800,5.78919580078125,1.5689783324718474,0.431239791944623,0.33542825172282753
1783245495775207700,5.799207763671875,1.4404565819770097,0.43751872608363623,0.2840011390853673
1783245495785218800,5.80921875,1.3083119648098944,0.4131429942399263,0.2297443559799343
1783245495795231000,5.81923095703125,1.3006664184927939,0.37639468755722044,0.24384302395917473
1783245495805243000,5.829242919921875,1.3092553831398486,0.3430067972183227,0.2730070129927248
1783245495815253800,5.839253662109375,1.3518278659313916,0.24447218870818613,0.31913309661261735
1783245495825266000,5.849265869140625,1.4441349782288073,0.14751052860319613,0.34259185974188144
1783245495835277800,5.85927783203125,1.5502280392944812,0.027218261793255805,0.35544454624801874
1783245495845288700,5.869288818359375,1.5958990726232527,-0.10924889474809168,0.36892237891517576
1783245495855300900,5.87930078125,1.4737737451672552,-0.2158037281066179,0.389309187253192
1783245495865312800,5.889312744140625,1.2990069608479737,-0.3081739687681198,0.4320695207670331
1783245495875323600,5.89932373046875,1.0639806458771228,-0.3818149590402841,0.4065096206400543
1783245495885335800,5.909335693359375,0.7654360907196999,-0.4776882393866777,0.2735465266969055
1783245495895347700,5.91934765625,0.5175497096538544,-0.5556213738948106,0.09020049540698528
1783245495905358800,5.92935888671875,0.24131226337254047,-0.689904756656289,-0.13197495968863368
1783245495915371000,5.93937109375,-0.03741758424639702,-0.939684988644719,-0.4108535681284964
1783245495925382000,5.9493818359375,-0.25445757614970205,-1.116252684906125,-0.6580466331679373
1783245495935393800,5.959393798828125,-0.49681554918289184,-1.2304296837061643,-0.73358834249489
1783245495945405700,5.96940576171875,-0.7322738258302212,-1.2678209644675253,-0.6706997785139829
1783245495955416800,5.979416748046875,-0.92670275747478,-1.2623597764521837,-0.4839982993163168
1783245495965428700,5.9894287109375,-1.0967881059795617,-1.2289853301167488,-0.22871895845495163
1783245495975440600,5.999440673828125,-1.2670114016503096,-1.2114309687256812,0.03453245726414025
1783245495985452000,6.0094521484375,-1.3626000198364256,-1.2553694791734218,0.21467779281660912
1783245495995464000,6.0194638671875,-1.3630156148999928,-1.3213462184280156,0.22791370648667214
1783245496005475800,6.029475830078125,-1.3017384316384792,-1.3814175330311058,0.09699760820120572
1783245496015486700,6.03948681640625,-1.1904565697580576,-1.414120363715291,-0.11667181129045784
1783245496025499000,6.049498779296875,-1.0311626643806695,-1.3229846332848072,-0.3109633802909404
1783245496035510800,6.0595107421875,-0.8868371955543756,-1.2972329369127749,-0.5784385511849075
1783245496045521700,6.069521728515625,-0.8759785324096679,-1.331735510495305,-0.9338187269598245
1783245496055533800,6.079533935546875,-0.98382808175385,-1.2956149803221224,-1.2093713327821343
1783245496065545000,6.089544921875,-1.1899673249363898,-1.1921405773222447,-1.3569682975597679
1783245496075556900,6.099556884765625,-1.368302615392208,-1.0064461562752722,-1.35803168900758
1783245496085569000,6.109569091796875,-1.5006722734868525,-0.7707160769492387,-1.1572745772548019
1783245496095580000,6.119579833984375,-1.5267583163797855,-0.5616700064092874,-0.8520818162545561
1783245496105591800,6.129591796875,-1.4724486340433358,-0.4251216013252735,-0.4456254601716995
1783245496115604000,6.13960400390625,-1.3335346688717602,-0.2552934424519539,-0.05845416173003613
1783245496125614800,6.14961474609375,-1.1142536200433968,-0.12509119152426718,0.21204985546581445
1783245496135626800,6.159626708984375,-0.857598826110363,-0.1038631100565195,0.3036408553831279
1783245496145639000,6.169638916015625,-0.5953998420536518,-0.16639350824952123,0.28040925207324324
1783245496155649800,6.17964990234375,-0.24553894115686414,-0.2070464211553335,0.16230386431571095
1783245496165661700,6.18966162109375,-0.13180384090542793,-0.2436193712711334,-0.08348331598117947
1783245496175673600,6.199673583984375,-0.11548165165781975,-0.29126667310893534,-0.3239987298876047
1783245496185685000,6.20968505859375,-0.20651742884516716,-0.30639760674536226,-0.6003830372937023
1783245496195697000,6.21969677734375,-0.2898562217891216,-0.3051408846825361,-0.8598037888087332
1783245496205708800,6.229708740234375,-0.4056546843111515,-0.2756166840344667,-1.053918028480932
1783245496215720000,6.239719970703125,-0.5398609101831913,-0.1776367867976427,-1.1490475777879356
1783245496225731800,6.24973193359375,-0.5787210944533348,-0.13637187947332857,-1.1941063244372605
1783245496235742700,6.25974267578125,-0.6380939053982496,-0.11239537608027457,-1.2007638826303184
1783245496245754600,6.269754638671875,-0.7418465408176184,-0.07112053188383578,-1.121575633494556
1783245496255766800,6.279766845703125,-0.9320657458126544,-0.07378770526647567,-0.909699600225687
1783245496265778000,6.28977783203125,-1.1127496452212333,-0.05502396808564663,-0.571129543345794
1783245496275789800,6.299789794921875,-1.227166297996044,-0.000015197569131851195,-0.1708453730918467
1783245496285802000,6.309802001953125,-1.3066466619461774,0.013405425018072127,0.21229491626806557
1783245496295812900,6.319812744140625,-1.3050778051942586,0.0638479105323553,0.5093897475412115
1783245496305824800,6.32982470703125,-1.1582482445925473,0.17247487398982048,0.6976935108363628
1783245496315837000,6.3398369140625,-0.8725818757086992,0.32752573496997356,0.8253761801585554
1783245496325847800,6.349847900390625,-0.5451958414703607,0.4770277296513319,0.834022281820327
1783245496335859700,6.359859619140625,-0.19670447536110877,0.5453250208079815,0.6834194862902164
1783245496345872000,6.369871826171875,0.22175299189984798,0.5664180777192116,0.45939917051289225
1783245496355883000,6.379883056640625,0.5590653768688439,0.6552806025207042,0.3033117695592344
1783245496365895000,6.38989501953125,0.7864905691862106,0.8429612289488315,0.19100465628430247
1783245496375905800,6.39990576171875,1.0568319431662558,1.0098293689727782,0.11075261384192854
1783245496385918000,6.40991796875,1.22562608281672,1.1041951673656702,0.031718276626244185
1783245496395929900,6.419929931640625,1.3048808213174343,1.1178624581903218,-0.04134688651934266
1783245496405940700,6.429940673828125,1.3310305770963429,1.0798287878721953,0.0034294629920274015
1783245496415953000,6.439952880859375,1.260620823830366,1.07129652184844,0.06515767795667052
1783245496425964800,6.44996484375,1.172616961684823,1.0412731395065784,0.10940357385315
1783245496435975700,6.4599755859375,1.1075041457831858,0.9458785825878381,0.09541450372822582
1783245496445987800,6.46998779296875,1.0827402914047242,0.7925251731753349,0.01738273115120828
1783245496455999700,6.479999755859375,1.0679513030737637,0.6470528724014759,-0.038032574339583514
1783245496466011000,6.490010986328125,1.12407651039958,0.5536778386116028,-0.06721468355171382
1783245496476022800,6.500022705078125,1.2374872010022402,0.5044517431497574,-0.09461319728270172
1783245496486035000,6.510034912109375,1.3358902920871971,0.3954015858441591,-0.08851692623421549
1783245496496045800,6.5200458984375,1.4245780448436736,0.2584551213532686,-0.04022657725252211
1783245496506057700,6.5300576171875,1.4350596913695335,0.11094225466251373,-0.007400704710558056
1783245496516070000,6.54006982421875,1.3688140720456838,-0.044482115805149075,0.03467361930049956
1783245496526080800,6.550080810546875,1.2551947071284055,-0.20835984184145925,0.05915507654100656
1783245496536092700,6.5600927734375,1.1217851845920086,-0.26769290529787537,0.052465734970197075
1783245496546103800,6.570103759765625,0.9387520917087793,-0.22438743205666542,0.16009696538858115
1783245496556116000,6.580115966796875,0.7557540701389313,-0.15754443136155605,0.2062362007509917
1783245496566127900,6.5901279296875,0.5598842920362949,-0.12312485988736152,0.22987536194846034
1783245496576138800,6.600138671875,0.3726128309309482,-0.16325053404867648,0.20763898022100327
1783245496586151000,6.61015087890625,0.22876374744474887,-0.13955927733778953,0.19235672848038374
1783245496596162800,6.620162841796875,0.06422434262931347,-0.12127017193138599,0.11249058008305728
1783245496606173700,6.630173583984375,0.028373277047276494,-0.09954933851063251,-0.031873978644609446
1783245496616185900,6.640185791015625,0.02754208692014217,-0.1665033983647823,-0.14004201935343444
1783245496626197800,6.65019775390625,0.04114917199015617,-0.26953414925038816,-0.1960628164567053
1783245496636209000,6.660208984375,-0.011576456025242805,-0.4045329868048429,-0.12204203308671713
1783245496646220800,6.670220703125,-0.16387831055819987,-0.5118313320070504,0.027559622576832768
1783245496656233000,6.68023291015625,-0.35453123079538346,-0.5974217032700777,0.2207702644728124
1783245496666243800,6.690243896484375,-0.5481833328485488,-0.6986614790856838,0.3407525885507464
1783245496676256000,6.700256103515625,-0.7383072607755661,-0.7681845126450061,0.4686310727059841
1783245496686267000,6.710266845703125,-0.914123261886835,-0.7624082673311233,0.601325286579877
1783245496696278800,6.72027880859375,-1.0906406892657279,-0.654018619760871,0.7329694068789482
1783245496706290700,6.730290771484375,-1.1672878756165503,-0.543697711867094,0.7860941172145307
1783245496716301800,6.7403017578125,-1.1049088685929775,-0.5035895733624697,0.7951581520274281
1783245496726313700,6.750313720703125,-0.9338497066199779,-0.49013387946188447,0.7884026864178478
1783245496736325600,6.76032568359375,-0.7454477801799774,-0.5096113178700208,0.8846107516765594
1783245496746337000,6.7703369140625,-0.6334259135872126,-0.46031449525952334,1.047733421561867
1783245496756349000,6.780348876953125,-0.4793015198022127,-0.28600188444852825,1.2027590019702912
1783245496766359800,6.79035986328125,-0.325758725297451,-0.17163023985922335,1.3792590398229658
1783245496776370700,6.80037060546875,-0.15331366192400456,-0.12458791817724704,1.5779004745960235
1783245496786382800,6.8103828125,-0.10495090529322623,-0.013563830450177191,1.8237236395217478
1783245496796394800,6.820394775390625,-0.23648528160750865,0.10335925218760966,1.9900598646260796
1783245496806406000,6.830406005859375,-0.7132499764084815,0.28722178163230416,1.9931318194173275
1783245496816418000,6.84041796875,-1.2868997589468956,0.5837216792196035,1.921924778293818
1783245496826430000,6.850429931640625,-1.6109481731951236,0.9073241032660007,1.739101090377569
1783245496836440800,6.86044091796875,-1.7535837892383337,1.095176579129696,1.4296101937919854
1783245496846452700,6.87045263671875,-1.8466940346121787,1.2079407885223625,1.0005877125706524
1783245496856464000,6.8804638671875,-1.8094558985859155,1.2675561760514973,0.6377690573580562
1783245496866475800,6.890475830078125,-1.6595114208340644,1.1847937216907738,0.35624957902058957
1783245496876487700,6.90048779296875,-1.5843360606014727,1.0216507396697998,0.09133636756911873
1783245496886498800,6.910498779296875,-1.3813333618789911,0.9483113626927137,-0.0038277415946125983
1783245496896510700,6.9205107421875,-1.164793136191368,0.9539490763187408,0.1591981168527156
1783245496906522600,6.930522705078125,-0.8819844948261976,1.0055372247368097,0.46826706169918175
1783245496916533800,6.94053369140625,-0.5237409655094146,0.970301076182723,0.771547267076373
1783245496926546000,6.9505458984375,-0.2633493231356144,0.7404629775047302,0.9217935042537748
1783245496936557800,6.960557861328125,-0.01914659901857376,0.5238134462237358,1.017900885616988
1783245496946568700,6.970568603515625,0.21892975117266178,0.3599456570595503,1.165155978154391
1783245496956580900,6.980580810546875,0.37146132280826566,0.34772505791187286,1.3406703659705816
1783245496966592800,6.9905927734375,0.44655543449819085,0.4062064729750156,1.5096522832781076
1783245496976603600,7.000603759765625,0.46701311611533164,0.5110556714594364,1.6075157145284116
1783245496986615800,7.01061572265625,0.4444336200386286,0.5426899961292744,1.6691351353563368
1783245496996627000,7.020626953125,0.38258594341278074,0.5636795926660298,1.5946777141347526
1783245497006638800,7.030638916015625,0.32206980765163895,0.5624971048831939,1.4450759123407304
1783245497016651000,7.040651123046875,0.21812954070568083,0.5572042591720819,1.187279401026666
1783245497026662000,7.050661865234375,0.22924890061318873,0.6060860712409019,0.9589570406738668
1783245497036673800,7.060673828125,0.29426059422791,0.6060854867190122,0.7549196651414036
1783245497046686000,7.07068603515625,0.41079380076527594,0.5697241335272789,0.5279563912473618
1783245497056696800,7.08069677734375,0.561150366449356,0.5163619611740112,0.35670119524560867
1783245497066708700,7.090708740234375,0.7089958260953426,0.586986233973503,0.1106058623149991
1783245497076720600,7.100720703125,0.8042121038377285,0.5338643001168966,0.014150178970769046
1783245497086732000,7.11073193359375,0.9499369180679321,0.39782442907691,-0.10950754568427801
1783245497096744000,7.120743896484375,1.1116016442298888,0.28713585691452026,-0.12862711056545376
1783245497106755800,7.130755859375,1.2210738263398409,0.2072638632982969,-0.08709098508432507
1783245497116767000,7.14076708984375,1.306115916070342,0.1418833363711834,0.01882971508912742
1783245497126779000,7.15077880859375,1.422182674139738,0.14489070149362088,0.15911960825640709
1783245497136790800,7.160790771484375,1.5293535935699938,0.17563421480357647,0.27907544618621466
1783245497146801700,7.1708017578125,2.233695456379652,0.3550298279672861,0.19476232831738888
1783245497156813800,7.180813720703125,1.6855033557027577,0.1957318309366703,0.14726155881080777
1783245497166824700,7.19082470703125,0.969359411418438,0.03699731300771236,0.28993418239615854
1783245497176836600,7.200836669921875,0.9464221879452467,0.057476621934771537,0.3575545241393149
1783245497186848800,7.210848876953125,0.599495002412796,0.1811310586541891,0.4320283119738102
1783245497196860000,7.22085986328125,0.22447569486200808,0.19438684606850146,0.2507651148399338
1783245497206871800,7.230871826171875,-0.10042495230138301,0.09768646724820136,0.030971522512705994
1783245497216884000,7.240884033203125,-0.20734102018773554,0.025595629027485845,-0.1957603263787925
1783245497226894800,7.250894775390625,-0.24708090990185735,0.002454407414793968,-0.4071123357735574
1783245497236906800,7.26090673828125,-0.29358839405477044,0.06048047992587089,-0.4546641413476318
1783245497246919000,7.2709189453125,-0.14773732309639453,0.11423135933578013,-0.41032662164494393
1783245497256929800,7.2809296875,-0.0016594576448202133,0.10214578474462031,-0.2938108776990324
1783245497266941700,7.290941650390625,0.2074643543064594,0.049636429828405375,-0.19133237213501705
1783245497276953900,7.300953857421875,0.4017220210373401,-0.050444239079952234,-0.17889166396325454
1783245497286965000,7.310965087890625,0.5663122792571783,-0.2273030272424221,-0.1248343854852952
1783245497296977000,7.320976806640625,0.7296814712494611,-0.3912164091140032,-0.08353471737485378
1783245497306987800,7.33098779296875,0.8643518075019121,-0.49669630671739573,-0.08537320311469956
1783245497317000000,7.341,0.8085013254642486,-0.6013081893146037,-0.17143763989657163
1783245497327011800,7.35101171875,0.49028702419698234,-0.6951520096600056,-0.44656818438190965
1783245497337022700,7.361022705078125,0.07435001532435417,-0.7671393875062466,-0.7092102725636213
1783245497347035000,7.371034912109375,-0.4492711231976747,-0.8554764271289109,-0.8574876938860863
1783245497357046800,7.381046875,-0.9257862271517515,-0.8506278180539607,-0.8822919533401727
1783245497367058000,7.391057861328125,-1.252920332455635,-0.8174410032451153,-0.8810375693649053
1783245497377069800,7.40106982421875,-1.4118214391231536,-0.6478969220101833,-0.7315482880346477
1783245497387082000,7.41108203125,-1.5217764363139867,-0.45877661816775794,-0.5626548892607912
1783245497397092900,7.4210927734375,-1.4563772046864032,-0.4173135579228401,-0.5123055984552949
1783245497407104800,7.431104736328125,-1.1017238088160752,-0.4928431384205818,-0.4486296469563618
1783245497417117000,7.441116943359375,-0.7323439684569836,-0.5643102917850017,-0.429822326362133
1783245497427127800,7.4511279296875,-0.4305009562760591,-0.7071066513478755,-0.48825350907538084
1783245497437139700,7.4611396484375,-0.2119488062441349,-0.911176687040925,-0.6109081941677257
1783245497447150600,7.471150634765625,-0.056387657654285425,-0.9736205759942531,-0.7445298616174608
1783245497457162800,7.481162841796875,-0.043221302089095116,-0.9586930559754371,-0.7886643330287187
1783245497467174700,7.491174560546875,-0.13405015852749347,-0.8024731512159109,-0.7542974415898323
1783245497477185800,7.501185791015625,-0.3203612501680851,-0.5353776272892952,-0.6694315852090716
1783245497487198000,7.511197998046875,-0.5130290173590183,-0.20691081207692621,-0.5260017500482499
1783245497497209900,7.5212099609375,-0.6506237166255712,0.11307692860364914,-0.40211306618154047
1783245497507220700,7.531220703125,-0.7506400881260633,0.3612549860924482,-0.3487131191011518
1783245497517233000,7.54123291015625,-0.861093682488799,0.57158700478971,-0.31913221982978285
1783245497527244800,7.551244873046875,-1.0100105707585811,0.7790268091768026,-0.3451343838315457
1783245497537255700,7.561255615234375,-1.148811723205447,0.8595669113129377,-0.39143706612735985
1783245497547267800,7.571267822265625,-1.1425076546251773,0.8074877645075321,-0.5419109015155583
1783245497557279700,7.58127978515625,-1.0900216805845497,0.6892401552677154,-0.6969341438364237
1783245497567291000,7.591290771484375,-0.9793144037216901,0.6535159309357405,-0.7855006813660264
1783245497577303000,7.601302978515625,-0.8429676586896181,0.6546031416505574,-0.8472446053564548
1783245497587315000,7.61131494140625,-0.7038765833854674,0.6767904235392809,-0.9076184831026941
1783245497597325800,7.621325927734375,-0.5295505285710096,0.6347042629599571,-0.9263398424465209
1783245497607337700,7.631337646484375,-0.34485154830217357,0.5455161594659089,-0.9341790116395801
1783245497617348900,7.641348876953125,-0.22574235379695892,0.4478951586693525,-0.9468376368783413
1783245497627360800,7.65136083984375,-0.20080080476403236,0.36925299910902976,-0.8911176493525504
1783245497637372700,7.66137255859375,-0.26021394771933554,0.348854938724637,-0.8066239142198115
1783245497647383800,7.6713837890625,-0.3588111000716686,0.3174228586286306,-0.6855255917239934
1783245497657395700,7.681395751953125,-0.5497206254184246,0.3012327713280916,-0.48350035973154004
1783245497667408000,7.691407958984375,-0.7932815445005893,0.3623673312485218,-0.14013605431243775
1783245497677418800,7.701418701171875,-1.0117419245958328,0.5382002834945917,0.22507300316803155
1783245497687431000,7.711430908203125,-1.1637556098371744,0.685298139643669,0.5569781222660094
1783245497697442800,7.72144287109375,-1.2603215486228465,0.772552644726634,0.7963496998995542
1783245497707453700,7.73145361328125,-1.2543559182167052,0.8517056764185428,0.9050739862516521
1783245497717465900,7.7414658203125,-1.0515069487512112,0.8812772233396768,0.8812816803190857
1783245497727477800,7.751477783203125,-0.6959440368205309,0.8638964649498462,0.6866641672998667
1783245497737488600,7.761488525390625,-0.29448154350221156,0.844148392906785,0.4927264532383531
1783245497747500800,7.771500732421875,0.08911620730161667,0.8806599682241678,0.4621547162987292
1783245497757512000,7.781511962890625,0.4318231447905302,0.9887170228391885,0.5176998587142676
1783245497767524400,7.7915244140625,0.5835176810801029,0.9496844046115874,0.5790678620643913
1783245497777536500,7.80153662109375,0.7293617377758026,0.9361275884240865,0.5826148139562457
1783245497787547400,7.81154736328125,0.8032096487969159,0.9870838686794042,0.5733856517095118
1783245497797559300,7.821559326171875,0.842975257474184,1.0465016878098248,0.48006548991203307
1783245497807571500,7.831571533203125,0.947018400272727,1.1847405301988123,0.4430146931514144
1783245497817582300,7.841582275390625,0.8233522731155156,1.3637187947332858,0.48880971818603575
1783245497827594200,7.85159423828125,0.7174561959266662,1.0221423225790263,0.45359607372470195
1783245497837606400,7.8616064453125,1.0702665942788123,0.41950317692160605,0.22808467913940547
1783245497847617300,7.8716171875,1.2565233253836632,0.1381359665364027,0.05545308021791279
1783245497857629200,7.881629150390625,1.110986142680049,0.3856500071585178,0.40133514061160386
1783245497867641000,7.89164111328125,0.617719810411334,0.6598948183178901,0.8736148720182478
1783245497877652500,7.901652587890625,0.20578443839550017,0.8121201004832983,1.208870762848854
