time,seconds_elapsed,z,y,x
1783245500184999000,0.0589990234375,-0.30133856979012485,-0.03181318836808204,-0.37315482885316015
1783245500195010000,0.069010009765625,-0.40987493235468864,-0.023670213922858237,-0.4610665922684595
1783245500205022000,0.07902197265625,-0.4432295049458742,-0.04730652557611465,-0.5434553544785827
1783245500215034000,0.0890341796875,-0.4477519508063793,-0.09864040697216987,-0.667607000130415
1783245500225045000,0.099044921875,-0.3911608795344829,-0.08805530007183551,-0.7161163986902683
1783245500235057000,0.109056884765625,-0.17193594480752944,-0.07636661584377288,-0.6581761778317391
1783245500245069000,0.119069091796875,-0.20053075565099715,-0.24668986475765703,-0.6326848128963262
1783245500255080000,0.129079833984375,-0.30120939045250417,-0.473812274736166,-0.526316478553228
1783245500265091800,0.139091796875,-0.31847616707384585,-0.39199265418350693,-0.3307856866139918
1783245500275104000,0.14910400390625,-0.2470744801610708,-0.10776596271395683,-0.12360179321672767
1783245500285115000,0.159114990234375,-0.08135375660657883,0.0723445207208395,-0.031235717273689803
1783245500295127000,0.169126953125,0.02760579980611801,0.028613515543937682,-0.22204558163825422
1783245500305139000,0.179138916015625,0.10391513250470161,-0.10324176328778266,-0.419388793294318
1783245500315150000,0.189150146484375,0.15123451756238937,-0.15294249052405356,-0.5027417608940974
1783245500325162000,0.199161865234375,0.1831926673591137,-0.06772855135798454,-0.42563378863111134
1783245500335174000,0.209173828125,0.26536884626448154,0.02129062530994415,-0.2311457106778398
1783245500345185000,0.21918505859375,0.4132674974024296,0.027810966989398,-0.10614135718680917
1783245500355197000,0.229197021484375,0.5236012647777796,-0.11352817950248717,-0.01640877155251801
1783245500365208800,0.239208740234375,0.6309598157346248,-0.20852467701435087,0.01234981501791626
1783245500375220000,0.249219970703125,0.6958458371430635,-0.1716542052567005,0.011570537741109728
1783245500385232000,0.25923193359375,0.740194681957364,-0.12717968823611736,0.007666187246330082
1783245500395243000,0.269242919921875,0.728475018069148,-0.09577391162514685,-0.014056436272710561
1783245500405255000,0.2792548828125,0.6653998454749583,-0.07168693359494209,-0.09997202090211212
1783245500415267000,0.28926708984375,0.6035498307615518,-0.07448620892465115,-0.20223595213368534
1783245500425278000,0.29927783203125,0.5921177516430616,-0.117191378185153,-0.29639333194028583
1783245500435289900,0.309289794921875,0.5863643026828765,-0.19685411296486854,-0.3989335958952084
1783245500445302000,0.319302001953125,0.688347590342164,-0.20967560061514376,-0.45679172796085477
1783245500455313000,0.32931298828125,0.7904261550694703,-0.1851519847333431,-0.47843313946984706
1783245500465324800,0.33932470703125,0.8801713079243898,-0.19953180774152277,-0.4619022759076208
1783245500475337000,0.3493369140625,0.9980787254244089,-0.265205764657259,-0.44313473933450875
1783245500485348000,0.35934814453125,1.082608189457655,-0.35155426081120966,-0.41095184087119996
1783245500495360000,0.369360107421875,1.0908686528027056,-0.39400107139647006,-0.3498022295121103
1783245500505372200,0.3793720703125,1.0474018515199421,-0.41932022157013416,-0.21685579444281755
1783245500515383000,0.389383056640625,1.005018169298768,-0.4849661214351654,-0.14955375226805917
1783245500525395000,0.39939501953125,0.9515431842207908,-0.5820470240056514,-0.191002756588161
1783245500535406800,0.40940673828125,0.7938479462116956,-0.5985036532878876,-0.23351201968407256
1783245500545418000,0.41941796875,0.47540509688556193,-0.5981622925043105,-0.2169193063993938
1783245500555430000,0.429429931640625,0.12092647306025027,-0.49257951904833314,-0.1879021236917004
1783245500565441800,0.43944189453125,-0.08158230466544628,-0.36982524603903294,-0.1850675213202834
1783245500575453000,0.449452880859375,-0.37479017497003075,-0.33102877465486524,-0.2522466038356535
1783245500585464800,0.45946484375,-0.6811246533513069,-0.28525778808295726,-0.380548190507479
1783245500595477000,0.46947705078125,-0.7341290983080864,-0.33308921431601046,-0.5693203750319779
1783245500605487900,0.47948779296875,-0.9015934506595135,-0.4740530977547168,-0.7947448950514197
1783245500615500000,0.4895,-0.9811007026165723,-0.6232113935649395,-0.840547884196788
1783245500625512000,0.499511962890625,-1.1425257748037576,-0.7100678392410278,-0.8982751929569989
1783245500635522800,0.509522705078125,-1.314873807543516,-0.6349678823322057,-0.8092807854041457
1783245500645535000,0.519534912109375,-1.3438047184735535,-0.544266451665759,-0.784427572241798
1783245500655547000,0.529546875,-1.317218324843049,-0.46067806787490845,-0.7584539767473936
1783245500665557800,0.539557861328125,-1.2500380550175905,-0.3053600803911686,-0.6536386074673384
1783245500675570000,0.54956982421875,-1.2221423323541878,-0.046240357649326325,-0.4024340052315965
1783245500685581800,0.559581787109375,-1.2525403932273387,0.16607260573208332,0.005371628302056342
1783245500695593000,0.569593017578125,-1.287604107823968,0.3139367700785398,0.4240617900740355
1783245500705605000,0.579605224609375,-1.3211749535143376,0.39393443590104577,0.7819542409308254
1783245500715617000,0.589616943359375,-1.432973532745242,0.48631636700034137,1.0863663729473947
1783245500725628000,0.5996279296875,-1.584647026246786,0.6579185498088598,1.3135484041586518
1783245500735640000,0.60964013671875,-1.674376397010684,0.8521616034924984,1.3840550419278441
1783245500745652000,0.61965185546875,-1.690954022324085,1.005049733480811,1.3900580817349255
1783245500755662800,0.629662841796875,-1.5327759692341087,1.1226005926281213,1.233121407008171
1783245500765675300,0.63967529296875,-1.2036369538486003,1.1958686579346656,0.9371361078795045
1783245500775687200,0.649687255859375,-0.8318108893811702,1.1553367410600184,0.57817394543197
1783245500785698000,0.659697998046875,-0.5336030188322067,1.0557020623534916,0.24439050177410243
1783245500795710200,0.669710205078125,-0.23627543824911115,0.9267267228722572,-0.11079449848858638
1783245500805722000,0.67972216796875,-0.042889878177642816,0.8553934250205755,-0.2885422348474152
1783245500815733200,0.689733154296875,0.03458382212519646,0.7717547723472118,-0.3279879456542432
1783245500825745200,0.6997451171875,0.1466840146511793,0.664068889132142,-0.29902832008637487
1783245500835757300,0.70975732421875,0.30726562175154687,0.5677671542406082,-0.1713616337846033
1783245500845768200,0.719768310546875,0.4696674300163984,0.42605216017365455,-0.042672755695087834
1783245500855780000,0.729780029296875,0.5172317297458648,0.22918635677099228,0.1446045232296921
1783245500865791000,0.739791015625,0.40821839731931686,0.017367314386367797,0.39567945293746887
1783245500875803100,0.74980322265625,0.2116033538073301,-0.05132452904582023,0.8242140045113862
1783245500885815000,0.75981494140625,-0.06730944916307925,0.0546983893930912,1.3882159609995781
1783245500895826200,0.769826171875,-0.23311317482590674,0.17835399515628814,1.8644766518011688
1783245500905838300,0.77983837890625,-0.2990162643224001,0.24863398456275462,2.163460767419636
1783245500915850200,0.789850341796875,-0.3141898680567741,0.2940513353914022,2.296125024546683
1783245500925861000,0.799861083984375,-0.2239998940438032,0.34308863028287884,2.302719600506127
1783245500935873300,0.809873291015625,-0.042429859450459476,0.40045945375561715,2.1466142620369792
1783245500945885200,0.81988525390625,0.20295710601508615,0.46252866417765615,1.7777523080721496
1783245500955896000,0.82989599609375,0.44116848076283927,0.5056400761514902,1.2952519922286272
1783245500965908200,0.839908203125,0.6566121433854103,0.5815776529282332,0.7966510209336877
1783245500975920000,0.849920166015625,0.8040186270922421,0.6823503957539796,0.3937274420868605
1783245500985931300,0.85993115234375,0.8897247336894273,0.7012211004406214,0.09276452807555906
1783245500995943400,0.869943359375,0.9642273092269897,0.6331225467264652,-0.13397223445307463
1783245501005955300,0.879955322265625,0.9198422240555286,0.5489648386150598,-0.23513695400478318
1783245501015966200,0.88996630859375,0.8576935186564922,0.45534430563151834,-0.18866883374787866
1783245501025978000,0.89997802734375,0.7245055299162865,0.3376677742779255,-0.019144735855050384
1783245501035990300,0.909990234375,0.5619347948253155,0.26061083808243274,0.27446510284654796
1783245501046001200,0.920001220703125,0.44754386101365085,0.2798953842669725,0.6069719872299582
1783245501056013000,0.930012939453125,0.41507659265100955,0.2875426841497421,0.880461815303564
1783245501066025200,0.940025146484375,0.5326508326739072,0.28321839120984077,1.0314292794276028
1783245501076036000,0.9500361328125,0.7756330750852822,0.28294015879034995,1.0864064857620745
1783245501086048000,0.960048095703125,0.9837971020936965,0.2627291454106569,1.0468491860732436
1783245501096060200,0.97006005859375,1.1235247217357158,0.1907505353927612,0.957339303278923
1783245501106071300,0.9800712890625,1.2342232307702303,0.17051614113748073,0.9103552876554429
1783245501116083200,0.990083251953125,1.294547058829665,0.2420557752162218,0.9340801543749868
1783245501126095400,1.000095458984375,1.315662912094593,0.2895014170020819,0.9020070729617029
1783245501136106200,1.010106201171875,1.2466495816230774,0.26366847208738325,0.7970187582675368
1783245501146118100,1.0201181640625,1.0689046582758426,0.1744821221590042,0.6644035279139876
1783245501156130000,1.030130126953125,0.8184872974276542,0.09548574233353137,0.5919528434049338
1783245501166141200,1.04014111328125,0.5283382301717996,0.0872059897661209,0.5871990730065852
1783245501176153000,1.050153076171875,0.2088333045721054,0.12381108858585357,0.6124656892754137
1783245501186165000,1.0601650390625,-0.10413841986656189,0.10740472818613052,0.6999472080472856
1783245501196176400,1.07017626953125,-0.3847223709195852,0.06555062279701232,0.787315548768267
1783245501206188300,1.080188232421875,-0.5960007305562496,0.014294482812285422,0.8923442685380577
1783245501216200200,1.0902001953125,-0.817191412398219,-0.08350888881385325,1.011950598910451
1783245501226211300,1.10021142578125,-0.9573527472823857,-0.11878303129076957,1.1232583989497273
1783245501236223200,1.11022314453125,-0.9363023604691028,-0.09177169024646281,1.2001746845655143
1783245501246235100,1.120235107421875,-0.9391320309370755,-0.09159867176711559,1.2647028324469922
1783245501256246000,1.13024609375,-1.057747304445505,-0.0916810893535614,1.2305650005236268
1783245501266258200,1.140258056640625,-1.2327853069216013,-0.11800035648047923,1.240205958441645
1783245501276270000,1.15027001953125,-1.2701654817670582,-0.10931260763406753,1.1724058031521738
1783245501286281200,1.16028125,-1.05288875849843,-0.12932722165882587,1.1370901596210896
1783245501296293400,1.17029345703125,-0.9032359571695328,-0.1789396860897541,1.1733094739936292
1783245501306305300,1.18030517578125,-0.746289491701126,-0.2812292632192373,1.157152996701747
1783245501316316200,1.190316162109375,-0.5771481460481882,-0.42805648573338984,1.1618810481369495
1783245501326328300,1.200328369140625,-0.41665830888450145,-0.5266472083449364,1.174029239635542
1783245501336340200,1.21034033203125,-0.29261224249899387,-0.5064209973961115,1.2074980862561613
1783245501346351000,1.22035107421875,-0.2054734727501869,-0.47575171836614605,1.2045243311423808
1783245501356363300,1.23036328125,-0.27802432969808577,-0.42747897810637947,1.2405408894844352
1783245501366374100,1.2403740234375,-0.30990415356159207,-0.4031055843502283,1.2660697368860243
1783245501376386000,1.250385986328125,-0.2773369319558143,-0.5037070622622967,1.2640877692885697
1783245501386398000,1.26039794921875,-0.35569793648719783,-0.6168892048060893,1.191988966957107
1783245501396409300,1.270409423828125,-0.48653147105574607,-0.6865244665682315,1.172633912819624
1783245501406421200,1.280421142578125,-0.47076048595011233,-0.6548492253661156,1.1258562334232032
1783245501416433200,1.29043310546875,-0.31004443881511684,-0.6539858865350484,1.0089498096592724
1783245501426444300,1.3004443359375,-0.1651753646314144,-0.7818471272945403,0.7782770137228071
1783245501436456200,1.310456298828125,-0.2222048273205757,-0.9004524639308452,0.4660724742643535
1783245501446468000,1.320468017578125,-0.32874738571941853,-0.8984650895059109,0.26266177926287054
1783245501456479200,1.330479248046875,-0.5302332501381636,-0.782041773083806,0.12895853447690606
1783245501466491100,1.3404912109375,-0.646715018749237,-0.48915071364343166,0.024666239222884176
1783245501476503000,1.3505029296875,-0.7456459331005811,-0.4302367523819208,0.05596680189371109
1783245501486514200,1.36051416015625,-0.6162544140338897,-0.44343467212915416,0.2803207700721919
1783245501496526300,1.3705263671875,-0.21809096226096153,-0.3608545885980129,0.4911756435997784
1783245501506538200,1.380538330078125,0.06653261957168578,-0.3391752562314272,0.6402944841824472
1783245501516549000,1.390549072265625,0.17301263412833212,-0.31614976995289323,0.6822839063890278
1783245501526561300,1.400561279296875,0.23010580970346925,-0.4340817373722791,0.6504224949650466
1783245501536573200,1.4105732421875,0.20749650301039219,-0.5294570050686598,0.6041376405868679
1783245501546584000,1.420583984375,-0.09677695118784904,-0.4668623094677925,0.6318368908300995
1783245501556596200,1.43059619140625,-0.4346276808172464,-0.24584289253950117,0.7486088745594024
1783245501566608100,1.440608154296875,-0.5878448966294527,0.003673720076680183,0.8820181048348545
1783245501576619300,1.450619384765625,-0.6256394974946975,0.2336328147858381,0.8082115487374365
1783245501586631400,1.46063134765625,-0.5963228021174669,0.3499456565707922,0.4358100224696099
1783245501596643300,1.470643310546875,-0.4881786537408828,0.21271394539773464,0.007482318579405546
1783245501606654200,1.480654296875,-0.30352234356999397,0.032057518517971034,-0.37587314790114756
1783245501616666000,1.490666015625,-0.14837679004371165,0.06129354987442493,-0.6563799420647323
1783245501626678300,1.50067822265625,-0.06402034448981285,0.23338614654839038,-0.8490630529552697
1783245501636689200,1.510689208984375,0.038841479569673536,0.4294359573930502,-1.0102505169942975
1783245501646701000,1.520701171875,0.12737550306916237,0.4132546379208564,-1.3002028926342726
1783245501656713200,1.530713134765625,0.18496318416297436,0.27691023097634315,-1.6080635576695204
1783245501666724000,1.54072412109375,0.25483283920288086,0.14237316571474073,-1.8506730212457476
1783245501676736000,1.550736083984375,0.3264578134775162,0.03293722396194935,-2.0327349310092626
1783245501686748200,1.560748046875,0.3825613934934139,-0.12591595191061497,-2.124081235450506
1783245501696759300,1.57075927734375,0.47859366379380225,-0.25854864485561846,-2.1054424398235976
1783245501706771200,1.580771240234375,0.4953869776844978,-0.3439665821611881,-1.986018918672204
1783245501716783400,1.590783447265625,0.36290801399648187,-0.36070495099425315,-1.8092413790524005
1783245501726794200,1.600794189453125,0.23061551279127596,-0.3045709758400917,-1.5811409178219735
1783245501736806100,1.61080615234375,0.06468962205350398,-0.221969264999032,-1.2442128559954464
1783245501746818300,1.620818359375,-0.053504795694351195,-0.11890461184382438,-0.8966369972959161
1783245501756829200,1.6308291015625,-0.21293840180337428,-0.013060557103157042,-0.5856153840117156
1783245501766840600,1.640840576171875,-0.3952583779811859,0.12886018866896629,-0.3342176338240504
1783245501776852500,1.6508525390625,-0.4666051198363304,0.3063619509100914,-0.09143982794359326
1783245501786863600,1.660863525390625,-0.48671851806044575,0.4424029909938574,0.04417757990062236
1783245501796875500,1.67087548828125,-0.4215986878961324,0.49013914015889165,0.08580284496992827
1783245501806887700,1.6808876953125,-0.23240707238316535,0.483439350259304,0.01303016196489334
1783245501816898600,1.690898681640625,-0.066998483517766,0.5723474677681922,-0.09704349316954612
1783245501826910500,1.700910400390625,0.17327683802247046,0.6279074424266815,-0.14722016735449434
1783245501836922600,1.710922607421875,0.41503626064062116,0.6417658719092607,-0.23239362837970257
1783245501846933500,1.72093359375,0.6679156276881695,0.5569833098977803,-0.4064548947781324
1783245501856945400,1.7309453125,0.9046066610008477,0.3995037604659796,-0.5517512544631957
1783245501866957600,1.74095751953125,1.087999819368124,0.20373335108458995,-0.7467202843338251
1783245501876968700,1.75096875,1.151627949669957,0.07145838553607463,-0.85545041590482
1783245501886980600,1.760980712890625,1.1319237167686222,0.020987842971086502,-0.8764357746578753
1783245501896992800,1.77099267578125,1.0353753136396406,-0.010275310298800468,-0.8582515909306705
1783245501907003600,1.781003662109375,0.8317816632866859,-0.03944645972549915,-0.7640773695871234
1783245501917015600,1.791015625,0.6080524028778076,-0.007240472647547722,-0.5548305157780647
1783245501927027500,1.80102734375,0.371499901252985,-0.02709609671831131,-0.2706923793748021
1783245501937038600,1.81103857421875,0.17281097407639026,-0.10687164422273636,-0.026894582796841857
1783245501947050500,1.821050537109375,-0.037864158970117565,-0.24099720607399938,0.12698168144598604
1783245501957062400,1.8310625,-0.20757541346549988,-0.42667876763939855,0.16724091885909437
1783245501967073800,1.84107373046875,-0.37039983105659485,-0.5594967540234327,0.19118512741774318
1783245501977085700,1.851085693359375,-0.5470101974159479,-0.6090688864439725,0.2490430037550628
1783245501987097600,1.86109765625,-0.752047032314539,-0.5110825594663619,0.3185974553659558
1783245501997108500,1.8711083984375,-0.8515724054276943,-0.3191974670857191,0.3701654377788305
1783245502007120600,1.88112060546875,-0.7337187639415264,-0.12129296828508376,0.4511328254163265
1783245502017131500,1.891131591796875,-0.3633803076833486,0.09384908104240894,0.47500703747868533
1783245502027143400,1.901143310546875,0.10915011054873466,0.17180150477290151,0.368135393255949
1783245502037155600,1.911155517578125,0.6885007350772618,0.07113631397485733,0.15506094398275017
1783245502047166500,1.92116650390625,1.2118424721360206,-0.07116904720067978,-0.03566840249150991
1783245502057178600,1.9311787109375,1.587356869727373,-0.11823182714879513,-0.14357172784954308
1783245502067190500,1.9411904296875,1.8628531422525643,-0.10559271032810211,-0.18368717287778855
1783245502077201700,1.95120166015625,1.985507462018728,-0.1511409940600395,-0.24264000484496354
1783245502087213600,1.961213623046875,2.0867244414806363,-0.28159809653162954,-0.29974311729222536
1783245502097225700,1.971225830078125,2.13136671628356,-0.38788463434278964,-0.34082521539554
1783245502107236600,1.981236572265625,2.1198598183631896,-0.49469782637655735,-0.3689505090311169
1783245502117248500,1.99124853515625,2.1194664351314305,-0.6621838060379028,-0.4010636301938444
1783245502127260700,2.0012607421875,2.0754934378921983,-0.9092255529731511,-0.44609490431435406
1783245502137271600,2.011271484375,1.888532942432165,-1.2317571329176424,-0.43462139720693227
1783245502147283500,2.021283447265625,1.4255015894293783,-1.5494839429289102,-0.35360637103542686
1783245502157295400,2.03129541015625,0.759816497272253,-1.6950690564274786,-0.22565233742594717
1783245502167306800,2.041306640625,-0.11877484798431395,-1.5787299111574888,0.0037767420597374438
1783245502177318700,2.051318603515625,-1.0949316644579172,-1.2607727995216846,0.23779015366099773
1783245502187330600,2.06133056640625,-1.8775018453299999,-0.9288900383859873,0.4018997156918049
1783245502197341700,2.071341796875,-2.3293840278089046,-0.6933762321591377,0.42669279616475103
1783245502207353600,2.081353515625,-2.3651778102457524,-0.6081856738686561,0.2717835356123745
1783245502217365500,2.091365478515625,-2.116716259640455,-0.7692056723862886,-0.02394048223160207
1783245502227376400,2.10137646484375,-1.7037480374455451,-0.9487965158611535,-0.29577779385782776
1783245502237388500,2.111388427734375,-1.3361527424156665,-0.85473233076334,-0.3610876667015254
1783245502247400400,2.121400390625,-1.0905267074972391,-0.7025935578376055,-0.26433606915064156
1783245502257411600,2.13141162109375,-0.9029775984942913,-0.5624538502633571,-0.12115589790195226
1783245502267423700,2.141423828125,-0.7447726573973894,-0.4306272130042314,0.2985450666140765
1783245502277435600,2.151435546875,-0.811574157038331,-0.13089081771373748,0.7971540020197629
1783245502287446500,2.161446533203125,-1.2342618092149495,0.2381342178583145,1.1649557794071734
1783245502297458700,2.171458740234375,-1.8767688548803327,0.5412164164453744,1.3032720709465444
1783245502307470600,2.181470703125,-2.5302099670141933,0.7442799054443836,1.2519950343042612
1783245502317481500,2.1914814453125,-3.1136399698108432,1.010133904877305,1.1105714243993163
1783245502327493600,2.20149365234375,-3.4552842465043065,1.3852303693175314,0.8227258117802441
1783245502337505500,2.211505615234375,-3.3005706546545026,1.7526216662079095,0.49982401028387247
1783245502347516400,2.221516357421875,-2.813950336271524,2.064839941930771,0.19948424227274952
1783245502357528600,2.231528564453125,-2.0965736353218554,2.1735165897488593,-0.09872355521097778
1783245502367540500,2.24154052734375,-1.232086218741536,2.124861572173238,-0.26678207406327126
1783245502377551600,2.251551513671875,-0.3416483683466911,1.9348516260147093,-0.2988789016783237
1783245502387563500,2.2615634765625,0.5638724848896265,1.5854238558381795,-0.2607064074113965
1783245502397575700,2.27157568359375,1.3205506841361523,1.1831582294434309,-0.13229023618288338
1783245502407586600,2.281586669921875,1.8942390451192854,0.7313701549887657,0.07383570912666619
1783245502417598500,2.291598388671875,2.287733920559287,0.29127427189350125,0.37510881246514616
1783245502427610600,2.301610595703125,2.5193594871759415,-0.009898293679952621,0.7311151573143899
1783245502437621500,2.31162158203125,2.5409657543063164,-0.13228197981119155,1.1230067622762172
1783245502447633400,2.32163330078125,2.3284271654754876,-0.19225275664925573,1.4348182838290928
1783245502457645600,2.3316455078125,1.8858219299077987,-0.17156418888568878,1.661352664786577
1783245502467656700,2.34165673828125,1.3357932614535093,0.023126608565449715,1.786384088947624
1783245502477668600,2.351668701171875,0.6846113264232874,0.3272130157589912,1.842705841758847
1783245502487680800,2.3616806640625,-0.05153203431665897,0.5280658429712057,1.7375059301406144
1783245502497691600,2.371691650390625,-0.6776619456768036,0.720774526694417,1.4534903972037136
1783245502507703600,2.38170361328125,-1.0174117869257926,0.82532094283998,1.2324857394531368
1783245502517715500,2.391715576171875,-1.2550251957803964,0.9275351166456938,0.9164585729666054
1783245502527726600,2.4017265625,-1.1652654298782348,0.9969996980160474,0.6596107406795024
1783245502537738500,2.411738525390625,-0.844396230188012,1.0373515821486712,0.4649195048369467
1783245502547750400,2.42175048828125,-0.5039829565942288,0.9339286170750856,0.21577413668595252
1783245502557761800,2.43176171875,-0.13634206885695457,0.6770820999622345,-0.060145037426427
1783245502567773700,2.441773681640625,0.18896774362921714,0.4353343677818775,-0.2478164576347917
1783245502577785600,2.45178564453125,0.4865677114129066,0.306468918415904,-0.2716638547554612
1783245502587796500,2.46179638671875,0.7479723302215338,0.32943010728657246,-0.10001695602238178
1783245502597808600,2.47180859375,1.0816033963292837,0.3168342450857162,0.10182086363919078
1783245502607820500,2.481820556640625,1.4491829092681408,0.14647300224900245,0.24202698751315474
1783245502617831400,2.49183154296875,1.7343816606402396,-0.07981120333969592,0.34481676924973725
1783245502627843600,2.501843505859375,1.9852134475082157,-0.22849720546305177,0.5270309469655156
1783245502637855500,2.51185546875,2.063862621331215,-0.32380408409833905,0.712998851191625
1783245502647866400,2.521866455078125,2.0366572190195322,-0.3308177622526884,0.8563840434931218
1783245502657878500,2.53187841796875,1.922194389015436,-0.3043412587374449,0.9316599414907395
1783245502667890400,2.541890380859375,1.7615712808609008,-0.26953940994739534,0.9872002616006881
1783245502677901600,2.551901611328125,1.5797148305416107,-0.27707506614923477,0.9891489845156669
1783245502687913700,2.561913818359375,1.4557704709649084,-0.2169248410910368,0.948016179138422
1783245502697925600,2.571925537109375,1.3802046501100063,-0.26023031433224675,0.9126245477616787
1783245502707936500,2.5819365234375,1.1874328380227088,-0.2653857973992824,0.8939040652006864
1783245502717948700,2.59194873046875,0.9747744222044944,-0.19000936163663862,0.8212198641967028
1783245502727960600,2.601960693359375,0.7969792299747467,-0.09670856212675571,0.7065362310487776
1783245502737971500,2.611971435546875,0.6713321581333875,-0.05543430245220661,0.5655372032314538
1783245502747983400,2.6219833984375,0.6477385165780782,-0.022226444855332372,0.34383177680037913
1783245502757995500,2.63199560546875,0.6581190408170223,-0.06973170787394047,-0.008125292658060789
1783245502768006400,2.64200634765625,0.7089315286874771,-0.22934710029065608,-0.35737741400673984
1783245502778018600,2.6520185546875,0.7234282560735941,-0.4097182804882526,-0.6935635714247822
1783245502788030500,2.662030517578125,0.6650280895531178,-0.503734534791112,-0.9556335222743451
1783245502798041300,2.672041259765625,0.5709598128020763,-0.460527845749259,-1.0818260991692543
1783245502808053500,2.682053466796875,0.5012105692714452,-0.3420972811579704,-1.0751963057659566
1783245502818065400,2.6920654296875,0.4375479521781206,-0.22107260842025278,-0.9709580787867307
1783245502828076300,2.702076171875,0.35885318564772606,-0.1150695637255907,-0.8578972245350479
1783245502838088400,2.71208837890625,0.4334644822567701,-0.08931845187544822,-0.760304134658724
1783245502848100400,2.722100341796875,0.4497136062681675,-0.06663491090238094,-0.5797013376623392
1783245502858111500,2.732111572265625,0.40389644246697426,0.09213701642751693,-0.36200390476360916
1783245502868123600,2.74212353515625,0.22928864810168742,0.3933323783546686,-0.13616298596300183
1783245502878135600,2.752135498046875,-0.1797895809173584,0.6272171220749616,-0.05707322876565158
1783245502888146400,2.762146484375,-0.4354226305872202,0.9122370097488164,-0.009214914525672793
1783245502898158600,2.77215869140625,-0.2866740846216678,1.3186737843483685,0.008435527651011944
1783245502908170500,2.78217041015625,0.281160874158144,1.9884224726825952,0.13312186470143497
1783245502918181400,2.792181396484375,1.1404133126944302,2.5474644686758516,0.44792993772178885
1783245502928193300,2.802193359375,2.219305111977458,2.758222603830695,0.661062035466358
1783245502938205400,2.812205322265625,3.302389686775207,2.4539368746727703,0.6639197629850357
1783245502948216300,2.82221630859375,4.057798304477334,1.7868962762534617,0.6086900431942195
1783245502958228200,2.832228271484375,4.124067304676771,1.4179671022713183,0.34403504428751763
1783245502968240400,2.842240478515625,3.5929724692732092,1.7212223193377256,0.2293565987713635
1783245502978251500,2.85225146484375,2.476302435737848,2.5706746638715265,0.39012247639745473
1783245502988263400,2.862263427734375,1.225355449181795,3.430053359135985,0.6083638069145381
1783245502998275600,2.872275634765625,0.5511778384894133,4.137501955789327,0.813638688352704
1783245503008286500,2.882286376953125,0.5632289262890815,4.535383668011427,1.2520932339817286
1783245503018298400,2.89229833984375,1.3960942931592464,4.597051311895251,1.7573815740860999
1783245503028309200,2.902309326171875,2.6849948705345392,4.233224429488182,2.068163387265056
1783245503038321400,2.9123212890625,3.6187370251268147,3.3517806174099443,1.6405416396871209
1783245503048333300,2.922333251953125,3.878322611814737,2.2817215284019707,0.8840558942727744
1783245503058345500,2.932345458984375,3.578401507607102,1.4861211855649947,0.06428363506849855
1783245503068356600,2.942356689453125,2.427000936952233,1.3278513625383377,-0.45602165690381075
1783245503078368500,2.952368408203125,0.7602408601641655,1.979284057459235,-0.5730274859216063
1783245503088380400,2.96238037109375,-0.663695964166522,3.064052055299282,-0.3514179576130584
1783245503098391600,2.9723916015625,-2.078963159829378,3.699557697769999,-0.025855608837655746
1783245503108403500,2.982403564453125,-2.1650988900154826,3.821274152164161,-0.10032005802164785
1783245503118415400,2.992415283203125,-1.9615356348007915,3.3480817628920074,-0.3503955192301422
1783245503128426500,3.002426513671875,-2.200195922359824,2.2904835115283726,-0.3319015389014035
1783245503138438400,3.0124384765625,-2.267347550612688,1.1133549176380038,-0.23310594136752186
1783245503148449500,3.022449462890625,-1.844423751592636,0.6404103656470775,-0.0017743161961436271
1783245503158461400,3.03246142578125,-1.804550006365776,0.48627282011955975,0.08558408765271305
1783245503168473600,3.0424736328125,-2.010541365510225,0.6164525669544935,-0.03986709629036486
1783245503178484500,3.052484375,-2.324442479753494,0.7998159147053957,-0.10420147516541182
1783245503188496400,3.062496337890625,-2.950025278624892,0.616819062179327,-0.2784790877282619
1783245503198508500,3.072508544921875,-3.5973622286647555,0.31026509582847356,-0.14488018009960651
1783245503208519400,3.08251953125,-4.113815959775447,-0.13347528124898672,0.287551305847615
1783245503218531300,3.09253125,-4.29316890284121,-0.5741092167437076,0.8470593119174241
1783245503228543500,3.10254345703125,-4.387957895082235,-0.9693947749927639,1.0012613009832798
1783245503238554400,3.112554443359375,-4.524562998789548,-1.1899737546771765,0.6464161819331348
1783245503248566300,3.122566162109375,-4.772994738778472,-1.3901967595532536,0.19404256267547607
1783245503258578400,3.132578369140625,-4.818752865868807,-1.288375968979299,-0.19337160461135208
1783245503268589600,3.142589599609375,-4.481446326118707,-0.7541605173371732,-0.20658969036377967
1783245503278601500,3.1526015625,-3.743129712992906,-0.16515549088716505,-0.26525135736465455
1783245503288613600,3.162613525390625,-2.636463771599531,0.29197891303151846,-0.26795769371390343
1783245503298624500,3.17262451171875,-1.3980653009712696,0.42471448182910676,-0.10794226912893354
1783245503308636400,3.182636474609375,-0.3597697159707546,0.1737780655428767,0.11227357633151114
1783245503318648300,3.1926484375,0.04597907636463642,-0.49150356037989257,0.06931647813655435
1783245503328659500,3.202659423828125,-0.03722761463224888,-1.3285416828900576,-0.08399382278658449
1783245503338671400,3.21267138671875,-0.17368366525769233,-1.929737205610424,-0.1867646075617522
1783245503348683300,3.222683349609375,-0.4030564845114946,-2.3001333834052082,-0.3113191349260509
1783245503358694700,3.232694580078125,-0.5836679032057523,-2.5341242178484795,-0.5746702846925705
1783245503368706600,3.24270654296875,-0.44821664570868014,-2.536848089854419,-0.8292026065789163
1783245503378718500,3.252718505859375,-0.0005091185659170151,-2.1974691277444363,-0.9097552759356796
1783245503388729300,3.262729248046875,0.2497667879849672,-1.7760031263172626,-0.975191186311841
1783245503398741500,3.272741455078125,0.5109282456874847,-1.4241609884753823,-1.0439428701724855
1783245503408753400,3.28275341796875,0.9230968419373035,-1.1303367398381232,-0.9934976081792265
1783245503418764300,3.292764404296875,1.2117758366405964,-0.9680541740387678,-0.9029689037311822
1783245503428776400,3.3027763671875,1.1083540406107901,-1.0840139646023512,-0.7629083258077501
1783245503438788400,3.312788330078125,0.7022323233097791,-1.5088672703802584,-0.6785565564289688
1783245503448799500,3.322799560546875,0.28384616771936416,-1.9921802177809178,-0.7547271382439881
1783245503458811600,3.332811767578125,0.10089724598824977,-2.289856611801684,-0.7813743952162563
1783245503468823600,3.342823486328125,-0.04261047671437263,-2.1912660353206097,-0.5452266750000417
1783245503478834400,3.35283447265625,-0.43432957465350625,-1.778169364440441,-0.14486016022488474
1783245503488846600,3.3628466796875,-0.8359165711343288,-1.4039030672140418,0.07282382867038249
1783245503498858500,3.3728583984375,-1.0103174447506666,-1.3065326801776884,0.10869973643273115
1783245503508869400,3.382869384765625,-1.0077245056480169,-1.393253370644897,0.1833959348462522
1783245503518881500,3.392881591796875,-0.8595277483463287,-1.478369548524916,0.23385376406013964
1783245503528893400,3.4028935546875,-0.7854881141453981,-1.6328988698489963,0.1257914487481117
1783245503538904300,3.412904296875,-0.8188374260395764,-1.8735745888836681,-0.0514795734770596
1783245503548916200,3.422916259765625,-1.0397966372132301,-2.1125831053584814,-0.29636691885739563
1783245503558928400,3.432928466796875,-1.4071511092245579,-2.1501446281202137,-0.3878368496783077
1783245503568939500,3.442939453125,-1.7496499569207429,-1.917989776932448,-0.2827591031350195
1783245503578951400,3.452951416015625,-2.0348715046465395,-1.5375423068530856,0.046697746028006075
1783245503588963600,3.462963623046875,-2.0935563333272933,-1.1739334511108697,0.5814572414189577
1783245503598974500,3.472974365234375,-1.7128554730087517,-0.7124616025097668,1.2655734778016805
1783245503608986400,3.482986328125,-1.3322685944586992,-0.2397584580592811,1.9040695342600344
1783245503618998500,3.49299853515625,-0.9561199906170368,0.18317936948612332,2.2803579849638043
1783245503629009400,3.503009521484375,-0.5511638099640608,0.6723502491347492,2.4979730002760885
1783245503639021300,3.513021240234375,-0.25813129622638226,0.9671993107751011,2.343544070586562
1783245503649033500,3.523033447265625,-0.04049275390803814,1.0331498926751315,1.814915333035588
1783245503659044600,3.533044677734375,-0.16953998958170413,0.8261965566307305,1.311440325963497
1783245503669056500,3.543056396484375,-0.3976414737254381,0.4931638948075473,1.0499322467803955
1783245503679068400,3.553068359375,-0.7024988652914762,0.09631240241602063,0.6619898909009992
1783245503689079600,3.56307958984375,-1.089737602946162,-0.4664462760128081,0.14660335063040256
1783245503699091500,3.573091552734375,-1.3765379442960024,-0.7825701808720826,-0.17541136583313344
1783245503709103400,3.583103271484375,-1.5935989789873362,-0.7511765330903232,-0.49547027205377814
1783245503719114500,3.593114501953125,-1.991779381895065,-0.7561290409311652,-1.0319988229438661
1783245503729126400,3.60312646484375,-2.3346061463713643,-0.7980623490363359,-1.6586346379995345
1783245503739138300,3.61313818359375,-2.3814994149714708,-0.5803117246456444,-2.0093257061101495
1783245503749149400,3.6231494140625,-2.3422043464154005,-0.20698102776892482,-2.1198108646549283
1783245503759161600,3.63316162109375,-2.1891595645606516,0.1849966480411589,-1.942369015907496
1783245503769174000,3.643174072265625,-2.020258457404375,0.5284678479008377,-1.5995096643358468
1783245503779185200,3.65318505859375,-1.9848451987177131,0.8343340511832386,-1.2187807469666003
1783245503789197000,3.663197021484375,-1.942396050044894,1.1198317855019122,-0.7122257479272782
1783245503799209000,3.673208984375,-1.8636907621204852,1.3307711955077945,-0.11060936944633722
1783245503809220000,3.68322021484375,-1.5369938791900872,1.501232537718117,0.5501517103120684
1783245503819232000,3.69323193359375,-1.1043956583738326,1.7068372356325388,1.248469344396144
1783245503829244000,3.703243896484375,-0.7223515667527913,1.864017802117765,1.8421433855704963
1783245503839255000,3.713255126953125,-0.43548049825429913,1.8203074013374745,2.23102696782276
1783245503849267000,3.723266845703125,-0.19449732070565223,1.5812833950325846,2.2316657041177153
1783245503859278800,3.73327880859375,0.09802198281288146,1.2478744472429155,1.9673247395962477
1783245503869290000,3.7432900390625,0.2737263402432203,0.9558885199487209,1.4627065538384019
1783245503879302100,3.75330224609375,0.4150923747420311,0.8450210840880871,0.9769380299791693
1783245503889314000,3.76331396484375,0.5535825615435839,0.9385933940157294,0.5943437571294605
1783245503899325000,3.773324951171875,0.617054039978981,1.0408132669098675,0.2607137139350176
1783245503909337000,3.783337158203125,0.6214221720606088,1.065865728971362,0.01621975178644061
1783245503919349000,3.793348876953125,0.6990647991895675,1.0581148225836454,-0.08426292205154895
1783245503929360000,3.80335986328125,0.8369207797408104,0.9686698217190801,-0.08684314780309796
1783245503939372000,3.8133720703125,0.9709779525309801,0.8546905374482273,-0.023092998556792733
1783245503949384000,3.823384033203125,1.2172779411882162,0.8138117068320512,-0.004237345308810472
1783245503959394800,3.833394775390625,1.463315479516983,0.7885894411616027,-0.011680062530189751
1783245503969407000,3.843406982421875,1.4835662403851746,0.6986494963869452,0.15802651579007507
1783245503979419000,3.8534189453125,1.5759399881780147,0.6988160851255059,0.37552535737678405
1783245503989430000,3.863429931640625,1.812858400505781,0.7443371885895729,0.5225707526862621
1783245503999442200,3.873442138671875,1.9345172794938086,0.7249914137370884,0.5942173542708158
1783245504009454000,3.8834541015625,2.0295155305713415,0.7046195107072591,0.6398736284218728
1783245504019465000,3.89346484375,2.2118659018874167,0.7462013750262558,0.6874486687410623
1783245504029476900,3.903476806640625,2.3519506644040344,0.7802322394438087,0.7905964701350778
1783245504039489000,3.913489013671875,2.4777339298456904,0.6669806849256158,0.8526889883674681
1783245504049500000,3.9235,2.5798405516237017,0.46990533042550087,0.8817244556505233
1783245504059511800,3.93351171875,2.574359489864111,0.33636823598667975,0.9045774349063634
1783245504069524000,3.94352392578125,2.502379710802436,0.306704919128865,0.9597891806490719
1783245504079535000,3.95353515625,2.3725772728472947,0.25941665986180307,1.0667505489818752
1783245504089547000,3.963547119140625,2.2137784575104713,0.17219065022096036,1.1680718656010924
1783245504099559200,3.97355908203125,1.9873498750150203,-0.004778320317715406,1.2426155038014053
1783245504109570000,3.983570068359375,1.8216209681540727,-0.20739771881103514,1.2893510976217686
1783245504119582000,3.99358203125,1.6984709738254546,-0.47289603667408225,1.256820262503624
1783245504129594000,4.003593994140625,1.4995815556406973,-0.8159174469396472,1.0930533764306456
1783245504139605000,4.01360498046875,1.14878775780797,-1.2044136373095213,0.7761158171009271
1783245504149617000,4.023616943359375,0.5774456676900387,-1.5144113143734632,0.44526239901296794
1783245504159628800,4.03362890625,-0.09266367065012454,-1.5742111185587941,0.2962096824690699
1783245504169640200,4.04364013671875,-0.5930541557103395,-1.5202880974523723,0.19645181577429174
1783245504179652000,4.053652099609375,-0.9049684800505637,-1.4040291778117417,0.09749613230787217
1783245504189664000,4.0636640625,-1.1122849503189325,-1.3287240537196396,0.00611468348801136
1783245504199675100,4.073675048828125,-1.2947574867099523,-1.3498108270205555,-0.08387202303782106
1783245504209687000,4.08368701171875,-1.5036287852048873,-1.3640703846499322,-0.21394407171458005
1783245504219699000,4.093698974609375,-1.6855372579723595,-1.3346329855024814,-0.29096023750826716
1783245504229710000,4.1037099609375,-1.8915894073933361,-1.294892219005525,-0.26338337153568864
1783245504239722000,4.113721923828125,-1.9494968219608066,-1.2186200765121729,-0.2380828529972583
1783245504249734000,4.12373388671875,-1.9317273565143345,-1.1427142100479453,-0.1776820872440934
1783245504259744800,4.133744873046875,-1.9680618216991423,-1.1142648720897734,-0.14416611354611814
1783245504269757000,4.1437568359375,-2.0204162783145905,-1.1789691071905195,-0.17468538964614272
1783245504279768800,4.153768798828125,-2.098645765420794,-1.2218386732324957,-0.13781784049794077
1783245504289780000,4.163780029296875,-2.1448639112383128,-1.1730139981783925,-0.0691048081472516
1783245504299792100,4.173792236328125,-2.155732511255145,-1.0506728360146282,0.007379808053001761
1783245504309804000,4.183803955078125,-2.0744056426554915,-0.8601683843374252,0.15856931742988525
1783245504319815000,4.19381494140625,-1.8786065917015076,-0.6411128148280084,0.43698659196831285
1783245504329827000,4.2038271484375,-1.6118465833395719,-0.43417613765746355,0.6531818766757845
1783245504339839000,4.2138388671875,-1.2270447174429893,-0.18283800870254635,0.7621485204163938
1783245504349849900,4.223849853515625,-0.8887158489078283,0.0627035628028214,0.7761991845354438
1783245504359862000,4.233862060546875,-0.6739338650643825,0.1735984711922705,0.6161676855985075
1783245504369874000,4.2438740234375,-0.4681114327460527,0.2791184085451066,0.39057043936066327
1783245504379885000,4.253885009765625,-0.31934301303625107,0.37883784292563794,0.22050730268768964
1783245504389897000,4.26389697265625,-0.23498890556991098,0.5869719131872058,0.20115940894335507
1783245504399909000,4.2739091796875,-0.18739070357084273,0.7074646710053086,0.18978826623186468
1783245504409920000,4.283919921875,-0.2768558704406023,0.5967822363227605,0.09620375440977513
1783245504419932000,4.293931884765625,-0.39592239484786984,0.4057499613791704,-0.011766790965571998
1783245504429944000,4.303944091796875,-0.5234060344666243,0.2820342959918082,-0.055225262811407445
1783245504439955000,4.313954833984375,-0.6524474249213934,0.2520131056070328,0.04955620419904589
1783245504449966800,4.323966796875,-0.6040075114011764,0.36175153743773697,0.15536387245208025
1783245504459979000,4.33397900390625,-0.46737727325260636,0.5100364114142955,0.3176446846857667
1783245504469990000,4.343989990234375,-0.2956032410085201,0.6105341366909444,0.4408632872711867
1783245504480002000,4.354001953125,0.06416530591845512,0.7133418924756347,0.5574024851579219
1783245504490014000,4.364013916015625,0.5231424150943755,0.9030622080378233,0.6327207609925418
1783245504500025000,4.374025146484375,0.9497592234134673,1.1434054802477358,0.6028520577557385
1783245504510037000,4.384037109375,1.1733861924916504,1.3431836639657615,0.5334329960275441
1783245504520049200,4.394049072265625,1.3529273516058922,1.5801706114850937,0.5334240455361083
1783245504530060000,4.40406005859375,1.5476052895754575,1.7559129628382621,0.48172209801264104
1783245504540072000,4.414072021484375,1.6522428911358118,1.9081214399993418,0.3413262967854738
1783245504550083800,4.424083740234375,1.685993185046315,2.073908068396896,0.1788708586372435
1783245504560095000,4.434094970703125,1.6135224075973034,2.3084008610129354,0.08690233064442872
1783245504570107000,4.44410693359375,1.350297587624192,2.5596988040879367,0.07556563819181174
1783245504580118800,4.454118896484375,0.9927934784978627,2.7692510705843567,0.16304288264736533
1783245504590130200,4.464130126953125,0.6006938568085431,2.8178856298938393,0.27902477544490245
1783245504600142000,4.47414208984375,0.16061609389185905,2.660339737227559,0.41238245819620784
1783245504610154000,4.484154052734375,-0.3710737847954035,2.3884071485333145,0.5367188127651811
1783245504620164900,4.494164794921875,-0.8649421746104955,2.1306537457086145,0.6954591759130359
1783245504630177000,4.504177001953125,-1.2907546808093786,1.9201719432771205,0.8443630585707723
1783245504640189000,4.51418896484375,-1.6413158389300107,1.7799862046040593,0.945463352850452
1783245504650199800,4.52419970703125,-1.8166139536470174,1.651685403383523,0.9557647474385798
1783245504660212000,4.5342119140625,-1.692513526725769,1.5419213987201452,0.9071684743128716
1783245504670224000,4.544223876953125,-1.238369244533777,1.523457082877308,0.8509368109378963
1783245504680235000,4.554235107421875,-0.5200859501332045,1.5555791910640895,0.7795303017195314
1783245504690247200,4.5642470703125,0.21091069536805152,1.5310637584887443,0.6644272010505199
1783245504700259000,4.574259033203125,0.8047849352896213,1.4116874374799429,0.5884617133535445
1783245504710270000,4.58427001953125,1.262131812915206,1.30672586466223,0.6255749808911234
1783245504720282000,4.5942822265625,1.6422762083947657,1.1871562130384146,0.7283502226456999
1783245504730294000,4.6042939453125,1.946441526043415,1.0663365613535045,0.8345640605468303
1783245504740305000,4.614304931640625,2.034260679271817,0.9073601974926888,0.9568974777955561
1783245504750317000,4.624317138671875,2.034427268010378,0.7485026377059519,1.0093457501742988
1783245504760329000,4.634328857421875,1.9446867913305759,0.5614831055350601,0.9486885985072702
1783245504770339800,4.64433984375,1.808497867208719,0.42465968290194867,0.8136649918377399
1783245504780352000,4.65435205078125,1.8252596169173716,0.4017474477395415,0.6407944695938378
1783245504790364000,4.664364013671875,1.7857453526526688,0.42159532689526674,0.612205503969267
1783245504800374800,4.674374755859375,1.5985492948710918,0.3832917535945773,0.6238993027638644
1783245504810387000,4.684386962890625,1.3618296199858189,0.23080796662345526,0.5077931625321507
1783245504820398800,4.69439892578125,1.0537608651578425,-0.0760305157572031,0.4404794755853712
1783245504830409700,4.70440966796875,0.5903390515327454,-0.34099253478646274,0.41724969890639185
1783245504840422000,4.714421875,0.05726502501070499,-0.5302919945880771,0.4334803374130279
1783245504850433800,4.724433837890625,-0.4366682467341423,-0.7253713529653847,0.39150669729746873
1783245504860444700,4.734444580078125,-0.881705677884817,-0.9343480115309357,0.29338651480711997
1783245504870456800,4.744456787109375,-1.3050614385813475,-1.2038262658756225,0.22993476398549972
1783245504880468700,4.75446875,-1.5512866084367036,-1.5200938900545238,0.21335589656308293
1783245504890479900,4.76447998046875,-1.6945558462083339,-1.8788003607079387,0.2774338895242661
1783245504900491800,4.77449169921875,-1.8356997623890636,-2.1306208663523196,0.38750885983295735
1783245504910504000,4.78450390625,-1.9778151539504527,-2.295804122029245,0.45717115573249756
1783245504920514800,4.794514892578125,-1.9261194535046815,-2.0746707233324644,0.7052874000314623
1783245504930526700,4.804526611328125,-2.064818899142742,-2.163623264504969,0.8187762704368681
1783245504940539000,4.814538818359375,-1.9721768558025359,-2.344868304927647,0.634796398222819
1783245504950549800,4.8245498046875,-1.699704899534583,-2.2971920692563055,0.6637697600550949
1783245504960561700,4.834561767578125,-1.495628434100747,-2.2696721941679714,0.6231165548883378
1783245504970573800,4.84457373046875,-1.1858189730852842,-2.148344300699979,0.5843020363908261
1783245504980585000,4.8545849609375,-0.8415788346797227,-1.9185288522452115,0.5357425881441682
1783245504990596900,4.864596923828125,-0.4581131858229637,-1.5815439456649123,0.4442692232571542
1783245505000609000,4.874609130859375,-0.1557470265507698,-1.2188223941512406,0.3616899434436112
1783245505010620000,4.884619873046875,0.030052023914456365,-0.8494979372411966,0.326564854048565
1783245505020631800,4.8946318359375,0.21021336075365543,-0.5554753895528615,0.28410328428559006
1783245505030643700,4.904643798828125,0.2369049683243036,-0.4091970330931246,0.19787278848811982
1783245505040654800,4.91465478515625,0.07946633542478083,-0.44107422660812734,0.10122041352801024
1783245505050666800,4.924666748046875,-0.1189998889118433,-0.5537349756263196,0.011886398757249117
1783245505060678700,4.9346787109375,-0.2279606143683195,-0.6069358199380338,0.02154964157231152
1783245505070689800,4.944689697265625,-0.31285482006072995,-0.5931979480952024,0.13305376790128648
1783245505080702000,4.954701904296875,-0.7248983286261558,-0.6579317015513777,0.24592509093023834
1783245505090713900,4.9647138671875,-1.0873784725993871,-0.6226967220410704,0.32408600631225853
1783245505100725000,4.97472509765625,-1.3499392757058142,-0.6285434022426605,0.39225689461026336
1783245505110737000,4.98473681640625,-1.704011072295904,-0.6150479608535766,0.4553664443980902
1783245505120748800,4.994748779296875,-1.922745008635521,-0.5003691500112414,0.6310945480301976
1783245505130759700,5.004759765625,-2.063832226192951,-0.388078841740638,0.7982625477835535
1783245505140771800,5.014771728515625,-2.1580343584567308,-0.35793329432383175,0.8810723484173416
1783245505150783700,5.02478369140625,-2.173926924115419,-0.29288112256824966,0.9274060834385454
1783245505160794600,5.034794677734375,-2.0415449910610914,-0.3578935468353331,0.7959558782763778
1783245505170806800,5.044806884765625,-1.830494010439515,-0.5482777331337333,0.55574247952383
1783245505180818700,5.054818603515625,-1.5215759453058242,-0.6706137807309627,0.257790191171132
1783245505190829800,5.064829833984375,-1.137386658349633,-0.575201395894587,0.037257863640040155
1783245505200842000,5.074842041015625,-0.7277128015249967,-0.28507147173061964,-0.09246975551322102
1783245505210854000,5.08485400390625,-0.24734452927410602,0.016344401079416274,-0.14070841084029526
1783245505220864800,5.09486474609375,0.17497195150256156,0.2699821852788329,-0.24437176054101437
1783245505230877000,5.104876953125,0.574647561404109,0.4207411942839622,-0.32564174785427746
1783245505240888800,5.114888916015625,0.8743453782498836,0.44489422328770156,-0.29345746115148064
1783245505250899700,5.124899658203125,0.906021788495779,0.5469599285334348,-0.15385650009643287
1783245505260911600,5.13491162109375,0.9068915570676326,0.8462424425765871,0.13159728548265992
1783245505270923800,5.144923828125,0.9172931240946054,1.1896030216686426,0.45999454259015615
1783245505280935000,5.154934814453125,0.8316407935112714,1.4362040390990674,0.7506196298599243
1783245505290946800,5.16494677734375,0.7404740834206343,1.6173836130701005,0.9376752562575041
1783245505300959000,5.174958984375,0.6266729321956634,1.7062060981221496,1.0624667341828347
1783245505310969900,5.184969970703125,0.44787528492510315,1.7838272440716623,1.2288573198229074
1783245505320981800,5.194981689453125,0.43464463195204733,1.978595052281767,1.3865328302182256
1783245505330994000,5.204993896484375,0.4987357035905122,2.0379342532180247,1.546263957969099
1783245505341004800,5.2150048828125,0.4247019146084785,1.8331719974771141,1.6991627554818987
1783245505351016700,5.2250166015625,0.16974398772120475,1.5579259003207087,1.7360487170696257
1783245505361028900,5.23502880859375,0.006386486166715622,1.30619906430915,1.698227812719345
1783245505371039700,5.245039794921875,-0.0861649562805891,1.1215648198395967,1.6520947148367762
1783245505381052000,5.255052001953125,-0.09038578884601592,0.9695536188162863,1.4928338349461554
1783245505391063800,5.265063720703125,0.01601297716796398,0.8766673914566635,1.2558806435659526
1783245505401075000,5.275074951171875,0.14555413383841515,0.8245351992897689,1.0375371678486465
1783245505411086800,5.2850869140625,0.37889644124507904,0.8028961989335716,0.9308153804253786
1783245505421098800,5.2950986328125,0.7205980010837316,0.7586063908301294,0.9260936856657266
1783245505431110000,5.30510986328125,1.1074147139340638,0.7536109206303954,0.8603081581342965
1783245505441121800,5.315121826171875,1.4216262093007563,0.7761215892545879,0.7590308998525143
1783245505451133700,5.3251337890625,1.5085679951727389,0.7474946297071874,0.6058348729588091
1783245505461144800,5.335144775390625,1.4429898998469113,0.6688504243202507,0.5166636110017075
1783245505471156700,5.34515673828125,1.2665893768459557,0.6210559690967202,0.49426188264470544
1783245505481168600,5.355168701171875,1.0592208841294048,0.8134991337515414,0.7162763384923339
1783245505491179800,5.3651796875,1.0521838250994682,0.8959408317252993,0.8552550394631921
1783245505501192000,5.37519189453125,1.1076397548615933,0.8100979470059275,0.9702616209551691
1783245505511203800,5.385203857421875,1.1414438247859477,0.6730781250178813,1.1376187135398388
1783245505521214700,5.395214599609375,1.1704670901745557,0.5201898488990963,1.2895932358145714
1783245505531227000,5.405226806640625,1.3125199378937482,0.33783860080018635,1.3999894009016454
1783245505541238800,5.41523876953125,1.5486264493167399,0.13431947698816657,1.4472383510716258
1783245505551249700,5.425249755859375,1.8136767311513422,-0.040869770526885986,1.4799642703704534
1783245505561261800,5.43526171875,2.1051859808444977,-0.11889175236225127,1.5085234253786504
1783245505571273700,5.445273681640625,2.3236960453003643,-0.15377879521772264,1.6086857812210917
1783245505581284900,5.455284912109375,2.1864012057632207,-0.14430647186487913,1.7926682837836443
1783245505591297000,5.465297119140625,1.8593243836045263,-0.06643325085043907,1.8420079226225614
1783245505601309000,5.475308837890625,1.5794576409101486,-0.041351708824932575,1.7410713675372302
1783245505611319800,5.48531982421875,1.2540712560564278,-0.22787162091061472,1.4676190219298004
1783245505621332000,5.49533203125,0.8970891249775886,-0.5301119618460536,1.026842828420177
1783245505631343900,5.50534375,0.5772568671196698,-0.8239673362739384,0.6075949414338916
1783245505641354800,5.515354736328125,0.3019038024574518,-1.0449180718801916,0.33534517654925583
1783245505651366700,5.52536669921875,0.12043605919480323,-1.140390662471205,0.1500446501906961
1783245505661378800,5.53537890625,0.016125789892673492,-1.156660098618269,0.04104443297404796
1783245505671389700,5.5453896484375,-0.12534078237116336,-1.1184535559512674,0.0008809110203757881
1783245505681401900,5.55540185546875,-0.37191491179466246,-1.0264802056528628,-0.00419189873188734
1783245505691413800,5.565413818359375,-0.6371598394185304,-1.038631100565195,-0.003581109889782965
1783245505701425000,5.5754248046875,-0.9289549203157424,-1.0643202530950306,-0.003929521468654274
1783245505711436800,5.585436767578125,-1.1000497381240129,-1.0251828593187033,0.017675540085323155
1783245505721449000,5.595448974609375,-1.2307213601291178,-0.8977791530683636,0.07285663496144115
1783245505731459800,5.6054599609375,-1.3064356495440006,-0.7989527220048009,0.16027316220570353
1783245505741471700,5.6154716796875,-1.3195096506506203,-0.7197250176414847,0.21621198011394588
1783245505751484000,5.62548388671875,-1.2394459338545798,-0.6544502891764045,0.22755988808032124
1783245505761494800,5.635494873046875,-1.1086609146028756,-0.6387722430512308,0.17997513008471577
1783245505771506700,5.645506591796875,-1.0338421127229929,-0.6752177673950791,0.1450981702318415
1783245505781518800,5.655518798828125,-0.9580132570177317,-0.6807005827203393,0.18927775942645966
1783245505791530000,5.665530029296875,-0.8622843535780906,-0.5607739343523979,0.32754067681077864
1783245505801542000,5.6755419921875,-0.8030383838832378,-0.23560484551116823,0.6355323112819343
1783245505811553800,5.6855537109375,-0.696603962033987,0.211521520742774,0.9404526850815862
1783245505821565000,5.69556494140625,-0.5634159732937812,0.5866928039848804,1.0591098249703645
1783245505831576800,5.705576904296875,-0.44774493654370306,0.7855882135190069,0.9031526628002524
1783245505841588700,5.715588623046875,-0.4296878863275051,0.7893056266069411,0.5745798299301416
1783245505851600000,5.725599853515625,-0.45632747144997116,0.7246113283783197,0.22738902502544223
1783245505861611800,5.73561181640625,-0.5067115047752857,0.7033763787783682,-0.060542256583087144
1783245505871623700,5.745623779296875,-0.5960638589203358,0.6078178634695708,-0.2497207568861544
1783245505881634800,5.755634765625,-0.7617565254241228,0.4703580426290631,-0.25919388395659626
1783245505891647000,5.76564697265625,-0.886741333964467,0.3406133262105286,-0.09623466100469232
1783245505901659000,5.775658935546875,-1.00025899207294,0.15835662452727556,0.19395053701046852
1783245505911669800,5.785669677734375,-1.119014550834894,-0.16331965376213192,0.4168438215192407
1783245505921682000,5.795681884765625,-1.1497475427508355,-0.40552462819069623,0.7249141107171774
1783245505931693800,5.80569384765625,-1.0623732106804846,-0.5079414849616587,1.1072856807269156
1783245505941704700,5.81570458984375,-0.9234498931586742,-0.42592268857508897,1.4047121916398406
1783245505951716900,5.825716796875,-0.7442781518787145,-0.2512849374629557,1.5854080737471579
1783245505961728800,5.835728759765625,-0.41460429896414275,0.031183658292889594,1.570014105260372
1783245505971739600,5.84573974609375,0.08283025889992714,0.336706235769391,1.3746534457236528
1783245505981751800,5.855751708984375,0.4290869978249073,0.6080192312605679,1.1543908385120332
1783245505991763700,5.865763671875,0.5876736317157745,0.8133595791503787,0.9927318114385009
1783245506001774800,5.87577490234375,0.7560171049892902,0.9293253610633313,0.7968744544260203
1783245506011786800,5.885786865234375,0.9353028280377388,0.9863920870229601,0.642456338391453
1783245506021799000,5.895798828125,1.0513175636589527,1.0740938974820078,0.5562778650421649
1783245506031809800,5.905809814453125,1.1128811626464128,1.3050646534517407,0.6306117329493165
1783245506041821700,5.91582177734375,1.004070659315586,1.4964971797592936,0.7605018491879105
1783245506051833900,5.925833740234375,0.601363718894124,1.5041498864695428,0.8263646797392517
1783245506061844700,5.9358447265625,0.13864450058043,1.476597132024914,0.8624732272136956
1783245506071856600,5.945856689453125,-0.28771862523853775,1.384900552841276,0.8730618412453681
1783245506081868800,5.955868896484375,-0.7105828030258416,1.310317459413409,0.8726687502745538
1783245506091880000,5.9658798828125,-1.039686747097969,1.157266247817874,0.794015119472146
1783245506101891800,5.975891845703125,-1.2625497460663317,0.9759664084680378,0.7235079702463001
1783245506111904000,5.985904052734375,-1.387131819024682,0.8785250020220875,0.6337634749785065
1783245506121915000,5.995914794921875,-1.6527525942236183,0.704805242537707,0.5865444450227544
1783245506131926800,6.0059267578125,-1.933307903704047,0.5012698982432484,0.610050883218646
1783245506141939000,6.01593896484375,-1.895194738408923,0.37763226652815934,0.6330046194352209
1783245506151949800,6.02594970703125,-1.5382377417713402,0.4113111026376486,0.6507499733537435
1783245506161961700,6.035961669921875,-1.1930179446786642,0.38457770175188777,0.5739642918476835
1783245506171973600,6.0459736328125,-0.836126999014616,0.37262861302196976,0.40937257232312113
1783245506181985000,6.055985107421875,-0.42901919328570365,0.5060363819926977,0.23314093961566684
1783245506191997000,6.065996826171875,0.05192074137330055,0.7132564061492681,0.05562814452387392
1783245506202008800,6.0760087890625,0.4647323117017746,0.8809152581594883,0.027156558201275764
1783245506212020000,6.08602001953125,0.6703764648437499,0.9234916864737868,0.02283222872875631
1783245506222032000,6.096031982421875,0.7959773594558238,0.8546019823819399,0.025195925652794538
1783245506232043800,6.106043701171875,0.8768371950656175,0.726319009079039,0.1564646367682144
1783245506242054700,6.1160546875,1.010807274094224,0.6852179140143096,0.3307916048981249
1783245506252066800,6.12606689453125,1.0025795439749956,0.6782792007923126,0.35011038214582946
1783245506262078700,6.13607861328125,0.695057901635766,0.5985309796862304,0.3167362280713394
1783245506272089600,6.146089599609375,0.45931730091571804,0.5242404394641518,0.29147304586861283
1783245506282101800,6.156101806640625,0.3775345052421093,0.5793656759671867,0.19898162651285528
1783245506292113700,6.16611376953125,0.2517418874502182,0.6631707712486385,0.14916132801752538
1783245506302124800,6.176124755859375,0.24667174457907676,0.7234007835447788,0.14719247562997043
1783245506312137000,6.186136962890625,0.26127660851478574,0.8234362981371581,0.1398420763345435
1783245506322148900,6.19614892578125,0.26565117033720015,0.8172321828000247,0.13784958734307437
1783245506332159700,6.20615966796875,0.34054888267219063,0.762776223860681,0.1407329972922802
1783245506342172000,6.216171875,0.4892091658324003,0.6344087871447205,0.09519432163890451
1783245506352183800,6.226183837890625,0.5925140574842691,0.47729310258924956,0.034900121532753105
1783245506362194700,6.236194580078125,0.508577883169055,0.3256917975410819,-0.040526144720986486
1783245506372206800,6.246206787109375,0.389217344251275,0.22618206038847563,-0.005256824549660086
1783245506382218800,6.25621875,0.27749358382225037,0.21884835649952292,0.1067794358946383
1783245506392230000,6.26622998046875,0.1304027419358492,0.19440920403078196,0.09477105472553521
1783245506402241800,6.27624169921875,0.06525485472083091,0.19628961094990371,0.017704875777661798
1783245506412254000,6.28625390625,0.15708265906870364,0.2369878243021667,0.0161164010098204
1783245506422264800,6.296264892578125,0.30004560737013813,0.24483634584546088,0.1266534358723089
1783245506432276700,6.30627685546875,0.4101537492960691,0.17867197506427765,0.20596571324653923
1783245506442289000,6.316288818359375,0.45038054574429986,0.08923924915939568,0.2677711216332391
1783245506452299800,6.3262998046875,0.4658931721746921,0.07967018743380903,0.34559308738447725
1783245506462311700,6.336311767578125,0.306761763882637,-0.004579144483804702,0.3548697420347482
1783245506472323800,6.34632373046875,0.17562252436578274,-0.15521350419595836,0.3679426471628248
1783245506482335000,6.3563349609375,0.09156652306318283,-0.23160642352476715,0.39602300567813215
1783245506492347000,6.366346923828125,-0.04377016814351081,-0.268581378570199,0.4407742207482457
1783245506502359000,6.376359130859375,-0.09422785122692584,-0.28369448428899047,0.45170119988881047
1783245506512370000,6.386369873046875,-0.13012626308202743,-0.24090441322401165,0.45002764065340156
1783245506522381800,6.3963818359375,-0.23307459638118744,-0.23755714862272143,0.3904492241337895
1783245506532394000,6.40639404296875,-0.3767243579030037,-0.14148074691966175,0.3183642311319709
1783245506542404900,6.41640478515625,-0.5816963108718395,-0.013446926072239875,0.29376400635000316
1783245506552416800,6.426416748046875,-0.6823316910535097,0.10788535130992531,0.30940847899913787
1783245506562428700,6.4364287109375,-0.7447188813835383,0.06691562753990292,0.2417520430292934
1783245506572439800,6.446439697265625,-0.7664572504609822,0.06715374714471399,0.26325532470922913
1783245506582451700,6.45645166015625,-0.6728086604267358,0.1689599246714264,0.4406618829475715
1783245506592463600,6.466463623046875,-0.5410924978047609,0.3274550078213215,0.7259759677950293
1783245506602475000,6.47647509765625,-0.675570526355505,0.5115300840381533,1.1795116896346212
1783245506612487000,6.48648681640625,-1.2150041510373353,0.548191370024532,1.278883041229844
1783245506622498800,6.496498779296875,-1.1945575753360986,0.2255572064884007,0.7991521170344204
1783245506632509700,6.506509765625,-0.39155192467868327,-0.04851400166973471,0.45006315035820005
1783245506642521900,6.51652197265625,0.10981471193730831,0.06992460009753704,0.43315263982862234
1783245506652533800,6.52653369140625,-0.14767477925419806,0.3232135708592832,0.6884000511817634
1783245506662544600,6.536544677734375,-0.5825666639655828,0.34200120037235315,0.7356533122006803
1783245506672556800,6.546556884765625,-0.6502215655654668,0.28393041193671525,0.5118101430885493
1783245506682568700,6.556568603515625,-0.3855845407068729,0.32568770588785406,0.388755352762714
1783245506692579800,6.566579833984375,0.1295879184216261,0.39903986928127705,0.6134129069976508
