time,seconds_elapsed,z,y,x
1783245548319562500,0.0685625,0.30829834938049316,0.1195860505104065,-0.16781966388225555
1783245548329574700,0.07857470703125,0.32702797651290894,0.11286548525094986,-0.15261481702327728
1783245548339586600,0.088586669921875,0.33874693512916565,0.12043924629688263,-0.11220426857471466
1783245548349597400,0.098597412109375,0.3419065475463867,0.11395460367202759,-0.06224743649363518
1783245548359609600,0.108609619140625,0.32353711128234863,0.12296833842992783,-0.010141359642148018
1783245548369621500,0.11862158203125,0.2857585549354553,0.15646257996559143,0.035320885479450226
1783245548379633400,0.12863330078125,0.24282947182655334,0.1796046495437622,0.07161364704370499
1783245548389644500,0.13864453125,0.21225431561470032,0.17861929535865784,0.09971478581428528
1783245548399656400,0.148656494140625,0.1924009770154953,0.14794766902923584,0.1180754154920578
1783245548409668400,0.15866845703125,0.18004487454891205,0.08998993784189224,0.12201868742704391
1783245548419679700,0.1686796875,0.1792919933795929,0.03805243596434593,0.10031472146511078
1783245548429691600,0.178691650390625,0.18886978924274445,0.002631901763379574,0.053453944623470306
1783245548439703600,0.18870361328125,0.19691626727581024,-0.03269093483686447,-0.00466981390491128
1783245548449715700,0.1987158203125,0.18683956563472748,-0.06982431560754776,-0.0415925458073616
1783245548459726600,0.2087265625,0.17062677443027496,-0.09870389848947525,-0.05224545672535896
1783245548469738500,0.218738525390625,0.14476612210273743,-0.11196772754192352,-0.03409740701317787
1783245548479750700,0.228750732421875,0.11110590398311615,-0.11298159509897232,0.011869017966091633
1783245548489762600,0.238762451171875,0.06765089929103851,-0.07828382402658463,0.07118432968854904
1783245548499773400,0.2487734375,0.02468026615679264,-0.022445324808359146,0.14148806035518646
1783245548509785300,0.258785400390625,-0.025792166590690613,0.019680805504322052,0.21417909860610962
1783245548519797500,0.268797607421875,-0.06675317883491516,0.047198452055454254,0.2817078232765198
1783245548529808600,0.27880859375,-0.09355875849723816,0.04358615726232529,0.3267205059528351
1783245548539820500,0.288820556640625,-0.1043245866894722,0.008623645640909672,0.3380884528160095
1783245548549832700,0.298832763671875,-0.10505881905555725,-0.060683831572532654,0.32857465744018555
1783245548559844600,0.3088447265625,-0.08952726423740387,-0.18231092393398285,0.3061169981956482
1783245548569855500,0.31885546875,-0.05589645355939865,-0.3443900942802429,0.27480509877204895
1783245548579867600,0.32886767578125,-0.004214348737150431,-0.4674116373062134,0.22875532507896423
1783245548589879600,0.338879638671875,0.04135218635201454,-0.4830573797225952,0.1693660169839859
1783245548599890400,0.348890380859375,0.05239871144294739,-0.4060821831226349,0.10107831656932831
1783245548609902600,0.358902587890625,0.013563751243054867,-0.2779494524002075,0.05181216821074486
1783245548619914500,0.36891455078125,-0.0666341483592987,-0.09373702108860016,0.017134079709649086
1783245548629926400,0.378926513671875,-0.14669476449489594,0.1270991861820221,-0.004899993538856506
1783245548639937500,0.3889375,-0.22875767946243286,0.36809423565864563,-0.01310279592871666
1783245548649949400,0.398949462890625,-0.3175666034221649,0.5861804485321045,0.0053631821647286415
1783245548659961300,0.40896142578125,-0.3973293602466583,0.7373787760734558,0.06323074549436569
1783245548669973500,0.418973388671875,-0.4291307330131531,0.7372912168502808,0.16904637217521667
1783245548679984600,0.428984619140625,-0.41602396965026855,0.5919875502586365,0.3046204447746277
1783245548689996500,0.43899658203125,-0.35278719663619995,0.3497004806995392,0.4446362853050232
1783245548700008700,0.4490087890625,-0.25846999883651733,0.06233394891023636,0.5683433413505554
1783245548710019600,0.45901953125,-0.18828637897968292,-0.14050868153572083,0.6395962238311768
1783245548720031500,0.469031494140625,-0.13374243676662445,-0.24524281919002533,0.6501420736312866
1783245548730043400,0.47904345703125,-0.07793109118938446,-0.2808982729911804,0.6187905073165894
1783245548740055600,0.4890556640625,-0.0004639956168830395,-0.28125566244125366,0.5778521299362183
1783245548750066400,0.49906640625,0.11596290022134781,-0.2384038269519806,0.5523642897605896
1783245548760078300,0.509078369140625,0.2803630232810974,-0.1666196584701538,0.5432621240615845
1783245548770090500,0.519090576171875,0.4485301971435547,-0.11148008704185486,0.5419169068336487
1783245548780102400,0.529102294921875,0.5883607864379883,-0.09775548428297043,0.5189418196678162
1783245548790113500,0.539113525390625,0.6967343688011169,-0.12366326153278351,0.4701221287250519
1783245548800125700,0.549125732421875,0.7791397571563721,-0.2071933150291443,0.41821685433387756
1783245548810138000,0.55913818359375,0.8365421295166016,-0.30573925375938416,0.37444987893104553
1783245548820149200,0.569149169921875,0.8719983696937561,-0.35855531692504883,0.3282323181629181
1783245548830161400,0.579161376953125,0.8777072429656982,-0.3599727749824524,0.27674600481987
1783245548840173300,0.58917333984375,0.8694258332252502,-0.28279009461402893,0.21334600448608398
1783245548850185500,0.599185546875,0.8621513247489929,-0.1151646226644516,0.14216110110282898
1783245548860196400,0.6091962890625,0.8652933239936829,0.11940713971853256,0.06159967556595802
1783245548870208300,0.619208251953125,0.878699541091919,0.343143105506897,-0.016403425484895706
1783245548880220200,0.62922021484375,0.8892360329627991,0.5096705555915833,-0.0814247727394104
1783245548890232300,0.639232421875,0.9059123396873474,0.5896918177604675,-0.13662366569042206
1783245548900243200,0.6492431640625,0.9307966828346252,0.6003364324569702,-0.1842319220304489
1783245548910255000,0.659255126953125,0.9703270792961121,0.5875242948532104,-0.2253628522157669
1783245548920267300,0.669267333984375,1.0108870267868042,0.5329416990280151,-0.2558025121688843
1783245548930278400,0.6792783203125,1.0370668172836304,0.4405285716056824,-0.2581292390823364
1783245548940290300,0.689290283203125,1.05178964138031,0.32731199264526367,-0.2402314692735672
1783245548950302500,0.699302490234375,1.0471978187561035,0.20106634497642517,-0.20276199281215668
1783245548960314400,0.709314453125,1.0198700428009033,0.054283563047647476,-0.14535729587078094
1783245548970325200,0.7193251953125,0.984955906867981,-0.08326046913862228,-0.08694352209568024
1783245548980337400,0.72933740234375,0.9557011127471924,-0.16123223304748535,-0.023983728140592575
1783245548990349300,0.739349365234375,0.9343884587287903,-0.179180309176445,0.029304252937436104
1783245549000360200,0.749360107421875,0.9261830449104309,-0.14987380802631378,0.06327873468399048
1783245549010372000,0.7593720703125,0.9273421168327332,-0.08439669758081436,0.07676831632852554
1783245549020384300,0.76938427734375,0.9351922869682312,-0.01106815692037344,0.060819707810878754
1783245549030396200,0.779396240234375,0.9509396553039551,0.05864960700273514,0.020929206162691116
1783245549040407300,0.7894072265625,0.9674353003501892,0.11763622611761093,-0.03870429843664169
1783245549050419500,0.79941943359375,0.9781256318092346,0.16407285630702972,-0.10622522234916687
1783245549060431400,0.809431396484375,0.9885985255241394,0.20198668539524078,-0.17849887907505035
1783245549070443300,0.819443359375,1.003606915473938,0.23897533118724823,-0.2490822970867157
1783245549080454400,0.829454345703125,1.0099338293075562,0.24986766278743744,-0.30550217628479004
1783245549090466300,0.83946630859375,0.9909591674804688,0.21025478839874268,-0.33428865671157837
1783245549100478200,0.849478271484375,0.9456204771995544,0.13281671702861786,-0.33383727073669434
1783245549110489300,0.8594892578125,0.8832428455352783,0.08289828151464462,-0.31026968359947205
1783245549120501200,0.869501220703125,0.8151655197143555,0.10281500220298767,-0.2631285488605499
1783245549130513200,0.87951318359375,0.7526640892028809,0.16697700321674347,-0.19582760334014893
1783245549140525300,0.889525390625,0.7059661149978638,0.23251819610595703,-0.12699048221111298
1783245549150536200,0.8995361328125,0.673191249370575,0.2893768846988678,-0.06959262490272522
1783245549160548000,0.909548095703125,0.641955554485321,0.3463922441005707,-0.04625667631626129
1783245549170560300,0.919560302734375,0.6131933331489563,0.37338995933532715,-0.04684995859861374
1783245549180572200,0.929572265625,0.5945719480514526,0.3354651927947998,-0.05858571082353592
1783245549190583300,0.939583251953125,0.5890875458717346,0.26391252875328064,-0.07340067625045776
1783245549200595500,0.949595458984375,0.5974032282829285,0.2017498016357422,-0.09719336032867432
1783245549210607400,0.959607421875,0.6109510660171509,0.1592578887939453,-0.11873441934585571
1783245549220618200,0.9696181640625,0.6151764392852783,0.12978149950504303,-0.12902885675430298
1783245549230630100,0.979630126953125,0.6067914962768555,0.10654570907354355,-0.12418989837169647
1783245549240642300,0.989642333984375,0.5813532471656799,0.11171303689479828,-0.10232827812433243
1783245549250654200,0.999654296875,0.5460010170936584,0.1538209617137909,-0.0717945396900177
1783245549260665000,1.0096650390625,0.49875062704086304,0.22000078856945038,-0.03641523793339729
1783245549270677200,1.01967724609375,0.43909943103790283,0.2989901304244995,-0.006063187029212713
1783245549280689200,1.029689208984375,0.3857201039791107,0.39386415481567383,0.02461909130215645
1783245549290701300,1.039701416015625,0.3449525535106659,0.470236212015152,0.05288481339812279
1783245549300712400,1.04971240234375,0.31979846954345703,0.5417620539665222,0.06624722480773926
1783245549310724400,1.059724365234375,0.32376667857170105,0.5862835645675659,0.06620575487613678
1783245549320736300,1.069736328125,0.35207581520080566,0.577001690864563,0.0534215085208416
1783245549330747400,1.079747314453125,0.3854821026325226,0.5481282472610474,0.022378433495759964
1783245549340759300,1.08975927734375,0.419636607170105,0.5017450451850891,-0.023173872381448746
1783245549350771200,1.099771240234375,0.4566975235939026,0.42973947525024414,-0.06102403998374939
1783245549360783400,1.109783447265625,0.4898488223552704,0.36156362295150757,-0.08172772824764252
1783245549370794200,1.119794189453125,0.5231699347496033,0.3319460153579712,-0.09594867378473282
1783245549380806100,1.12980615234375,0.5425226092338562,0.3517860472202301,-0.10791824758052826
1783245549390818300,1.139818359375,0.5379258990287781,0.3925444483757019,-0.13067428767681122
1783245549400830200,1.149830322265625,0.5194417238235474,0.4353422522544861,-0.1597757190465927
1783245549410841300,1.15984130859375,0.5185931324958801,0.48874983191490173,-0.19749560952186584
1783245549420853500,1.169853515625,0.540194571018219,0.5433923006057739,-0.2442958652973175
1783245549430865400,1.179865478515625,0.569635808467865,0.5926530361175537,-0.28475141525268555
1783245549440876300,1.189876220703125,0.5951747298240662,0.6114541292190552,-0.2954240143299103
1783245549450888400,1.199888427734375,0.6113235354423523,0.6017001271247864,-0.2559960186481476
1783245549460900400,1.209900390625,0.5986263751983643,0.5718922019004822,-0.1649864763021469
1783245549470912300,1.219912353515625,0.5770202875137329,0.49820125102996826,-0.04492569342255592
1783245549480923100,1.229923095703125,0.5545799732208252,0.3671039640903473,0.06745864450931549
1783245549490935300,1.239935302734375,0.534156084060669,0.20580776035785675,0.13499832153320312
1783245549500947200,1.249947265625,0.4984548091888428,0.03346901759505272,0.15850071609020233
1783245549510959400,1.25995947265625,0.45029157400131226,-0.10460212081670761,0.14905928075313568
1783245549520970200,1.26997021484375,0.39240965247154236,-0.22657783329486847,0.14529597759246826
1783245549530982100,1.279982177734375,0.35759446024894714,-0.2882930338382721,0.16876022517681122
1783245549540994000,1.289994140625,0.3587785065174103,-0.3222872316837311,0.21846546232700348
1783245549551005400,1.30000537109375,0.3753226399421692,-0.29935500025749207,0.27478012442588806
1783245549561017300,1.310017333984375,0.41036584973335266,-0.24391359090805054,0.31167101860046387
1783245549571029200,1.320029296875,0.4552896022796631,-0.16742607951164246,0.32394906878471375
1783245549581041400,1.33004150390625,0.5136927366256714,-0.07231020927429199,0.3122207522392273
1783245549591052300,1.34005224609375,0.5678864121437073,0.014389622956514359,0.27986258268356323
1783245549601064200,1.350064208984375,0.6039488315582275,0.09336938709020615,0.23523731529712677
1783245549611076400,1.360076416015625,0.6238663792610168,0.16399385035037994,0.19135627150535583
1783245549621087200,1.370087158203125,0.6351230144500732,0.23194041848182678,0.15817567706108093
1783245549631099100,1.38009912109375,0.6563116312026978,0.30462735891342163,0.1240963414311409
1783245549641111300,1.390111328125,0.6933684349060059,0.3844950199127197,0.08497902750968933
1783245549651123200,1.400123291015625,0.7594106793403625,0.43952351808547974,0.038104068487882614
1783245549661134300,1.41013427734375,0.8638039231300354,0.45231014490127563,-0.017720581963658333
1783245549671146500,1.420146484375,1.0016742944717407,0.4423579275608063,-0.08905814588069916
1783245549681158400,1.430158447265625,1.159861445426941,0.4063085913658142,-0.17542313039302826
1783245549691170300,1.44017041015625,1.3189183473587036,0.33738577365875244,-0.26274213194847107
1783245549701181200,1.45018115234375,1.4617516994476318,0.23008805513381958,-0.3419583737850189
1783245549711193300,1.460193359375,1.5635032653808594,0.06975886225700378,-0.3966246247291565
1783245549721205200,1.470205322265625,1.6091208457946777,-0.13617166876792908,-0.4162835478782654
1783245549731217400,1.480217529296875,1.6048123836517334,-0.3237738013267517,-0.3947874903678894
1783245549741228300,1.490228271484375,1.5490630865097046,-0.4585787355899811,-0.3358871638774872
1783245549751240200,1.500240234375,1.4486026763916016,-0.5359643697738647,-0.24287067353725433
1783245549761252000,1.510252197265625,1.3206745386123657,-0.5431357622146606,-0.13419905304908752
1783245549771263500,1.520263427734375,1.173758625984192,-0.48442426323890686,-0.016911249607801437
1783245549781275400,1.530275390625,1.023334264755249,-0.3779313564300537,0.0973985493183136
1783245549791287300,1.540287353515625,0.8826696276664734,-0.24170765280723572,0.19271615147590637
1783245549801299500,1.550299560546875,0.7675536870956421,-0.10930407047271729,0.2560921907424927
1783245549811309600,1.5603095703125,0.6783564686775208,-0.005021055229008198,0.27800363302230835
1783245549821321500,1.570321533203125,0.6280698776245117,0.041369348764419556,0.2626987099647522
1783245549831333600,1.580333740234375,0.6186845898628235,0.038048747926950455,0.22163070738315582
1783245549841345500,1.590345458984375,0.6388676166534424,0.000028661685064435005,0.16616319119930267
1783245549851356400,1.6003564453125,0.6699228286743164,-0.0493684820830822,0.10775963962078094
1783245549861368300,1.610368408203125,0.6977621912956238,-0.10968109220266342,0.05209291726350784
1783245549871380500,1.62038037109375,0.7108961939811707,-0.16393466293811798,-0.0004303883761167526
1783245549881391600,1.6303916015625,0.7047107815742493,-0.17144984006881714,-0.04195466265082359
1783245549891403500,1.640403564453125,0.6789964437484741,-0.1375330239534378,-0.06908094882965088
1783245549901415700,1.650415771484375,0.6411423087120056,-0.06493712216615677,-0.0732107162475586
1783245549911427600,1.660427490234375,0.6119239330291748,0.028075557202100754,-0.05923006683588028
1783245549921438500,1.6704384765625,0.5955747961997986,0.10185018181800842,-0.03764621168375015
1783245549931450600,1.68045068359375,0.5864180326461792,0.1159256100654602,-0.027288921177387238
1783245549941462500,1.690462646484375,0.5748867988586426,0.06848911195993423,-0.035098109394311905
1783245549951473400,1.700473388671875,0.566932201385498,-0.02824689820408821,-0.06067236512899399
1783245549961485600,1.710485595703125,0.559988796710968,-0.1541539579629898,-0.0970064103603363
1783245549971497500,1.72049755859375,0.542341411113739,-0.2783302068710327,-0.13414046168327332
1783245549981509400,1.73050927734375,0.5096356868743896,-0.3587858974933624,-0.16455481946468353
1783245549991520800,1.740520751953125,0.4456249475479126,-0.3782060444355011,-0.16992230713367462
1783245550001532700,1.75053271484375,0.3608536124229431,-0.337904155254364,-0.15048043429851532
1783245550011544600,1.760544677734375,0.2585747539997101,-0.2674523591995239,-0.10651929676532745
1783245550021556700,1.770556640625,0.1535537987947464,-0.1701873242855072,-0.053261399269104004
1783245550031567600,1.780567626953125,0.050024572759866714,-0.048213593661785126,-0.0065196603536605835
1783245550041579500,1.79057958984375,-0.0345049612224102,0.08160778880119324,0.009282472543418407
1783245550051591700,1.800591796875,-0.09796473383903503,0.19010168313980103,-0.0023187226615846157
1783245550061603600,1.810603515625,-0.13801947236061096,0.2721097469329834,-0.04537564516067505
1783245550071614500,1.820614501953125,-0.14923441410064697,0.30086052417755127,-0.09638909995555878
1783245550081626400,1.83062646484375,-0.13623712956905365,0.3044353127479553,-0.15375544130802155
1783245550091638500,1.840638427734375,-0.10630159080028534,0.27998507022857666,-0.19276383519172668
1783245550101649400,1.8506494140625,-0.0703182965517044,0.2048535794019699,-0.21086055040359497
1783245550111661300,1.860661376953125,-0.04299251735210419,0.10441457480192184,-0.2129245549440384
1783245550121673500,1.870673583984375,-0.0287358146160841,-0.012052378617227077,-0.2102009505033493
1783245550131685400,1.880685302734375,-0.03319878503680229,-0.12338490039110184,-0.20350342988967896
1783245550141696500,1.890696533203125,-0.04815616086125374,-0.20703718066215515,-0.20485791563987732
1783245550151708700,1.900708740234375,-0.07261809706687927,-0.23825526237487793,-0.2144560068845749
1783245550161720600,1.910720458984375,-0.11026880890130997,-0.20998713374137878,-0.22090032696723938
1783245550171732500,1.920732421875,-0.1648036390542984,-0.13985109329223633,-0.21280977129936218
1783245550181743600,1.93074365234375,-0.2286800891160965,-0.0460476279258728,-0.18515685200691223
1783245550191755500,1.940755615234375,-0.30146345496177673,0.04927290603518486,-0.12872891128063202
1783245550201767400,1.950767333984375,-0.37285375595092773,0.11893853545188904,-0.050412535667419434
1783245550211778600,1.960778564453125,-0.44121620059013367,0.1500990092754364,0.0377848856151104
1783245550221790500,1.97079052734375,-0.49137845635414124,0.15647408366203308,0.10675809532403946
1783245550231802400,1.98080224609375,-0.5243241786956787,0.1674242466688156,0.13648928701877594
1783245550241814500,1.990814453125,-0.5456861853599548,0.18974952399730682,0.13758012652397156
1783245550251825700,2.00082568359375,-0.5362657904624939,0.1899026483297348,0.1461469829082489
1783245550261837600,2.010837646484375,-0.46969717741012573,0.1332031488418579,0.17648892104625702
1783245550271849700,2.020849609375,-0.3816310167312622,0.005358227528631687,0.221064031124115
1783245550281861600,2.030861572265625,-0.2893514335155487,-0.161730095744133,0.2672906517982483
1783245550291872500,2.04087255859375,-0.21808405220508575,-0.33214569091796875,0.2959613800048828
1783245550301884400,2.050884521484375,-0.1696382313966751,-0.45958301424980164,0.3000195026397705
1783245550311896600,2.060896484375,-0.139373317360878,-0.5028197765350342,0.28114548325538635
1783245550321908500,2.070908447265625,-0.12550729513168335,-0.48774200677871704,0.24741706252098083
1783245550331919400,2.08091943359375,-0.11967653036117554,-0.42412322759628296,0.20743490755558014
1783245550341931500,2.090931640625,-0.12189200520515442,-0.31916218996047974,0.15830278396606445
1783245550351943400,2.100943359375,-0.10308802872896194,-0.20442575216293335,0.09378284215927124
1783245550361954600,2.11095458984375,-0.07565426826477051,-0.09905219823122025,0.003899829462170601
1783245550371966700,2.120966796875,-0.052758317440748215,0.01984715461730957,-0.11331874132156372
1783245550381978600,2.130978515625,-0.03800227493047714,0.12768760323524475,-0.23777545988559723
1783245550391990500,2.140990478515625,-0.03100460395216942,0.23046980798244476,-0.34648528695106506
1783245550402001700,2.151001708984375,-0.029402710497379303,0.36014285683631897,-0.42531296610832214
1783245550412013600,2.161013671875,-0.03100179135799408,0.5086553692817688,-0.47229066491127014
1783245550422025500,2.171025390625,-0.021269269287586212,0.6259444355964661,-0.4874107837677002
1783245550432037600,2.18103759765625,0.009577061049640179,0.6557758450508118,-0.4599306881427765
1783245550442048500,2.191048583984375,0.07192512601613998,0.5677764415740967,-0.39112764596939087
1783245550452060400,2.201060302734375,0.14836886525154114,0.3855104148387909,-0.29121163487434387
1783245550462072600,2.211072509765625,0.22714543342590332,0.10516557097434998,-0.18599388003349304
1783245550472083500,2.22108349609375,0.28575146198272705,-0.1487899124622345,-0.109169140458107
1783245550482095400,2.231095458984375,0.3154779374599457,-0.29609254002571106,-0.08415380120277405
1783245550492107500,2.241107421875,0.3189179003238678,-0.3409149944782257,-0.0989801362156868
1783245550502119400,2.251119384765625,0.30288514494895935,-0.34599417448043823,-0.1321016103029251
1783245550512130600,2.261130615234375,0.28633758425712585,-0.2727032005786896,-0.155514195561409
1783245550522142500,2.271142578125,0.3017876446247101,-0.16430512070655823,-0.15246886014938354
1783245550532154600,2.281154541015625,0.3454863727092743,-0.045651644468307495,-0.1376160979270935
1783245550542166500,2.29116650390625,0.3936850428581238,0.04596002772450447,-0.12555330991744995
1783245550552177400,2.301177490234375,0.43173688650131226,0.07343416661024094,-0.12892353534698486
1783245550562189600,2.311189453125,0.4657904803752899,0.03250378370285034,-0.1432121843099594
1783245550572201500,2.321201416015625,0.4927534759044647,-0.048053137958049774,-0.1700543314218521
1783245550582212400,2.33121240234375,0.5122147798538208,-0.12186212092638016,-0.19843536615371704
1783245550592224500,2.341224609375,0.504630982875824,-0.15520817041397095,-0.23181143403053284
1783245550602236400,2.351236328125,0.4797973036766052,-0.15553680062294006,-0.2666589021682739
1783245550612248300,2.361248291015625,0.4436347484588623,-0.11131860315799713,-0.3058953285217285
1783245550622259700,2.371259765625,0.3952331244945526,-0.03691866993904114,-0.34621718525886536
1783245550632271600,2.381271728515625,0.3361639380455017,0.038796596229076385,-0.3654409348964691
1783245550642283500,2.391283447265625,0.28037309646606445,0.11420799791812897,-0.35291796922683716
1783245550652295700,2.401295654296875,0.24328431487083435,0.17455627024173737,-0.3109837770462036
1783245550662306600,2.411306640625,0.22010523080825806,0.20788200199604034,-0.24971427023410797
1783245550672318500,2.421318359375,0.18521073460578918,0.2257559895515442,-0.18465112149715424
1783245550682330600,2.43133056640625,0.1419127881526947,0.22330614924430847,-0.12241224199533463
1783245550692342500,2.441342529296875,0.08910150080919266,0.1924857199192047,-0.061222247779369354
1783245550702353400,2.451353515625,0.029470128938555717,0.1505928635597229,-0.011241108179092407
1783245550712365600,2.461365478515625,-0.03854348510503769,0.1166628897190094,0.032876551151275635
1783245550722377500,2.47137744140625,-0.10540640354156494,0.09984955936670303,0.06579162180423737
1783245550732388600,2.481388671875,-0.15880060195922852,0.10744620859622955,0.09148506075143814
1783245550742400500,2.491400390625,-0.19375166296958923,0.12871235609054565,0.11251631379127502
1783245550752412700,2.50141259765625,-0.2061087191104889,0.1719387173652649,0.12446285784244537
1783245550762424600,2.511424560546875,-0.2031443566083908,0.23460982739925385,0.12696222960948944
1783245550772435500,2.521435546875,-0.18495360016822815,0.29805752635002136,0.11528054624795914
1783245550782447600,2.531447509765625,-0.16211512684822083,0.35138919949531555,0.0852680504322052
1783245550792459500,2.54145947265625,-0.13324134051799774,0.39380592107772827,0.03880201280117035
1783245550802471700,2.5514716796875,-0.10136595368385315,0.4009232223033905,-0.016220226883888245
1783245550812483000,2.561483154296875,-0.06281495839357376,0.37176960706710815,-0.06825020164251328
1783245550822495000,2.571494873046875,-0.019526604562997818,0.3206952214241028,-0.10383296012878418
1783245550832507100,2.581507080078125,0.03440425917506218,0.2400614321231842,-0.11369423568248749
1783245550842518000,2.59151806640625,0.07183019071817398,0.1428227722644806,-0.1130199208855629
1783245550852530000,2.601530029296875,0.09893400222063065,0.08199654519557953,-0.11528042703866959
1783245550862541800,2.611541748046875,0.127945676445961,0.07224564999341965,-0.12797145545482635
1783245550872554000,2.621553955078125,0.15748514235019684,0.11224527657032013,-0.15571579337120056
1783245550882565000,2.631565185546875,0.20814566314220428,0.19713939726352692,-0.19700810313224792
1783245550892577000,2.641576904296875,0.2686808407306671,0.30252978205680847,-0.259184330701828
1783245550902589200,2.651589111328125,0.32347938418388367,0.4137013256549835,-0.32483577728271484
1783245550912601000,2.66160107421875,0.36421218514442444,0.4975167512893677,-0.3768891394138336
1783245550922612000,2.671612060546875,0.3926459550857544,0.5515621304512024,-0.3953123688697815
1783245550932624100,2.6816240234375,0.4049975574016571,0.5727998614311218,-0.36247989535331726
1783245550942636000,2.691635986328125,0.4076111912727356,0.5181411504745483,-0.2878669202327728
1783245550952648000,2.70164794921875,0.4068395793437958,0.3790440559387207,-0.19021040201187134
1783245550962659000,2.7116591796875,0.38234037160873413,0.18104496598243713,-0.08548984676599503
1783245550972671000,2.7216708984375,0.3337986171245575,-0.06709954142570496,0.018637491390109062
1783245550982683000,2.731682861328125,0.27292007207870483,-0.28122568130493164,0.10535267740488052
1783245550992694000,2.741694091796875,0.1925920695066452,-0.4063958525657654,0.17063641548156738
1783245551002706200,2.7517060546875,0.0972045511007309,-0.44930362701416016,0.23326890170574188
1783245551012718000,2.761718017578125,-0.00543230539187789,-0.41241514682769775,0.30616170167922974
1783245551022730200,2.771730224609375,-0.09658565372228622,-0.3098999857902527,0.39117830991744995
1783245551032741000,2.7817412109375,-0.16936546564102173,-0.1644628793001175,0.47827866673469543
1783245551042753000,2.7917529296875,-0.22178100049495697,-0.011384922079741955,0.558076798915863
1783245551052765200,2.80176513671875,-0.2644771337509155,0.11111829429864883,0.6050654053688049
1783245551062777000,2.811777099609375,-0.29038622975349426,0.1837671995162964,0.6158703565597534
1783245551072788000,2.8217880859375,-0.3026191294193268,0.20901086926460266,0.590077817440033
1783245551082799900,2.8317998046875,-0.2965042293071747,0.20917783677577972,0.532752513885498
1783245551092812000,2.84181201171875,-0.26136863231658936,0.22083036601543427,0.45453357696533203
1783245551102824000,2.851823974609375,-0.19892361760139465,0.2587505578994751,0.35885125398635864
1783245551112834800,2.861834716796875,-0.11435160040855408,0.301830530166626,0.26094892621040344
1783245551122847000,2.871846923828125,-0.006547636818140745,0.33227524161338806,0.177182137966156
1783245551132859000,2.88185888671875,0.11262105405330658,0.3264683485031128,0.1145240068435669
1783245551142870000,2.8918701171875,0.23610171675682068,0.28143322467803955,0.07338376343250275
1783245551152882200,2.901882080078125,0.3312530219554901,0.20262248814105988,0.07103631645441055
1783245551162894000,2.91189404296875,0.40248537063598633,0.056706298142671585,0.11457979679107666
1783245551172906000,2.921906005859375,0.45759716629981995,-0.11466566473245621,0.18456679582595825
1783245551182917000,2.931917236328125,0.4818556308746338,-0.23696281015872955,0.24325835704803467
1783245551192929000,2.941928955078125,0.4726429581642151,-0.30213868618011475,0.26700109243392944
1783245551202941000,2.95194091796875,0.4308590292930603,-0.321027934551239,0.256641149520874
1783245551212953000,2.961953125,0.3854467272758484,-0.30719316005706787,0.22369317710399628
1783245551222964000,2.9719638671875,0.3515220284461975,-0.24288715422153473,0.18459345400333405
1783245551232976000,2.981975830078125,0.33532896637916565,-0.1764654666185379,0.15412567555904388
1783245551242988000,2.991988037109375,0.3473321199417114,-0.12770192325115204,0.1309894621372223
1783245551253000000,3.002,0.37253716588020325,-0.0809209868311882,0.11248462647199631
1783245551263011000,3.012010986328125,0.4069771468639374,-0.07035356760025024,0.0934523418545723
1783245551273023200,3.022023193359375,0.4265957772731781,-0.09943319857120514,0.07119257003068924
1783245551283035100,3.03203515625,0.4247632622718811,-0.14954723417758942,0.043566808104515076
1783245551293046000,3.0420458984375,0.3995180130004883,-0.18052321672439575,0.003940973896533251
1783245551303058000,3.052057861328125,0.36780986189842224,-0.19417031109333038,-0.049485500901937485
1783245551313070000,3.062070068359375,0.3433001637458801,-0.19470520317554474,-0.10457631200551987
1783245551323082000,3.07208203125,0.31953147053718567,-0.16737371683120728,-0.1577942669391632
1783245551333092900,3.0820927734375,0.2993934750556946,-0.13396452367305756,-0.20430757105350494
1783245551343105000,3.09210498046875,0.2872990071773529,-0.09703872352838516,-0.23817178606987
1783245551353117000,3.102116943359375,0.2781903147697449,-0.07140662521123886,-0.25303131341934204
1783245551363129000,3.112129150390625,0.2696301341056824,-0.06656952947378159,-0.2543588876724243
1783245551373140200,3.12214013671875,0.2546684145927429,-0.08181512355804443,-0.2462412416934967
1783245551383152000,3.132152099609375,0.2300347238779068,-0.107998788356781,-0.23893645405769348
1783245551393164000,3.1421640625,0.18540316820144653,-0.13842850923538208,-0.23447281122207642
1783245551403176200,3.15217626953125,0.12614837288856506,-0.1670020967721939,-0.22319084405899048
1783245551413187000,3.16218701171875,0.05524145066738129,-0.1878528594970703,-0.20408786833286285
1783245551423199000,3.172198974609375,-0.018922794610261917,-0.18716895580291748,-0.17328867316246033
1783245551433211100,3.182211181640625,-0.09377259016036987,-0.18005560338497162,-0.12864969670772552
1783245551443222000,3.192221923828125,-0.17066125571727753,-0.18639366328716278,-0.07210386544466019
1783245551453234000,3.20223388671875,-0.2511671185493469,-0.18901562690734863,-0.012583745643496513
1783245551463246000,3.21224609375,-0.33397358655929565,-0.18169192969799042,0.0440497063100338
1783245551473258000,3.222258056640625,-0.42052584886550903,-0.16694419085979462,0.09015008807182312
1783245551483268900,3.232268798828125,-0.501981794834137,-0.11958305537700653,0.1285611391067505
1783245551493281000,3.242281005859375,-0.5778786540031433,-0.06530400365591049,0.15933676064014435
1783245551503293000,3.25229296875,-0.6361933946609497,-0.00454851146787405,0.1831030696630478
1783245551513304800,3.262304931640625,-0.6754937767982483,0.046880822628736496,0.2033161222934723
1783245551523316200,3.272316162109375,-0.7001434564590454,0.08187262713909149,0.20616810023784637
1783245551533328100,3.282328125,-0.7179641723632812,0.1288072019815445,0.18474683165550232
1783245551543340000,3.292340087890625,-0.7324647903442383,0.18024535477161407,0.1609879732131958
1783245551553352200,3.302352294921875,-0.7357390522956848,0.20857615768909454,0.15236113965511322
1783245551563363000,3.312363037109375,-0.7235556244850159,0.228546142578125,0.15371428430080414
1783245551573375000,3.322375,-0.6874253153800964,0.2311008721590042,0.1594201773405075
1783245551583387100,3.33238720703125,-0.6415595412254333,0.19638124108314514,0.18020454049110413
1783245551593398000,3.34239794921875,-0.5791196227073669,0.09164144843816757,0.21824400126934052
1783245551603410000,3.352409912109375,-0.5124529600143433,-0.055880628526210785,0.25869661569595337
1783245551613421800,3.362421875,-0.44714540243148804,-0.20731957256793976,0.29306653141975403
1783245551623434000,3.37243408203125,-0.40534764528274536,-0.30468395352363586,0.3023364543914795
1783245551633445000,3.382445068359375,-0.39818111062049866,-0.36079034209251404,0.2906280755996704
1783245551643457000,3.39245703125,-0.4177979528903961,-0.3775176405906677,0.266642302274704
1783245551653469200,3.40246923828125,-0.43894219398498535,-0.35388725996017456,0.24750974774360657
1783245551663481000,3.412481201171875,-0.44835275411605835,-0.303195059299469,0.2340802252292633
1783245551673492000,3.422491943359375,-0.4452875256538391,-0.23145045340061188,0.21640847623348236
1783245551683504000,3.432504150390625,-0.4417780339717865,-0.16004231572151184,0.18500608205795288
1783245551693516000,3.44251611328125,-0.4415076673030853,-0.09491538256406784,0.1439836174249649
1783245551703528000,3.45252783203125,-0.46001797914505005,-0.031154245138168335,0.10419519990682602
1783245551713539000,3.4625390625,-0.47203344106674194,0.012370779179036617,0.07035474479198456
1783245551723551000,3.472551025390625,-0.4667057991027832,0.06827745586633682,0.02182343229651451
1783245551733563000,3.48256298828125,-0.4547780752182007,0.12219134718179703,-0.04104787856340408
1783245551743575000,3.492574951171875,-0.4540211856365204,0.11726316809654236,-0.10053384304046631
1783245551753586200,3.502586181640625,-0.45838961005210876,0.08063586801290512,-0.13855113089084625
1783245551763598000,3.51259814453125,-0.4631960690021515,0.04020881652832031,-0.14226649701595306
1783245551773610200,3.5226103515625,-0.4620845317840576,-0.0038085791748017073,-0.10712722688913345
1783245551783621000,3.53262109375,-0.45128753781318665,-0.07753020524978638,-0.04386463388800621
1783245551793633000,3.542633056640625,-0.4301099181175232,-0.17739656567573547,0.028336919844150543
1783245551803645200,3.552645263671875,-0.3968835175037384,-0.2856506109237671,0.09560144692659378
1783245551813657000,3.562656982421875,-0.3591108024120331,-0.3784368336200714,0.1362825632095337
1783245551823668000,3.57266796875,-0.3258473873138428,-0.4486073851585388,0.13394297659397125
1783245551833680000,3.582679931640625,-0.309101939201355,-0.48348742723464966,0.09211762994527817
1783245551843691800,3.59269189453125,-0.29878246784210205,-0.4942660331726074,0.029096055775880814
1783245551853704000,3.602703857421875,-0.30432096123695374,-0.49809616804122925,-0.03344621881842613
1783245551863714800,3.61271484375,-0.3249780535697937,-0.4439737796783447,-0.08516614139080048
1783245551873726700,3.622726806640625,-0.3506831228733063,-0.35641032457351685,-0.11336961388587952
1783245551883739000,3.63273876953125,-0.3812689781188965,-0.22361578047275543,-0.11829806119203568
1783245551893750800,3.642750732421875,-0.4286174774169922,-0.08545296639204025,-0.10623946040868759
1783245551903762000,3.652761962890625,-0.4874967634677887,0.03276368975639343,-0.07833432406187057
1783245551913774000,3.662774169921875,-0.545037567615509,0.1399669647216797,-0.038634855300188065
1783245551923786000,3.672785888671875,-0.5959446430206299,0.23630282282829285,0.008861823938786983
1783245551933796900,3.682796875,-0.6298081874847412,0.3028692305088043,0.05152400583028793
1783245551943809000,3.69280908203125,-0.6500551700592041,0.3352878987789154,0.09247943013906479
1783245551953821000,3.702821044921875,-0.6526210904121399,0.3177374005317688,0.1436227709054947
1783245551963832800,3.712832763671875,-0.6327006816864014,0.2381460815668106,0.21010178327560425
1783245551973844000,3.722843994140625,-0.5925845503807068,0.12069946527481079,0.2817590534687042
1783245551983855900,3.73285595703125,-0.5392438173294067,-0.009174110367894173,0.3323388695716858
1783245551993867800,3.74286767578125,-0.48477834463119507,-0.12592993676662445,0.3525213301181793
1783245552003880000,3.7528798828125,-0.439024955034256,-0.202139750123024,0.3428684175014496
1783245552013891000,3.76289111328125,-0.39349883794784546,-0.22466249763965607,0.31697943806648254
1783245552023903000,3.772903076171875,-0.33778470754623413,-0.22151170670986176,0.29229167103767395
1783245552033915100,3.7829150390625,-0.27350160479545593,-0.21638332307338715,0.2787206172943115
1783245552043927000,3.792927001953125,-0.20707517862319946,-0.19416776299476624,0.27182063460350037
1783245552053938000,3.80293798828125,-0.1485103964805603,-0.1594875305891037,0.26438233256340027
1783245552063950000,3.8129501953125,-0.08959222584962845,-0.1412414014339447,0.25503623485565186
1783245552073962000,3.8229619140625,-0.026389822363853455,-0.15241390466690063,0.2430962324142456
1783245552083972900,3.832972900390625,0.035527341067790985,-0.17896348237991333,0.21759113669395447
1783245552093984800,3.84298486328125,0.09828919917345047,-0.20879250764846802,0.1727363020181656
1783245552103997000,3.852996826171875,0.14916996657848358,-0.22117966413497925,0.10866944491863251
1783245552114008800,3.8630087890625,0.19619616866111755,-0.24528571963310242,0.03306116908788681
1783245552124020000,3.87302001953125,0.23198558390140533,-0.261902779340744,-0.04762542247772217
1783245552134032100,3.8830322265625,0.2525060474872589,-0.2513706684112549,-0.11415750533342361
1783245552144044000,3.8930439453125,0.2540261745452881,-0.2080863118171692,-0.15157917141914368
1783245552154056000,3.903055908203125,0.24630700051784515,-0.1445944905281067,-0.15409468114376068
1783245552164067000,3.913067138671875,0.22193747758865356,-0.04585700109601021,-0.12597888708114624
1783245552174079000,3.923078857421875,0.20358899235725403,0.07579607516527176,-0.06975622475147247
1783245552184091000,3.9330908203125,0.18813414871692657,0.15556015074253082,-0.00036276690661907196
1783245552194103000,3.94310302734375,0.17569558322429657,0.19799648225307465,0.05359247699379921
1783245552204114000,3.953114013671875,0.17525802552700043,0.1973474770784378,0.07648101449012756
1783245552214125800,3.963125732421875,0.1813877820968628,0.16237162053585052,0.06868167966604233
1783245552224138000,3.973137939453125,0.19804343581199646,0.10151306539773941,0.03856106474995613
1783245552234150000,3.98314990234375,0.2201056033372879,0.05972147732973099,-0.007126396521925926
1783245552244160800,3.993160888671875,0.24231849610805511,0.04071290045976639,-0.047500450164079666
1783245552254173000,4.0031728515625,0.2576240599155426,0.035375140607357025,-0.07400762289762497
1783245552264184800,4.013184814453125,0.26545560359954834,0.04997778311371803,-0.08382057398557663
1783245552274196000,4.023196044921875,0.2650216519832611,0.07363363355398178,-0.07674003392457962
1783245552284208000,4.0332080078125,0.2597230076789856,0.09384090453386307,-0.057012129575014114
1783245552294220000,4.043219970703125,0.24994134902954102,0.12370332330465317,-0.043206363916397095
1783245552304232000,4.05323193359375,0.24297212064266205,0.16202567517757416,-0.04979715496301651
1783245552314242800,4.063242919921875,0.209905207157135,0.21836981177330017,-0.07535085827112198
1783245552324255000,4.0732548828125,0.1641523689031601,0.2608506977558136,-0.10005193948745728
1783245552334267000,4.083266845703125,0.12586480379104614,0.3156307339668274,-0.11571072787046432
1783245552344279000,4.093279052734375,0.10445378720760345,0.36529603600502014,-0.11845937371253967
1783245552354290000,4.1032900390625,0.09551771730184555,0.3666989505290985,-0.10740513354539871
1783245552364301800,4.1133017578125,0.0923197939991951,0.3233059346675873,-0.09297160059213638
1783245552374313700,4.123313720703125,0.09214326739311218,0.26054683327674866,-0.0904351994395256
1783245552384326000,4.133325927734375,0.08591466397047043,0.23323851823806763,-0.10682615637779236
1783245552394337000,4.1433369140625,0.06635710597038269,0.23170174658298492,-0.1378478705883026
1783245552404349000,4.153348876953125,0.04787662997841835,0.25576767325401306,-0.17692255973815918
1783245552414361000,4.163361083984375,0.03377081826329231,0.2882547676563263,-0.2124806046485901
1783245552424373000,4.173373046875,0.029641587287187576,0.2898135185241699,-0.2406829446554184
1783245552434384000,4.1833837890625,0.028853140771389008,0.2612607181072235,-0.26195433735847473
1783245552444396000,4.19339599609375,0.03396880626678467,0.21329770982265472,-0.27356866002082825
1783245552454408000,4.203407958984375,0.03704853728413582,0.183401957154274,-0.2788538634777069
1783245552464418800,4.213418701171875,0.0389002300798893,0.15808062255382538,-0.274625301361084
1783245552474431000,4.223430908203125,0.044152576476335526,0.14099085330963135,-0.2664719521999359
1783245552484443000,4.23344287109375,0.043789055198431015,0.13194169104099274,-0.24317488074302673
1783245552494454800,4.243454833984375,0.01826563850045204,0.1250191181898117,-0.20968490839004517
1783245552504466200,4.253466064453125,-0.023180870339274406,0.10402223467826843,-0.16694863140583038
1783245552514478000,4.26347802734375,-0.07178511470556259,0.08194932341575623,-0.1240197941660881
1783245552524490000,4.273489990234375,-0.11915529519319534,0.05440771207213402,-0.08389527350664139
1783245552534502100,4.283502197265625,-0.1673845648765564,0.037403982132673264,-0.04318859428167343
1783245552544513000,4.293512939453125,-0.21775852143764496,0.043374523520469666,-0.0008664361666887999
1783245552554525000,4.30352490234375,-0.28000345826148987,0.04311816021800041,0.050690099596977234
1783245552564537000,4.313537109375,-0.34897613525390625,0.034894052892923355,0.10835206508636475
1783245552574549000,4.323549072265625,-0.41922056674957275,0.011975189670920372,0.1822814792394638
1783245552584559900,4.333559814453125,-0.4859122633934021,-0.04563111439347267,0.2724446654319763
1783245552594571800,4.34357177734375,-0.543327271938324,-0.11424469947814941,0.37153011560440063
1783245552604584000,4.353583984375,-0.6002025604248047,-0.15062321722507477,0.4607321619987488
1783245552614594800,4.3635947265625,-0.6578118801116943,-0.16427230834960938,0.522091269493103
1783245552624606700,4.373606689453125,-0.7084319591522217,-0.14112862944602966,0.54593825340271
1783245552634619000,4.383618896484375,-0.7468472719192505,-0.09173937886953354,0.5316170454025269
1783245552644630800,4.393630859375,-0.7746818661689758,-0.048686712980270386,0.4902014434337616
1783245552654642000,4.403641845703125,-0.784553050994873,0.006493677385151386,0.430459201335907
1783245552664654000,4.413654052734375,-0.7683972120285034,0.09203627705574036,0.35772615671157837
1783245552674666000,4.423666015625,-0.7410669922828674,0.17635959386825562,0.2734209895133972
1783245552684678000,4.433677978515625,-0.7014192342758179,0.21963223814964294,0.1957933008670807
1783245552694689000,4.44368896484375,-0.6579134464263916,0.21865582466125488,0.14019775390625
1783245552704701000,4.453700927734375,-0.6221245527267456,0.18963615596294403,0.1140015572309494
1783245552714712800,4.463712890625,-0.5894275307655334,0.1283913254737854,0.1135997548699379
1783245552724725000,4.47372509765625,-0.5629767179489136,0.017955899238586426,0.11692044883966446
1783245552734736000,4.48373583984375,-0.5476112365722656,-0.16287949681282043,0.11913973093032837
1783245552744747800,4.493747802734375,-0.5397605299949646,-0.37684744596481323,0.11263496428728104
1783245552754760000,4.503760009765625,-0.5370046496391296,-0.5697035193443298,0.08959082514047623
1783245552764771800,4.513771728515625,-0.5547575354576111,-0.7003598213195801,0.056421421468257904
1783245552774783000,4.523782958984375,-0.5930594205856323,-0.7629721164703369,0.02709735371172428
1783245552784795100,4.533795166015625,-0.6486265659332275,-0.7677104473114014,0.013831881806254387
1783245552794807000,4.54380712890625,-0.7287570238113403,-0.7309523820877075,0.025065161287784576
1783245552804819000,4.55381884765625,-0.8345596194267273,-0.6739284992218018,0.06380563229322433
1783245552814829800,4.563829833984375,-0.9608057141304016,-0.60947185754776,0.12314525246620178
1783245552824842000,4.573842041015625,-1.0934300422668457,-0.5716006755828857,0.19205188751220703
1783245552834854000,4.58385400390625,-1.2282582521438599,-0.5568187832832336,0.2572042644023895
1783245552844864800,4.59386474609375,-1.3527748584747314,-0.5806111693382263,0.31640100479125977
1783245552854877000,4.603876953125,-1.4494245052337646,-0.6213141083717346,0.36356598138809204
1783245552864888800,4.613888916015625,-1.522903561592102,-0.655491292476654,0.39072516560554504
1783245552874900700,4.623900634765625,-1.58267080783844,-0.6786372661590576,0.39565855264663696
1783245552884912000,4.633912109375,-1.631779432296753,-0.6874514818191528,0.3785432279109955
1783245552894924000,4.643924072265625,-1.6765904426574707,-0.6993494629859924,0.3517102003097534
1783245552904936000,4.65393603515625,-1.7217233180999756,-0.6985635757446289,0.31844544410705566
1783245552914948000,4.663947998046875,-1.7611031532287598,-0.6963142156600952,0.28877395391464233
1783245552924959000,4.673958984375,-1.8060243129730225,-0.6878698468208313,0.2741217613220215
1783245552934971000,4.683970947265625,-1.8619325160980225,-0.6663804054260254,0.2851603329181671
1783245552944983000,4.693983154296875,-1.920634388923645,-0.6552664637565613,0.32421478629112244
1783245552954995000,4.703994873046875,-1.9805761575698853,-0.6290168762207031,0.3774126172065735
1783245552965005800,4.714005859375,-2.0256073474884033,-0.611546516418457,0.424444317817688
1783245552975017700,4.724017822265625,-2.0466716289520264,-0.621133029460907,0.4299015998840332
1783245552985030000,4.73402978515625,-2.0657973289489746,-0.6425411105155945,0.39643657207489014
1783245552995041800,4.744041748046875,-2.07763409614563,-0.6933572292327881,0.33890390396118164
1783245553005053000,4.754052978515625,-2.080730438232422,-0.7317416667938232,0.28378045558929443
1783245553015064800,4.76406494140625,-2.0830399990081787,-0.734682559967041,0.23954370617866516
1783245553025077000,4.774076904296875,-2.076215982437134,-0.7498207688331604,0.20527280867099762
1783245553035088000,4.784087890625,-2.0708487033843994,-0.7869375348091125,0.18004921078681946
1783245553045100000,4.79410009765625,-2.0701282024383545,-0.8257962465286255,0.15234941244125366
1783245553055112000,4.80411181640625,-2.082810878753662,-0.8560137152671814,0.12450826168060303
1783245553065123800,4.814123779296875,-2.104109525680542,-0.8821936845779419,0.11183533817529678
1783245553075135000,4.824135009765625,-2.1313862800598145,-0.8723688721656799,0.10524935275316238
1783245553085147000,4.83414697265625,-2.1705751419067383,-0.8173391819000244,0.10818202048540115
1783245553095158800,4.84415869140625,-2.2105648517608643,-0.7594386339187622,0.11968281865119934
1783245553105171000,4.8541708984375,-2.244255304336548,-0.7270008325576782,0.14100009202957153
1783245553115181800,4.864181884765625,-2.2690303325653076,-0.7235981822013855,0.1648586094379425
1783245553125193700,4.87419384765625,-2.2847378253936768,-0.7449114322662354,0.18450342118740082
1783245553135206000,4.884205810546875,-2.2963106632232666,-0.7851324081420898,0.1992911547422409
1783245553145217800,4.8942177734375,-2.3012216091156006,-0.8134231567382812,0.19869540631771088
1783245553155229000,4.90422900390625,-2.297731876373291,-0.8213587999343872,0.18623633682727814
1783245553165241000,4.914240966796875,-2.28804349899292,-0.8228464722633362,0.1720890998840332
1783245553175253000,4.9242529296875,-2.282529592514038,-0.8178848624229431,0.15651346743106842
1783245553185265000,4.934264892578125,-2.2871649265289307,-0.7951223254203796,0.13289415836334229
1783245553195275800,4.94427587890625,-2.293980836868286,-0.7747036218643188,0.1002970039844513
1783245553205288000,4.954287841796875,-2.303162097930908,-0.7556819915771484,0.0620657242834568
1783245553215299800,4.9642998046875,-2.3042032718658447,-0.7116606831550598,0.009706178680062294
1783245553225310700,4.974310791015625,-2.3016929626464844,-0.617723286151886,-0.062015146017074585
1783245553235323000,4.984322998046875,-2.309749126434326,-0.45871949195861816,-0.16051681339740753
1783245553245334800,4.994334716796875,-2.3243930339813232,-0.29261651635169983,-0.2660973072052002
1783245553255347000,5.004346923828125,-2.3377225399017334,-0.1703411191701889,-0.3439095616340637
1783245553265358000,5.014358154296875,-2.3344650268554688,-0.08568322658538818,-0.35743096470832825
1783245553275370000,5.024369873046875,-2.3025126457214355,0.0046354238875210285,-0.306774377822876
1783245553285382000,5.0343818359375,-2.2592170238494873,0.00408574752509594,-0.21631743013858795
1783245553295394000,5.04439404296875,-2.2147269248962402,-0.09206078946590424,-0.09872283041477203
1783245553305405000,5.054405029296875,-2.1729660034179688,-0.24443835020065308,0.007567928172647953
1783245553315416800,5.064416748046875,-2.143734931945801,-0.40735355019569397,0.08541745692491531
1783245553325429000,5.074428955078125,-2.128763198852539,-0.5772722959518433,0.13726332783699036
1783245553335441000,5.08444091796875,-2.1375086307525635,-0.7314621806144714,0.1780318170785904
1783245553345451800,5.09445166015625,-2.139021635055542,-0.8459703922271729,0.21956168115139008
1783245553355464000,5.1044638671875,-2.1308605670928955,-0.8948918581008911,0.2841467261314392
1783245553365475800,5.114475830078125,-2.105738878250122,-0.883383572101593,0.36170971393585205
1783245553375487700,5.12448779296875,-2.0645103454589844,-0.8395878672599792,0.431526243686676
1783245553385499000,5.134498779296875,-2.016810417175293,-0.7560974955558777,0.4679819941520691
1783245553395510800,5.1445107421875,-1.9381444454193115,-0.6630902886390686,0.45382073521614075
1783245553405523000,5.15452294921875,-1.8543750047683716,-0.6043857336044312,0.38355401158332825
1783245553415534800,5.164534912109375,-1.7736612558364868,-0.5633230209350586,0.27176809310913086
1783245553425546000,5.1745458984375,-1.690102458000183,-0.5355798006057739,0.138816699385643
1783245553435558000,5.184557861328125,-1.6143540143966675,-0.5056740045547485,0.024343978613615036
1783245553445570000,5.194570068359375,-1.5427045822143555,-0.45568913221359253,-0.06109555810689926
1783245553455581000,5.204580810546875,-1.477208137512207,-0.38912534713745117,-0.10318408161401749
1783245553465592800,5.2145927734375,-1.4200849533081055,-0.3454228639602661,-0.10328714549541473
1783245553475605000,5.22460498046875,-1.371877908706665,-0.3253496587276459,-0.07249695062637329
1783245553485617000,5.234616943359375,-1.3280017375946045,-0.3189801871776581,-0.033280834555625916
1783245553495627800,5.244627685546875,-1.2947248220443726,-0.33364877104759216,0.014004387892782688
1783245553505639700,5.2546396484375,-1.268169641494751,-0.3593165874481201,0.0553201362490654
1783245553515651800,5.26465185546875,-1.2433607578277588,-0.36397767066955566,0.08037348836660385
1783245553525663700,5.274663818359375,-1.2146289348602295,-0.3853822946548462,0.09668402373790741
1783245553535675000,5.2846748046875,-1.1834001541137695,-0.4086901843547821,0.10715370625257492
1783245553545687000,5.29468701171875,-1.1469448804855347,-0.43221789598464966,0.11109065264463425
1783245553555699000,5.304698974609375,-1.0983384847640991,-0.4574175477027893,0.10560141503810883
1783245553565710800,5.3147109375,-1.0535342693328857,-0.4627436101436615,0.07203413546085358
1783245553575722000,5.324721923828125,-1.0100661516189575,-0.458326131105423,0.016300098970532417
1783245553585734000,5.33473388671875,-0.9728044867515564,-0.4356434643268585,-0.05784044414758682
1783245553595745800,5.344745849609375,-0.9242258071899414,-0.40340569615364075,-0.14143380522727966
1783245553605758000,5.354758056640625,-0.8728723526000977,-0.425089955329895,-0.22450898587703705
1783245553615768800,5.364768798828125,-0.8511560559272766,-0.4432942569255829,-0.29477041959762573
1783245553625780700,5.37478076171875,-0.8109108805656433,-0.4288356900215149,-0.3592740297317505
1783245553635793000,5.38479296875,-0.7479684352874756,-0.45076778531074524,-0.4216008186340332
1783245553645804800,5.3948046875,-0.7350497245788574,-0.4516937732696533,-0.46387532353401184
1783245553655816000,5.40481591796875,-0.6936270594596863,-0.44309964776039124,-0.4976522922515869
1783245553665828000,5.414828125,-0.6343757510185242,-0.4151178300380707,-0.5200425982475281
1783245553675840000,5.424840087890625,-0.5933192372322083,-0.40107405185699463,-0.5332109332084656
1783245553685851000,5.434850830078125,-0.5616167187690735,-0.3865717947483063,-0.539387583732605
1783245553695863000,5.444863037109375,-0.5419699549674988,-0.3793581426143646,-0.542859673500061
1783245553705875000,5.454875,-0.5215067863464355,-0.39070454239845276,-0.5396971702575684
1783245553715886800,5.464886962890625,-0.5102514624595642,-0.43561413884162903,-0.5313992500305176
1783245553725897700,5.474897705078125,-0.5068204998970032,-0.5118324756622314,-0.5180176496505737
1783245553735910000,5.484909912109375,-0.5221600532531738,-0.6172845363616943,-0.5030989050865173
1783245553745921800,5.494921875,-0.5571880340576172,-0.6653868556022644,-0.48221948742866516
1783245553755934000,5.504933837890625,-0.6085159182548523,-0.638024628162384,-0.45377597212791443
1783245553765944800,5.51494482421875,-0.6720032691955566,-0.5633029937744141,-0.4186009466648102
1783245553775957000,5.52495703125,-0.7332117557525635,-0.466434121131897,-0.37845954298973083
1783245553785969000,5.534968994140625,-0.7871538400650024,-0.3567773997783661,-0.3316507637500763
1783245553795981000,5.54498095703125,-0.8301947116851807,-0.26191142201423645,-0.27455297112464905
1783245553805992000,5.554991943359375,-0.8946304321289062,-0.2021266520023346,-0.22408421337604523
1783245553816004400,5.56500439453125,-0.9424368143081665,-0.15058806538581848,-0.18007521331310272
1783245553826016500,5.5750166015625,-0.9848012924194336,-0.0770917534828186,-0.1399482935667038
1783245553836028400,5.5850283203125,-1.01570725440979,-0.009888175874948502,-0.11458707600831985
1783245553846039300,5.595039306640625,-1.0365374088287354,0.01097183208912611,-0.09344211220741272
1783245553856051200,5.60505126953125,-1.0533485412597656,0.0106863584369421,-0.08245544135570526
1783245553866063400,5.6150634765625,-1.0809367895126343,-0.010908415541052818,-0.0710722878575325
1783245553876074200,5.62507421875,-1.1112123727798462,-0.06985631585121155,-0.06152745336294174
1783245553886086100,5.635086181640625,-1.1445119380950928,-0.10644255578517914,-0.05163487792015076
1783245553896098300,5.645098388671875,-1.1780815124511719,-0.12069479376077652,-0.04908483475446701
1783245553906110200,5.655110107421875,-1.2246490716934204,-0.10619707405567169,-0.03596849739551544
1783245553916121300,5.665121337890625,-1.2641228437423706,-0.0697922632098198,-0.015581866726279259
1783245553926133500,5.675133544921875,-1.270216941833496,-0.01416841708123684,0.012170935049653053
1783245553936145400,5.6851455078125,-1.2438929080963135,0.050306741148233414,0.03856659308075905
1783245553946157300,5.6951572265625,-1.2005521059036255,0.11313443630933762,0.056587401777505875
1783245553956168400,5.70516845703125,-1.1490380764007568,0.11025296151638031,0.06134127452969551
1783245553966180400,5.715180419921875,-1.1113463640213013,0.083366759121418,0.05176188424229622
1783245553976192300,5.725192138671875,-1.080415964126587,0.07781443744897842,0.017266230657696724
1783245553986204400,5.735204345703125,-1.0476374626159668,0.04287775978446007,-0.03237881883978844
1783245553996215300,5.74521533203125,-1.0183157920837402,0.03636961802840233,-0.07067041844129562
1783245554006227200,5.755227294921875,-0.973518967628479,0.03035939484834671,-0.0888584777712822
1783245554016239400,5.7652392578125,-0.9213266372680664,0.022167479619383812,-0.08404847234487534
1783245554026251300,5.775251220703125,-0.8828719258308411,0.035065703094005585,-0.07313989847898483
1783245554036262400,5.785262451171875,-0.8490638732910156,0.06618214398622513,-0.04548230767250061
1783245554046274300,5.7952744140625,-0.8142971396446228,0.10973920673131943,-0.016868773847818375
1783245554056286200,5.8052861328125,-0.8105871081352234,0.1281622052192688,0.015036029741168022
1783245554066298400,5.81529833984375,-0.815767765045166,0.15236155688762665,0.05136261135339737
1783245554076309200,5.825309326171875,-0.83538818359375,0.10379965603351593,0.09744782000780106
1783245554086321400,5.8353212890625,-0.8528952598571777,0.0629211962223053,0.15014484524726868
1783245554096333300,5.845333251953125,-0.8731387853622437,-0.017620382830500603,0.21213525533676147
1783245554106344200,5.85534423828125,-0.8868295550346375,-0.05876941978931427,0.2627451717853546
1783245554116356400,5.8653564453125,-0.8878095746040344,-0.052622951567173004,0.2970232367515564
1783245554126368300,5.8753681640625,-0.8865331411361694,-0.03773774579167366,0.31602516770362854
1783245554136380400,5.88538037109375,-0.876592755317688,-0.023765143007040024,0.32244613766670227
1783245554146391300,5.895391357421875,-0.8628358840942383,0.001819578348658979,0.3309977948665619
1783245554156403200,5.9054033203125,-0.838509202003479,-0.0034219357185065746,0.346015065908432
1783245554166415000,5.9154150390625,-0.8155471682548523,-0.058431126177310944,0.37099820375442505
1783245554176427300,5.92542724609375,-0.7900786995887756,-0.13570502400398254,0.40047821402549744
1783245554186438400,5.9354384765625,-0.7703356146812439,-0.2334696650505066,0.42078453302383423
1783245554196450300,5.9454501953125,-0.7695748805999756,-0.27133241295814514,0.41675037145614624
1783245554206462500,5.95546240234375,-0.7836800217628479,-0.24160726368427277,0.38495197892189026
1783245554216474400,5.965474365234375,-0.8085589408874512,-0.15230493247509003,0.32610443234443665
1783245554226485200,5.9754853515625,-0.8188707232475281,-0.0014171507209539413,0.25071221590042114
1783245554236497400,5.985497314453125,-0.8026224970817566,0.17614267766475677,0.17092536389827728
1783245554246509300,5.99550927734375,-0.7545177936553955,0.31461799144744873,0.08984994888305664
1783245554256521200,6.005521240234375,-0.6821521520614624,0.3429252505302429,0.01911572925746441
1783245554266532400,6.015532470703125,-0.6004138588905334,0.2504288852214813,-0.0366671085357666
1783245554276544300,6.025544189453125,-0.5257806777954102,0.08751913160085678,-0.06989184767007828
1783245554286556200,6.03555615234375,-0.47358348965644836,-0.10361487418413162,-0.07745655626058578
1783245554296568300,6.045568359375,-0.45129328966140747,-0.28564366698265076,-0.061351753771305084
1783245554306579500,6.055579345703125,-0.44745486974716187,-0.4229051172733307,-0.02324031852185726
1783245554316591400,6.06559130859375,-0.46674829721450806,-0.46206262707710266,0.013735342770814896
1783245554326603500,6.075603515625,-0.49179932475090027,-0.42344385385513306,0.04571617767214775
1783245554336615400,6.085615478515625,-0.5176713466644287,-0.3545313775539398,0.07926694303750992
1783245554346626300,6.095626220703125,-0.5215672850608826,-0.3062248229980469,0.10427003353834152
1783245554356638500,6.105638427734375,-0.5339453220367432,-0.2386903017759323,0.11014357209205627
1783245554366650400,6.115650390625,-0.5518113970756531,-0.16220591962337494,0.11254148185253143
1783245554376661200,6.1256611328125,-0.572805643081665,-0.1407938301563263,0.1156320720911026
1783245554386673200,6.135673095703125,-0.600078821182251,-0.16500888764858246,0.11140245199203491
1783245554396685300,6.145685302734375,-0.6320156455039978,-0.22568324208259583,0.08915592730045319
1783245554406697200,6.155697265625,-0.6691291928291321,-0.2987896800041199,0.0595378540456295
1783245554416708400,6.165708251953125,-0.6957155466079712,-0.34557968378067017,0.027107205241918564
1783245554426720300,6.17572021484375,-0.696760892868042,-0.37177932262420654,0.0018362058326601982
1783245554436732400,6.185732421875,-0.6821826100349426,-0.3666656017303467,-0.016486674547195435
1783245554446744300,6.195744384765625,-0.6527725458145142,-0.34190085530281067,-0.03162914142012596
1783245554456755500,6.20575537109375,-0.6031184196472168,-0.2812381088733673,-0.05940624326467514
1783245554466767400,6.215767333984375,-0.5454686880111694,-0.2284926027059555,-0.09994994103908539
1783245554476779300,6.225779296875,-0.5035807490348816,-0.18344610929489136,-0.15265902876853943
1783245554486791400,6.23579150390625,-0.4883807599544525,-0.15200269222259521,-0.2079063057899475
1783245554496802300,6.24580224609375,-0.4876352548599243,-0.13313190639019012,-0.253202885389328
1783245554506814200,6.255814208984375,-0.4867628216743469,-0.1090172529220581,-0.28604578971862793
1783245554516826400,6.265826416015625,-0.4868224561214447,-0.0544474832713604,-0.31274768710136414
1783245554526838300,6.27583837890625,-0.4937573969364166,0.01136033795773983,-0.32909244298934937
1783245554536849200,6.28584912109375,-0.49969878792762756,0.05305483937263489,-0.32089313864707947
1783245554546861300,6.295861328125,-0.4896155297756195,0.05613851174712181,-0.2928473651409149
1783245554556873200,6.305873291015625,-0.47126948833465576,-0.020357903093099594,-0.2552199363708496
1783245554566885000,6.315885009765625,-0.45554351806640625,-0.09214287996292114,-0.2261480838060379
1783245554576896500,6.325896484375,-0.4590340256690979,-0.16990835964679718,-0.2173532098531723
1783245554586908400,6.335908447265625,-0.48334550857543945,-0.2140478491783142,-0.22747375071048737
1783245554596920300,6.34592041015625,-0.5078097581863403,-0.2192428559064865,-0.2485654503107071
1783245554606932500,6.355932373046875,-0.5444348454475403,-0.2351142317056656,-0.25816136598587036
1783245554616943400,6.365943359375,-0.5946902632713318,-0.27729693055152893,-0.25985726714134216
1783245554626955300,6.375955322265625,-0.6647092700004578,-0.3151952922344208,-0.2598303556442261
1783245554636967400,6.385967529296875,-0.7468275427818298,-0.32494843006134033,-0.2558425962924957
1783245554646978300,6.395978271484375,-0.8238040804862976,-0.3121548593044281,-0.26052576303482056
1783245554656990200,6.405990234375,-0.8999260067939758,-0.29871854186058044,-0.2786129117012024
1783245554667002000,6.416002197265625,-0.9591429829597473,-0.28405091166496277,-0.3029845654964447
1783245554677014300,6.42601416015625,-1.0049874782562256,-0.24852913618087769,-0.33043161034584045
1783245554687025400,6.436025390625,-1.0277119874954224,-0.13698291778564453,-0.35666003823280334
1783245554697037300,6.446037353515625,-1.009177803993225,-0.07835391908884048,-0.41336265206336975
1783245554707049500,6.456049560546875,-0.9530276656150818,-0.0013552706222981215,-0.5059642195701599
1783245554717061400,6.466061279296875,-0.8946215510368347,0.14184434711933136,-0.602238118648529
1783245554727072300,6.476072265625,-0.8381364345550537,0.189503476023674,-0.6956378221511841
1783245554737084400,6.48608447265625,-0.7584696412086487,0.19325129687786102,-0.769283652305603
1783245554747096300,6.496096435546875,-0.6818696856498718,0.18178239464759827,-0.8086766004562378
1783245554757108200,6.506108154296875,-0.6374799609184265,0.14890743792057037,-0.8031399846076965
1783245554767119400,6.516119384765625,-0.6187880039215088,0.08643873780965805,-0.7641438245773315
1783245554777131300,6.52613134765625,-0.6277945637702942,0.015367730520665646,-0.6995107531547546
1783245554787143200,6.53614306640625,-0.6685057878494263,-0.025767721235752106,-0.5972427129745483
1783245554797155300,6.5461552734375,-0.7271612882614136,-0.03338217735290527,-0.4664570391178131
1783245554807166500,6.55616650390625,-0.7886376976966858,-0.012654529884457588,-0.3441244661808014
1783245554817178400,6.566178466796875,-0.8445842862129211,0.019598718732595444,-0.2303335815668106
1783245554827190300,6.576190185546875,-0.886969804763794,0.062262825667858124,-0.11016190052032471
1783245554837202400,6.586202392578125,-0.8543452024459839,0.07594715803861618,0.1187383234500885
1783245554847213300,6.59621337890625,-0.798301100730896,0.09036524593830109,0.36933964490890503
1783245554857225200,6.60622509765625,-0.7701964974403381,0.10768445581197739,0.5952452421188354
1783245554867237400,6.6162373046875,-0.7424690127372742,0.12600593268871307,0.7505546808242798
1783245554877249300,6.626249267578125,-0.7403719425201416,0.18926501274108887,0.8665202260017395
1783245554887260200,6.63626025390625,-0.7689108848571777,0.3327185809612274,0.8698949813842773
1783245554897272300,6.646272216796875,-0.8230067491531372,0.46857619285583496,0.7726635932922363
1783245554907284200,6.6562841796875,-0.9034936428070068,0.5138877630233765,0.6292587518692017
1783245554917295000,6.666295166015625,-1.0034860372543335,0.4983632564544678,0.48730191588401794
1783245554927307300,6.676307373046875,-1.0822556018829346,0.4287008047103882,0.3757423460483551
1783245554937319200,6.686319091796875,-1.1110553741455078,0.3189321756362915,0.30309441685676575
1783245554947331000,6.6963310546875,-1.074196696281433,0.17598938941955566,0.2468622773885727
1783245554957342500,6.706342529296875,-0.9910633563995361,0.04278270900249481,0.21067462861537933
1783245554967354400,6.716354248046875,-0.884011447429657,-0.0687672570347786,0.1915254443883896
1783245554977366300,6.7263662109375,-0.7856665253639221,-0.13865938782691956,0.20134738087654114
1783245554987378400,6.73637841796875,-0.7284836173057556,-0.13947005569934845,0.24125830829143524
1783245554997389300,6.746389404296875,-0.7062095999717712,-0.039010144770145416,0.281380295753479
1783245555007401200,6.756401123046875,-0.718846321105957,0.10790899395942688,0.3302437365055084
1783245555017413400,6.766413330078125,-0.7766940593719482,0.22256334125995636,0.41604065895080566
1783245555027425300,6.77642529296875,-0.8638761043548584,0.31043726205825806,0.5535542964935303
1783245555037436200,6.786436279296875,-0.9655247330665588,0.3284546732902527,0.7017062902450562
1783245555047448000,6.796447998046875,-1.082574486732483,0.27315255999565125,0.8408237099647522
1783245555057460200,6.806460205078125,-1.199002981185913,0.16701364517211914,0.932094156742096
1783245555067472100,6.81647216796875,-1.2846758365631104,0.07800094783306122,0.9279694557189941
1783245555077483300,6.826483154296875,-1.3284648656845093,-0.000557740218937397,0.8077976703643799
1783245555087495400,6.836495361328125,-1.3092679977416992,-0.07116985321044922,0.6068451404571533
1783245555097507300,6.84650732421875,-1.2419102191925049,-0.13039161264896393,0.3671473264694214
1783245555107519500,6.85651953125,-1.1272059679031372,-0.1583167165517807,0.1309790164232254
1783245555117530400,6.8665302734375,-0.9822120666503906,-0.20718145370483398,-0.05516323447227478
1783245555127542300,6.876542236328125,-0.8175786137580872,-0.279018372297287,-0.1750827133655548
1783245555137554200,6.88655419921875,-0.6488962173461914,-0.3700390160083771,-0.22410205006599426
1783245555147566300,6.89656640625,-0.49923455715179443,-0.4462094306945801,-0.2012563943862915
1783245555157577200,6.9065771484375,-0.3978537619113922,-0.49397316575050354,-0.1386934071779251
1783245555167589000,6.916589111328125,-0.35003429651260376,-0.5425202250480652,-0.05116196721792221
1783245555177601300,6.926601318359375,-0.3405251204967499,-0.5856038331985474,0.04147070646286011
1783245555187613200,6.93661328125,-0.3448037803173065,-0.6172693371772766,0.11965765058994293
1783245555197624300,6.946624267578125,-0.35866498947143555,-0.6639763712882996,0.17962731420993805
1783245555207636500,6.956636474609375,-0.40331366658210754,-0.6845876574516296,0.21177220344543457
1783245555217648400,6.9666484375,-0.4727654457092285,-0.6850007772445679,0.21570688486099243
1783245555227659300,6.9766591796875,-0.5618476271629333,-0.6519054174423218,0.19185908138751984
1783245555237671400,6.98667138671875,-0.6508642435073853,-0.5922528505325317,0.14748574793338776
1783245555247683300,6.996683349609375,-0.7242103815078735,-0.507351815700531,0.08478987962007523
1783245555257695200,7.0066953125,-0.7766276001930237,-0.39351922273635864,0.00940737221390009
1783245555267706400,7.016706298828125,-0.8120633363723755,-0.25690707564353943,-0.07184114307165146
1783245555277718300,7.02671826171875,-0.8384698033332825,-0.11738236248493195,-0.13102303445339203
1783245555287730200,7.036730224609375,-0.8512948155403137,0.019084136933088303,-0.15254643559455872
1783245555297742300,7.046742431640625,-0.8439245820045471,0.11916918307542801,-0.15789680182933807
1783245555307753200,7.056753173828125,-0.8179520964622498,0.18771041929721832,-0.18200106918811798
1783245555317765000,7.06676513671875,-0.7864792943000793,0.24115104973316193,-0.22825166583061218
1783245555327777300,7.07677734375,-0.7516645789146423,0.23790839314460754,-0.28478071093559265
1783245555337789200,7.0867890625,-0.7102036476135254,0.1664193868637085,-0.3297003209590912
1783245555347800300,7.09680029296875,-0.6604653596878052,0.023447316139936447,-0.3375782072544098
1783245555357812200,7.106812255859375,-0.6138463616371155,-0.1389094889163971,-0.3089401125907898
1783245555367824400,7.116824462890625,-0.5842106938362122,-0.2911323010921478,-0.2529199719429016
1783245555377836300,7.126836181640625,-0.5729125738143921,-0.3746676743030548,-0.19070488214492798
1783245555387847200,7.13684716796875,-0.570381224155426,-0.3677578270435333,-0.1350506842136383
1783245555397859300,7.146859375,-0.5666480660438538,-0.3453257381916046,-0.0797627866268158
1783245555407871200,7.156871337890625,-0.544660210609436,-0.32589372992515564,-0.0110566895455122
1783245555417883100,7.166883056640625,-0.5093697309494019,-0.3013347089290619,0.05367130786180496
1783245555427894300,7.176894287109375,-0.47351133823394775,-0.26959407329559326,0.09298276156187057
1783245555437906200,7.18690625,-0.45010295510292053,-0.2573978304862976,0.09335792809724808
1783245555447918000,7.19691796875,-0.43735092878341675,-0.2223636955022812,0.06239842250943184
1783245555457930200,7.20693017578125,-0.4366716146469116,-0.16355445981025696,0.015589102171361446
1783245555467941400,7.21694140625,-0.4352966248989105,-0.08439120650291443,-0.040771111845970154
1783245555477953300,7.226953369140625,-0.4363808035850525,-0.01798238977789879,-0.09715868532657623
1783245555487965400,7.23696533203125,-0.4422200620174408,0.04188493639230728,-0.14308355748653412
1783245555497977300,7.246977294921875,-0.4491633474826813,0.06346815079450607,-0.18584108352661133
1783245555507988200,7.25698828125,-0.4589739143848419,0.04504812881350517,-0.23514658212661743
1783245555518000400,7.26700048828125,-0.4764288365840912,0.01951870508491993,-0.2780590057373047
1783245555528012300,7.27701220703125,-0.4827021658420563,-0.01755356229841709,-0.29439643025398254
1783245555538024200,7.287024169921875,-0.47141361236572266,-0.05407318100333214,-0.27584129571914673
1783245555548035300,7.297035400390625,-0.4370500445365906,-0.06262511759996414,-0.23073585331439972
1783245555558047200,7.307047119140625,-0.40976768732070923,-0.06645223498344421,-0.17108137905597687
1783245555568059100,7.31705908203125,-0.3992748260498047,-0.04604923352599144,-0.11670921742916107
1783245555578070300,7.3270703125,-0.40050622820854187,-0.0019736893009394407,-0.07471209764480591
1783245555588082400,7.33708251953125,-0.41991081833839417,0.05856235697865486,-0.040983427315950394
1783245555598094300,7.34709423828125,-0.43467727303504944,0.1253405213356018,-0.02075318992137909
1783245555608106500,7.3571064453125,-0.4414403736591339,0.15662121772766113,-0.011146368458867073
1783245555618117400,7.367117431640625,-0.43261662125587463,0.1421940177679062,-0.013267047703266144
1783245555628129300,7.37712939453125,-0.4115326404571533,0.08403298258781433,-0.0196173544973135
1783245555638141400,7.387141357421875,-0.3800293207168579,0.014343884773552418,-0.025274107232689857
1783245555648153300,7.3971533203125,-0.346097469329834,-0.03756139054894447,-0.022860750555992126
1783245555658164200,7.407164306640625,-0.31167376041412354,-0.04609761759638786,-0.006373455282300711
1783245555668176100,7.417176025390625,-0.28073662519454956,-0.017504319548606873,0.002456255257129669
1783245555678188300,7.427188232421875,-0.25242576003074646,0.037164006382226944,0.041838619858026505
1783245555688200200,7.4372001953125,-0.21304960548877716,0.1996152400970459,0.13407108187675476
1783245555698211000,7.447211181640625,-0.1648464947938919,0.4380261301994324,0.1652040183544159
1783245555708223200,7.45722314453125,-0.13406488299369812,0.5863140821456909,0.13667011260986328
1783245555718235100,7.467235107421875,-0.11869018524885178,0.5932649374008179,0.04677245765924454
1783245555728247000,7.4772470703125,-0.10570008307695389,0.5086590051651001,-0.08885275572538376
1783245555738258400,7.487258544921875,-0.07060649991035461,0.3868109881877899,-0.2331722527742386
1783245555748270300,7.497270263671875,-0.015342174097895622,0.293595552444458,-0.3325507640838623
1783245555758282200,7.5072822265625,0.06638006120920181,0.21914660930633545,-0.3233666718006134
1783245555768294400,7.51729443359375,0.1774733066558838,0.19064278900623322,-0.23189133405685425
