time,seconds_elapsed,z,y,x
1783245526164417500,0.06741748046875,-0.6729542063772678,0.8062330882713198,0.8886373768441379
1783245526174428400,0.077428466796875,-0.12823533476889132,0.7581422804497182,0.8807185665436088
1783245526184440600,0.087440673828125,0.3151099055111408,0.7491355287820101,0.8816884344890713
1783245526194452500,0.097452392578125,0.597128273281455,0.7116166761182248,0.8839414741128683
1783245526204463400,0.10746337890625,0.7093851176738739,0.6087022450886667,0.8219242130737752
1783245526214475500,0.1174755859375,0.5597141961663961,0.5243799940653145,0.7883014910656958
1783245526224487400,0.1274873046875,0.30106618258953094,0.5483456838034093,0.8646873230665921
1783245526234498600,0.13749853515625,0.21419570838809013,0.6568805850632489,0.9714591601766646
1783245526244510700,0.1475107421875,0.13704992486536502,0.7173436754629016,1.0829542264163494
1783245526254522600,0.157522705078125,0.18342472254931927,0.6939644073106348,1.1531123430088162
1783245526264533500,0.167533447265625,0.31231179922521113,0.6018263679698109,1.157845728206262
1783245526274545400,0.17754541015625,0.4980138190567493,0.5714800372838974,1.1141143577031791
1783245526284557600,0.1875576171875,0.5468944620817899,0.5574276926644146,1.0833996320962904
1783245526294568400,0.197568359375,0.6120768360882998,0.5198804906889796,1.116927807688713
1783245526304580400,0.207580322265625,0.8364040623903274,0.5204264341339468,1.1481681646049022
1783245526314592500,0.217592529296875,0.9003343905091286,0.4332632605962455,1.1271015573091805
1783245526324603600,0.227603759765625,0.8594839092046022,0.292615749630332,1.036305287966132
1783245526334615600,0.237615478515625,0.933791838952899,0.2982167845077813,1.0414845172349363
1783245526344627700,0.247627685546875,0.9666858082950115,0.39891836179345846,1.1861097727254033
1783245526354639600,0.2576396484375,0.7771119154661893,0.46144174572378394,1.339487585926801
1783245526364650500,0.267650390625,0.5322077650815248,0.39234102922976016,1.3882345195695758
1783245526374662700,0.27766259765625,0.3712123164832592,0.31176497899740935,1.3413960498966275
1783245526384674600,0.287674560546875,0.13454875569939612,0.24662308313176035,1.2927082990951835
1783245526394685400,0.297685546875,-0.09714636902213096,0.1763426553338766,1.2213171335764228
1783245526404697300,0.307697265625,-0.2569949856728315,0.15856398366764188,1.1306116112567484
1783245526414709500,0.31770947265625,-0.3380272552400827,0.21520883095338939,1.0847689476881175
1783245526424720600,0.327720703125,-0.2833563383758068,0.34569238304048777,1.021921811696142
1783245526434732500,0.337732666015625,-0.25542145274579525,0.4351858992218971,0.8778114469252526
1783245526444744700,0.34774462890625,-0.25151158582568167,0.5385867985941469,0.7239339405734092
1783245526454755600,0.357755615234375,-0.3688759824901819,0.5944621228121221,0.4880233170486986
1783245526464767500,0.367767578125,-0.4810094927638769,0.6111021458372473,0.33660102182924745
1783245526474779600,0.377779541015625,-0.5556441702485084,0.655623278478533,0.27786552240718154
1783245526484790500,0.38779052734375,-0.6802244896411895,0.6382631244853139,0.21020751553475855
1783245526494802400,0.397802490234375,-0.7249854223877191,0.5219841849699616,0.18527436900399624
1783245526504814600,0.407814697265625,-0.8058493496507406,0.3725149235144257,0.22180278585832564
1783245526514825500,0.417825439453125,-0.8408394144892692,0.29912337795868515,0.2423075214875862
1783245526524837400,0.42783740234375,-0.7853817311614751,0.42448330342173574,0.402338180174306
1783245526534849500,0.437849609375,-0.7495271584481,0.7794578940704464,0.7523166430361569
1783245526544860700,0.447860595703125,-0.6554945375323296,1.207435615479201,1.1364157674908637
1783245526554872600,0.45787255859375,-0.5473474665462971,1.511906199684739,1.3683207355707883
1783245526564884500,0.467884521484375,-0.508883588117361,1.6160568945109843,1.4523437113866209
1783245526574895600,0.4778955078125,-0.5421493133813142,1.4674597397148608,1.4415066755518315
1783245526584907500,0.487907470703125,-0.6682640027344227,1.1467604897640644,1.3722966534644365
1783245526594919400,0.49791943359375,-0.8902771068751811,0.852257465082407,1.3418439397946
1783245526604930600,0.5079306640625,-1.048810549274087,0.696613314384222,1.2780202869206667
1783245526614942500,0.5179423828125,-1.109966151982546,0.618189766010642,1.1716061041418462
1783245526624954400,0.527954345703125,-0.9740437698423862,0.6614337183229625,1.0207463381759823
1783245526634965500,0.537965576171875,-0.6968944694131612,0.7287358609624207,0.775068426939845
1783245526644977700,0.547977783203125,-0.38302433483004567,0.8892406034342945,0.4962166334416717
1783245526654989600,0.557989501953125,-0.0013794716596603393,1.032064581656456,0.18424298012964427
1783245526665000400,0.56800048828125,0.3811071030318737,1.0572897699363528,-0.11043839679360389
1783245526675012600,0.5780126953125,0.7454507027894258,1.1247231377400457,-0.1960215345982462
1783245526685024500,0.5880244140625,0.8777250838160514,1.1633293472491204,-0.3422253279844299
1783245526695036700,0.59803662109375,1.000469419953227,1.095817507381737,-0.5304318049175665
1783245526705047600,0.608047607421875,1.1008803437292576,1.0274961777623741,-0.6800307206347584
1783245526715059500,0.6180595703125,1.0330991854012013,1.0789163492023943,-0.7505784210667014
1783245526725071400,0.6280712890625,0.8623585878580808,1.142447960327193,-0.7312164987970143
1783245526735082800,0.638082763671875,0.6376759722471237,1.1228471147350967,-0.6120904992874712
1783245526745094700,0.6480947265625,0.464412578228116,1.1956247661761938,-0.3096085681485012
1783245526755106600,0.6581064453125,0.3234820125371218,1.2569254764437674,0.037323987678810955
1783245526765117700,0.66811767578125,0.17546937963068485,1.2442753998376428,0.3497412200398743
1783245526775129600,0.678129638671875,0.05426759676039219,1.1681143895685673,0.6614273616474121
1783245526785142000,0.68814208984375,-0.0735077192813158,1.0265360274933277,0.9384375458668917
1783245526795153200,0.698153076171875,-0.2642600082397461,0.8069858063347637,1.1229437069773673
1783245526805165000,0.7081650390625,-0.46391398105621334,0.6118497493341565,1.2638184508278965
1783245526815177000,0.718177001953125,-0.5838479359477758,0.5290048773869872,1.4321777061924337
1783245526825187800,0.728187744140625,-0.6909960590243339,0.5012951788149774,1.5781871825829148
1783245526835200000,0.738199951171875,-0.761733729070425,0.5079270180448889,1.6988585118383168
1783245526845212000,0.7482119140625,-0.7676894226044416,0.5555975546278059,1.7734654245331882
1783245526855223000,0.75822314453125,-0.7449976983249187,0.6369891590267419,1.8198232710823417
1783245526865235200,0.768235107421875,-0.7146954990416765,0.7312476976528763,1.7711664999410508
1783245526875247000,0.7782470703125,-0.6309405265122652,0.7989807790555059,1.6185580636769532
1783245526885258000,0.788258056640625,-0.49668578532338137,0.8540034319669008,1.3743657148234545
1783245526895270100,0.798270263671875,-0.4211170418590307,0.8770625282540917,1.0664349802266806
1783245526905282000,0.808281982421875,-0.3856125977575779,0.8930662992022931,0.7942571115344762
1783245526915293000,0.81829296875,-0.2682657367497682,0.8682062909729779,0.5597775437261909
1783245526925305000,0.82830517578125,-0.07641980733573436,0.8523075878344476,0.4303301297537982
1783245526935317000,0.83831689453125,0.05631342337429523,0.844720932097733,0.3620142800271511
1783245526945327900,0.848327880859375,0.22702947099804877,0.7744327593848109,0.2802665556669235
1783245526955340000,0.858340087890625,0.3722422440528869,0.6445550642363727,0.148785516975075
1783245526965352000,0.86835205078125,0.4639800320297479,0.5156121657200158,0.022692601062357425
1783245526975364000,0.878364013671875,0.6268143864929676,0.4593683004505932,-0.03390256186276674
1783245526985375000,0.888375,0.7680670237451791,0.4878608199633658,-0.020436858024820686
1783245526995387100,0.89838720703125,0.8622796774029732,0.5372537964247167,0.07137428744919598
1783245527005399000,0.90839892578125,1.0072884523183108,0.5534776398643851,0.19829693218432365
1783245527015410000,0.918409912109375,1.032291960671544,0.45067222216725344,0.26577377380356193
1783245527025422000,0.928422119140625,1.0221347237944602,0.2675881297491491,0.29524719411246475
1783245527035434000,0.93843408203125,0.9277139803439378,0.12523323034346104,0.31598705367185176
1783245527045444900,0.94844482421875,0.7542834130644798,0.11488500093892216,0.39795382761023934
1783245527055457000,0.95845703125,0.5825853686660528,0.11349164688438176,0.4433717629607767
1783245527065469000,0.968468994140625,0.4935884038299322,0.050175359010696405,0.4160389348771423
1783245527075480000,0.97847998046875,0.40265141084194184,-0.05991758534610271,0.41631022609919305
1783245527085492200,0.9884921875,0.3489876251935959,-0.16252777273207902,0.36263248499073086
1783245527095504100,0.998504150390625,0.3428162430822849,-0.24855244375914334,0.2524794079445302
1783245527105515000,1.008514892578125,0.36610593325495716,-0.29766178097352386,0.11499964029453694
1783245527115527000,1.01852685546875,0.35517595843970773,-0.3600459025636315,0.003838482184335589
1783245527125539000,1.0285390625,0.3969704425960779,-0.38219299857243894,-0.046723464991152285
1783245527135550000,1.038550048828125,0.5165495927006006,-0.371017816824466,-0.1041142352733761
1783245527145561900,1.048561767578125,0.6389665965795517,-0.41214989154934883,-0.18460662581026552
1783245527155574000,1.058573974609375,0.7873428021013736,-0.5223601786755026,-0.3017767420116812
1783245527165585200,1.068585205078125,0.8835147731333971,-0.6604530367225409,-0.4452134453047067
1783245527175597000,1.07859716796875,0.9059680124819278,-0.796545806993544,-0.5348488541748374
1783245527185609200,1.088609130859375,0.8345756779193878,-0.8849619032017886,-0.5490840810805558
1783245527195620000,1.0986201171875,0.656525049623847,-0.9513960308350622,-0.4599563294716179
1783245527205632000,1.108632080078125,0.426838342115283,-1.0121122192129492,-0.3412478247217834
1783245527215644200,1.11864404296875,0.22777415188550948,-1.1404768794499336,-0.28749972179085015
1783245527225655000,1.128655029296875,0.10107084898948669,-1.302055827024579,-0.2764461936611682
1783245527235667000,1.1386669921875,0.005083002352714539,-1.331304425601661,-0.23827231115475295
1783245527245679000,1.14867919921875,-0.04267243603467941,-1.3237760759234427,-0.1567995312783867
1783245527255691000,1.15869091796875,0.024765607944130897,-1.3281596978351473,-0.10286913058310747
1783245527265702000,1.168701904296875,0.07801321400702,-1.3593708286568522,-0.13274506727829574
1783245527275714000,1.178714111328125,0.11964227846860885,-1.3557988153889775,-0.1608797132641077
1783245527285726000,1.188725830078125,0.15527005668878555,-1.3043963988013565,-0.1227851796042174
1783245527295737000,1.198737060546875,0.17138240257799625,-1.2293721374772488,-0.08268558973222971
1783245527305749000,1.2087490234375,0.10428630390465259,-1.19267132319808,-0.05655578076280653
1783245527315761200,1.21876123046875,0.011267828467488288,-1.1551426797926425,0.0009589081600308417
1783245527325772000,1.22877197265625,-0.1525280645042658,-1.0930433664932846,0.15274915990903973
1783245527335784000,1.238783935546875,-0.3346896352499723,-0.9883759543165564,0.3512470945581794
1783245527345796000,1.248796142578125,-0.470194084239006,-0.8806840797521174,0.4910765671394765
1783245527355807000,1.258806884765625,-0.5853448965072632,-0.7891337771713733,0.5816586822751909
1783245527365819000,1.26881884765625,-0.6093675771296024,-0.6896623262025415,0.6694499245833605
1783245527375831000,1.2788310546875,-0.6652706661373377,-0.6122567226998508,0.738483640255779
1783245527385842200,1.28884228515625,-0.6645359221220016,-0.519829345023632,0.7464867678388952
1783245527395854000,1.29885400390625,-0.5142834013342857,-0.3258428964495659,0.8202389634005725
1783245527405866200,1.3088662109375,-0.32003917860686776,-0.0520034512206912,0.9069634532600641
1783245527415877000,1.318877197265625,-0.1487456233561039,0.16404577607959508,0.8682051219291984
1783245527425889000,1.328888916015625,-0.09784662624597548,0.21087635470703242,0.6661221684001386
1783245527435901000,1.33890087890625,-0.1585527316212654,0.1175572888880968,0.38349078329801556
1783245527445913000,1.3489130859375,-0.2963490909397602,-0.06184972245246172,0.10560516795087604
1783245527455924000,1.358924072265625,-0.5306996986061334,-0.18744827897697686,-0.09388974184636026
1783245527465936000,1.368935791015625,-0.734754536730051,-0.2213089013941586,-0.15861892872527242
1783245527475948000,1.378947998046875,-0.7091191602140665,-0.09677709731832146,-0.11895904544480145
1783245527485959200,1.388959228515625,-0.4556868354588747,0.10765782616436481,0.053414706258103246
1783245527495971000,1.39897119140625,-0.21725334239304064,0.1986003721103072,0.20165263582039622
1783245527505983200,1.408983154296875,-0.030228549525141715,0.2552360131762922,0.30721626618448644
1783245527515994000,1.418994140625,0.276065596845746,0.26965236880257726,0.4997711475854739
1783245527526006000,1.429006103515625,0.5340449173808097,0.2591895731076598,0.6131454882331192
1783245527536018200,1.43901806640625,0.6487579227536916,0.17658011735156176,0.5299507799349725
1783245527546029000,1.449029052734375,0.6424205364257097,0.029081571447104215,0.34052809561248865
1783245527556041000,1.459041015625,0.47692017762362954,-0.17607246009036898,0.10999039729777722
1783245527566052900,1.469052978515625,0.11615618991851806,-0.36659064803197977,-0.09837134423982351
1783245527576064000,1.47906396484375,-0.29449907915890217,-0.3965966408476233,-0.18609167673625052
1783245527586076000,1.489075927734375,-0.5588865131705999,-0.22789763213470576,-0.08336579054873436
1783245527596087800,1.499087890625,-0.6726964322239161,0.05338058479279279,0.23383721478413788
1783245527606099200,1.50909912109375,-0.8006991272807121,0.38257381458356976,0.5522982573540881
1783245527616111000,1.519111083984375,-0.9030570934712886,0.5944086390592157,0.7078145804215222
1783245527626123000,1.529123046875,-0.8365724046945572,0.6583689239248633,0.674181483149901
1783245527636134100,1.539134033203125,-0.6206915196985006,0.6674458182193338,0.5705924042617901
1783245527646146000,1.54914599609375,-0.3744289404422044,0.6921509281478821,0.491505788869597
1783245527656158000,1.559157958984375,-0.05289104771018028,0.8029911837406456,0.44730625286549325
1783245527666168800,1.5691689453125,0.190685653463006,0.884864288046211,0.4579713296668604
1783245527676181000,1.579180908203125,0.3346013724446297,0.8277817799955606,0.39400026767887175
1783245527686193000,1.58919287109375,0.3867559225738048,0.67772931182459,0.2879037360144779
1783245527696205000,1.599205078125,0.3203045515447855,0.5857241050831973,0.19385799988880753
1783245527706216200,1.60921630859375,0.043263972187042234,0.5243368855759502,0.2196652258403599
1783245527716228000,1.61922802734375,-0.33535189855098724,0.4813330256298184,0.31918102740757165
1783245527726240000,1.629239990234375,-0.6265513516426086,0.41628260743990536,0.40992925635781136
1783245527736251100,1.639251220703125,-0.8535504275023936,0.35172450281158085,0.5240499949259683
1783245527746263000,1.649262939453125,-0.9397083695203066,0.21110402598306535,0.5119511589944362
1783245527756275000,1.65927490234375,-0.9210007464408874,0.0723532885491848,0.4836950055208057
1783245527766286000,1.6692861328125,-0.827991623353958,0.046166269499808545,0.5231508175965398
1783245527776298000,1.679298095703125,-0.5509235714673996,0.1011228714376688,0.6190869340460747
1783245527786310400,1.689310302734375,-0.15384674588739872,0.13809709583073854,0.6816453892897814
1783245527796321300,1.6993212890625,0.2892868974685669,0.17160598220080137,0.6377141123004257
1783245527806333400,1.70933349609375,0.6936053647398949,0.18598463616520167,0.5319379351641983
1783245527816345300,1.719345458984375,1.016874026787281,0.2153762964747846,0.5116065102752297
1783245527826356500,1.7293564453125,1.2622031245857477,0.22488982862085102,0.5449479311238974
1783245527836368600,1.73936865234375,1.3529589157879351,0.16575301838889717,0.6407396706666797
1783245527846380500,1.749380615234375,1.2865572291195393,0.11250526619553565,0.8400448300454765
1783245527856391400,1.759391357421875,1.1354951455146074,-0.0008401040859520435,1.0230576107930391
1783245527866403300,1.7694033203125,1.081876952573657,-0.14231310609057546,1.1570650261573492
1783245527876415500,1.77941552734375,1.0186468816787004,-0.19854864192306995,1.2537303336642682
1783245527886426400,1.78942626953125,0.8554308344215155,-0.2590836285151541,1.2566766162492333
1783245527896438300,1.799438232421875,0.7314607558816671,-0.3478556985542178,1.1103868616126478
1783245527906450400,1.809450439453125,0.6923147404074669,-0.4305312052838504,0.9076786157920956
1783245527916462300,1.81946240234375,0.5822866779804229,-0.42557855131253597,0.7337823306970298
1783245527926473500,1.829473388671875,0.480640074929595,-0.39350598135590553,0.5535541391666978
1783245527936485600,1.839485595703125,0.33081834677457805,-0.3329229178383946,0.37990240341722964
1783245527946497500,1.84949755859375,0.08750468045175075,-0.327905381937325,0.21963755238214505
1783245527956508400,1.85950830078125,-0.15846914499104023,-0.3581834696926176,0.029284857200551778
1783245527966520600,1.8695205078125,-0.36913960186243056,-0.41082974886149165,-0.09774212469188497
1783245527976532500,1.879532470703125,-0.46678865970969197,-0.444620228651911,-0.12677715358352287
1783245527986543400,1.88954345703125,-0.5095487740278244,-0.4724533344078809,-0.08874565695617348
1783245527996555500,1.899555419921875,-0.4883768066614866,-0.5027862941555679,-0.0006136566526256501
1783245528006567400,1.9095673828125,-0.43744975250065327,-0.570988819700852,-0.0016469634894281625
1783245528016578600,1.91957861328125,-0.28991935015320774,-0.6501004234038293,-0.08145822162805125
1783245528026590500,1.929590576171875,-0.1870487582653761,-0.7242810735106467,-0.12831294831605627
1783245528036602600,1.9396025390625,-0.08001227886974811,-0.7600640422925352,-0.1451454434396699
1783245528046613500,1.949613525390625,0.052148704910278315,-0.7250562956668436,-0.08543094291761517
1783245528056625400,1.95962548828125,0.13583178124725817,-0.6801407568804919,0.004716799388825893
1783245528066637600,1.969637451171875,0.15639350776076316,-0.6723254069544374,0.036159327813610434
1783245528076648400,1.9796484375,0.14554770409762857,-0.717527507597208,0.05268792635351419
1783245528086660400,1.989660400390625,0.10760229658484459,-0.7238901744969188,0.11516721541378647
1783245528096672500,1.999672607421875,0.034409050080180165,-0.6884326382771134,0.16752956307474523
1783245528106684400,2.009684326171875,0.01150046817958355,-0.603395663113147,0.21612265786267815
1783245528116695300,2.0196953125,-0.047046997857093806,-0.5234408135190606,0.25745094927940515
1783245528126707500,2.02970751953125,-0.09762158531844616,-0.41535774767994876,0.3304530571261421
1783245528136719400,2.03971923828125,-0.12038754387795925,-0.313827318354696,0.3756478147126734
1783245528146730500,2.04973046875,-0.24790508576631545,-0.30586291534677146,0.40126021221186964
1783245528156742400,2.059742431640625,-0.3669160805940628,-0.3204131264857948,0.5320620730005204
1783245528166754600,2.069754638671875,-0.4301017278254032,-0.1956898914910853,0.8199523284789174
1783245528176765400,2.079765380859375,-0.49861003138422966,0.011446692165732382,1.134571381733194
1783245528186777300,2.08977734375,-0.5573007052838802,0.268844413420558,1.3780479104675352
1783245528196789500,2.09978955078125,-0.7018237425088882,0.27504092997312546,1.521586612830311
1783245528206800400,2.10980029296875,-0.853894710895419,0.2226328434742987,1.6019295849591493
1783245528216812300,2.119812255859375,-0.8089023074805736,0.3897321619056165,1.6570600821591912
1783245528226824400,2.129824462890625,-0.6291846227556467,0.6618070816799998,1.6220242784827947
1783245528236835600,2.139835693359375,-0.4655494733035564,0.7913479460895061,1.5017445788934827
1783245528246847500,2.149847412109375,-0.25425065540075303,0.7947858115836978,1.413353763256967
1783245528256859600,2.159859619140625,-0.06276069981753826,0.7636600209578871,1.2961089013189078
1783245528266870500,2.16987060546875,-0.0016068506747484207,0.5181247330628335,1.0315559014819562
1783245528276882400,2.17988232421875,-0.08703414033055305,-0.030745851397514342,0.6620059652529656
1783245528286894600,2.18989453125,-0.234862064319849,-0.5736637379985302,0.3495685668867081
1783245528296906500,2.199906494140625,-0.45678222948014735,-0.9285201090950518,0.17558021959401665
1783245528306917400,2.20991748046875,-0.7610755574226379,-1.1200148869838564,0.04418766290321946
1783245528316929300,2.21992919921875,-0.9499246431082486,-1.1443306322686373,-0.15742138950377702
1783245528326941400,2.22994140625,-1.0098071571409701,-0.9717071435883641,-0.30361557481139895
1783245528336952300,2.239952392578125,-1.002453871768713,-0.6506198441680521,-0.37542343137226997
1783245528346964500,2.249964599609375,-0.8860673802256583,-0.3610753186766058,-0.3917101109150797
1783245528356976400,2.259976318359375,-0.6002852760076522,-0.05788870986700058,-0.41781412785612043
1783245528366987500,2.269987548828125,-0.2622691266834736,0.25429259484633804,-0.38483942142799493
1783245528376999400,2.27999951171875,-0.047266778087615965,0.5206698875010013,-0.28941695358902214
1783245528387011600,2.290011474609375,0.1733580865651369,0.7957146168664098,-0.148226494852826
1783245528397022500,2.3000224609375,0.323626973965764,1.0607431252606212,0.02895611843653023
1783245528407034400,2.310034423828125,0.3414829486519098,1.229529519996047,0.19169702246263623
1783245528417046500,2.320046630859375,0.2334288166463375,1.2177850139275193,0.26900749502778054
1783245528427057400,2.330057373046875,0.0870014071047306,1.0352223150350153,0.26840083437152207
1783245528437069300,2.3400693359375,-0.050478725871443746,0.8011680599667131,0.34246070764288306
1783245528447081500,2.35008154296875,-0.27542437633275985,0.6260305426388979,0.566992516606301
1783245528457092600,2.360092529296875,-0.4842237786352634,0.4717359068535268,0.7913654817461967
1783245528467104500,2.3701044921875,-0.6575538081496953,0.3805160052709281,0.9617889761641621
1783245528477116400,2.380116455078125,-0.7762374707192182,0.4136204024933278,1.0803240240432321
1783245528487128600,2.390128662109375,-0.7724865937530994,0.5335939587429166,1.1106953430399298
1783245528497139500,2.400139404296875,-0.6427905387818813,0.6931221112675965,1.029303154119104
1783245528507151400,2.4101513671875,-0.34644963114857674,0.8667413329869508,0.8244165413461625
1783245528517163500,2.42016357421875,0.05647708950340748,1.0716017884053288,0.6364220266632735
1783245528527174400,2.43017431640625,0.2884761656075716,1.1296630783602595,0.48785745896250005
1783245528537186300,2.440186279296875,0.3134136229872703,1.0083044974930584,0.19177037995979188
1783245528547198500,2.450198486328125,0.2612923906058073,0.8227079838626086,-0.07389847216457128
1783245528557209600,2.460209716796875,0.40069384703338146,0.7314848674096167,-0.20681787309646604
1783245528567221500,2.470221435546875,0.455197590637207,0.6895289090812206,-0.14151318788453937
1783245528577233700,2.480233642578125,0.5928618480086326,0.7233921618469059,-0.017141542806476354
1783245528587244500,2.49024462890625,0.7643021182537079,0.6760910430982708,0.09510901797562837
1783245528597256400,2.50025634765625,0.9403501745551824,0.4975796654231846,0.023329802987352013
1783245528607268400,2.510268310546875,1.1735837608903645,0.30653818425983187,-0.07065605617724359
1783245528617279500,2.520279541015625,1.3024433650374412,0.18094781104177235,-0.17365020137950776
1783245528627291400,2.53029150390625,1.2554969049453735,0.060627779442071913,-0.2250724186461419
1783245528637303300,2.54030322265625,1.2915677507579326,0.021878362070024013,-0.2519363140437752
1783245528647314400,2.550314453125,1.3354928172022102,0.06156710611879825,-0.2023923848044127
1783245528657326300,2.560326416015625,1.2907248701930045,0.051368368187546726,-0.14098426863960922
1783245528667338500,2.57033837890625,1.2327268547326327,-0.05221417136192322,-0.13275471188947557
1783245528677350400,2.580350341796875,1.1504098060518502,-0.20730200335159896,-0.10923479315750301
1783245528687361500,2.590361572265625,1.0393687671899794,-0.3815821731977165,-0.08792465942949056
1783245528697373400,2.60037353515625,0.9926076005369424,-0.5192731724455952,0.042303383526578545
1783245528707385600,2.610385498046875,1.0075333669900894,-0.5969679681532084,0.17838694757781923
1783245528717396500,2.620396484375,0.9609995793521404,-0.664347852203995,0.24907844039462507
1783245528727408400,2.630408447265625,1.0349059425622225,-0.7185008826740086,0.29490605252459645
1783245528737420500,2.640420654296875,1.0732079084277153,-0.8456789634749293,0.22521285003013908
1783245528747431400,2.650431396484375,1.0885896019548178,-0.980243501265347,0.10961407479867338
1783245528757443300,2.660443359375,0.9582774609118699,-1.1623963041827081,-0.07178359890244901
1783245528767455200,2.670455322265625,0.7313298229783773,-1.3677905742168426,-0.27042349930554627
1783245528777466600,2.680466552734375,0.4403156633257866,-1.4536688225105403,-0.39607977736666794
1783245528787477500,2.6904775390625,0.13006722637116908,-1.4572630476102233,-0.40920397429056465
1783245528797489700,2.70048974609375,-0.13213000411987305,-1.3702688008986412,-0.2922168865058571
1783245528807500500,2.71050048828125,-0.420363008621335,-1.2461869325473904,-0.16631985849142072
1783245528817512400,2.720512451171875,-0.7100999879449605,-1.2085597972035407,-0.1300429687127471
1783245528827524400,2.7305244140625,-0.9212059136241674,-1.174866201916337,-0.08547010588422417
1783245528837535700,2.74053564453125,-1.0708815113067627,-1.0364980340592562,0.006450125987455249
1783245528847547600,2.750547607421875,-1.128638119226694,-0.8916226762652396,0.09617189796678721
1783245528857559600,2.7605595703125,-1.1463643300533295,-0.7589461441785097,0.15344985552430151
1783245528867571700,2.77057177734375,-1.114484506189823,-0.6487805729769169,0.20398447630144653
1783245528877582600,2.78058251953125,-1.0108931988120078,-0.45426557048410177,0.36786936273090537
1783245528887594500,2.790594482421875,-0.9872387669801711,-0.3035018853038549,0.527075443694368
1783245528897606700,2.800606689453125,-1.018166404685378,-0.1967418847620487,0.6689371527556329
1783245528907617500,2.810617431640625,-1.0499638109624385,0.1088831301756203,0.9542629645735025
1783245528917629400,2.82062939453125,-0.9998381363123655,0.48334012766852974,1.2960880046613514
1783245528927641600,2.8306416015625,-0.8428583530962467,0.7056980997242033,1.3392799345254898
1783245528937652500,2.840652587890625,-0.6252887843608855,0.752865655221045,1.1844910854823887
1783245528947664400,2.850664306640625,-0.49847559134960173,0.7642319756269454,0.8882376369368284
1783245528957676500,2.860676513671875,-0.3396048798203468,0.922753581457585,0.7986991856351494
1783245528967687700,2.870687744140625,-0.2939870379835367,1.0642680845163761,0.6672973496593535
1783245528977699600,2.880699462890625,-0.4001110787093639,1.1260158078990876,0.4477708016373217
1783245528987711500,2.89071142578125,-0.5260965887248515,1.0405385416217148,0.1839509383805096
1783245528997723600,2.9007236328125,-0.30105741476118564,0.927353622598946,-0.043796910019963976
1783245529007734500,2.910734619140625,-0.04590542660653591,0.9016926732502877,-0.05349792756214738
1783245529017746400,2.920746337890625,0.17506781309247016,1.018450190062821,0.16021744996309278
1783245529027758600,2.930758544921875,0.3695259708315134,1.16808618638739,0.45509792965501544
1783245529037769500,2.94076953125,0.6525427019894122,1.0594506012320517,0.5998983225166797
1783245529047781400,2.950781494140625,0.822982270759344,0.7576517204537987,0.5794849184326827
1783245529057793500,2.96079345703125,0.7912211048394441,0.28250732033103704,0.41407954443767664
1783245529067804700,2.9708046875,0.48754795462191103,-0.15112038966342806,0.2801246629782021
1783245529077816600,2.980816650390625,0.1696370202153921,-0.3544792083472013,0.2562934132747352
1783245529087828700,2.990828857421875,-0.09197744195163249,-0.24923048915117976,0.4263976126104593
1783245529097839600,3.000839599609375,-0.19691314967572687,0.12924144307151436,0.7558449632927775
1783245529107851500,3.0108515625,-0.11390402707755565,0.7014793129853903,1.0834745970286428
1783245529117863400,3.020863525390625,-0.004062427133321762,1.1995584523633123,1.2535581919677554
1783245529127874600,3.03087451171875,0.12425474070012568,1.4511958565257488,1.2069960550181567
1783245529137886500,3.040886474609375,0.2601099028229713,1.5592393210068345,1.0268461894210428
1783245529147898400,3.0508984375,0.3673457041829824,1.5804814309999347,0.8152265420660376
1783245529157909500,3.060909423828125,0.3911901056289673,1.5401421140879392,0.5813184905353933
1783245529167921700,3.070921630859375,0.3113064215749502,1.5074486357539891,0.30923480293266475
1783245529177933600,3.08093359375,0.19590601845979688,1.4171271443158386,0.04234853784255683
1783245529187945700,3.09094580078125,-0.10576339071989059,1.2812540081448853,-0.2558030724745244
1783245529197956600,3.10095654296875,-0.5640338129311799,1.0381234433040023,-0.5581261232573539
1783245529207968500,3.110968505859375,-1.0095195723712445,0.6796198017463088,-0.7921546593625098
1783245529217980700,3.120980712890625,-1.4645231017410754,0.3460115319922566,-0.8396165946960449
1783245529227991600,3.130991455078125,-1.814565204423666,0.2298771155141294,-0.702553883414343
1783245529238003500,3.14100341796875,-1.8483762886106967,0.2234644719928503,-0.4741378534287214
1783245529248015600,3.151015625,-1.60515497674644,0.12369075014181434,-0.28675496783815324
1783245529258026500,3.161026611328125,-1.4207412431597708,0.05827537109702825,-0.08348843054771422
1783245529268038400,3.171038330078125,-1.2109101597219705,0.021210180484876034,0.12541582036875187
1783245529278050300,3.18105029296875,-0.9066203389108181,-0.08397109949812293,0.25262816876545546
1783245529288061700,3.191061767578125,-0.6376900007724762,-0.2780534827273339,0.2906022178508341
1783245529298073600,3.201073486328125,-0.4170382481127977,-0.47783027820587154,0.37599377860613165
1783245529308085500,3.21108544921875,-0.18418635457158086,-0.5523190444137901,0.5520132664002477
1783245529318096600,3.2210966796875,0.013398410755395888,-0.4874687519058585,0.7677443676620721
1783245529328108500,3.231108642578125,0.2573264095842838,-0.37146541446149345,0.8867327853318303
1783245529338120400,3.241120361328125,0.49774961516261096,-0.2961921468123793,0.9282109700806438
1783245529348132600,3.251132568359375,0.6613280659914016,-0.2768931337110698,0.9313269101440906
1783245529358143500,3.2611435546875,0.8478852413475513,-0.28929814951494337,0.9848505566693841
1783245529368155400,3.2711552734375,1.0371329709619284,-0.26757117861434815,1.0055615554604678
1783245529378167600,3.28116748046875,1.0874947924554348,-0.22527575919851658,1.075359387373179
1783245529388178700,3.2911787109375,1.132073354372382,-0.1499419935338199,1.1014366624377667
1783245529398190600,3.301190673828125,1.1119926893740892,-0.1541658948391676,1.0076609388925135
1783245529408202800,3.31120263671875,1.076584106862545,-0.2708934549048543,0.7983956726439296
1783245529418213600,3.321213623046875,0.922846082046628,-0.44046310897246,0.5606778535667807
1783245529428225500,3.3312255859375,0.8055442292243242,-0.5556304339841008,0.38280228957720097
1783245529438237400,3.341237548828125,0.7201742227137088,-0.5744271966516972,0.33055706548988817
1783245529448248600,3.35124853515625,0.5554653065502643,-0.509010429367423,0.3569782951539382
1783245529458260500,3.361260498046875,0.5197106870800257,-0.4100225241318345,0.40359946881439535
1783245529468272400,3.3712724609375,0.5417471623212099,-0.3313194281645119,0.38941447425857184
1783245529478283500,3.381283447265625,0.481941805177927,-0.27188305046409367,0.38646139660663903
1783245529488295700,3.391295654296875,0.4261410075008869,-0.25634046728685494,0.3270258956890553
1783245529498307600,3.4013076171875,0.26177695925235744,-0.32873408784642816,0.26762429704107343
1783245529508319700,3.41131982421875,0.1257926177918911,-0.4135968754872679,0.16541633378043769
1783245529518330600,3.42133056640625,-0.016044541350007057,-0.46765009884461756,0.08507292326018213
1783245529528342500,3.431342529296875,-0.2405576456129551,-0.48488794163241977,0.07051292137950659
1783245529538354700,3.441354736328125,-0.571460163539648,-0.5182008670389652,0.09303710707239807
1783245529548365600,3.451365478515625,-0.8433692252278328,-0.5322507274404168,0.19094861524812876
1783245529558377500,3.46137744140625,-1.060492803761363,-0.5833687741287052,0.26265184239074585
1783245529568389400,3.471389404296875,-1.2384282812446354,-0.6346851198680699,0.2985685936201364
1783245529578400500,3.481400390625,-1.2815016992956398,-0.5795259810954332,0.3855967426013201
1783245529588412400,3.491412353515625,-1.2876795111477375,-0.5573484899483621,0.4250863838814199
1783245529598424300,3.50142431640625,-1.3253864337295294,-0.604715075148642,0.3924278307303786
1783245529608435700,3.511435791015625,-1.2967074517339467,-0.6594442980714142,0.423084980931133
1783245529618447600,3.521447509765625,-1.1528805800795554,-0.6030081251002848,0.6456624409563839
1783245529628459500,3.53145947265625,-0.9757143334031104,-0.380466759301722,1.0394766114786267
1783245529638470700,3.541470703125,-0.7540507733523846,0.0037475159652531143,1.4947440524816513
1783245529648482600,3.551482666015625,-0.5566179837167262,0.36888781905844803,1.8653245008021593
1783245529658494500,3.561494384765625,-0.43284079740047454,0.5057740777947008,1.9516450860358774
1783245529668506600,3.571506591796875,-0.2900713258445263,0.5485568423360586,1.8290259837135672
1783245529678517500,3.581517578125,-0.2429138533502817,0.6643488751173019,1.6904606858491897
1783245529688529400,3.591529296875,-0.3564326805025339,0.7122285244062543,1.4598267606183886
1783245529698541600,3.60154150390625,-0.5076385564923286,0.5752724153041839,1.006071770004928
1783245529708552700,3.611552734375,-0.7171522445440291,0.2900976293295622,0.3741187054492533
1783245529718564600,3.621564697265625,-0.9879805252581835,0.05143266559541225,-0.17539456082880495
1783245529728576500,3.631576416015625,-1.2563339402914047,0.0157538878403604,-0.44704497158080336
1783245529738587600,3.641587646484375,-1.3681138148218392,0.12355784447714685,-0.49246758310645816
1783245529748599600,3.651599609375,-1.3857336426645517,0.22741686288043855,-0.44136809498816726
1783245529758611500,3.661611572265625,-1.2647972327321768,0.2939600038461387,-0.3213008691057563
1783245529768622600,3.67162255859375,-0.9823083248406648,0.41382717711180445,-0.11606646580845117
1783245529778634500,3.681634521484375,-0.6357318524420261,0.6312323490656911,0.19596841617152094
1783245529788647400,3.6916474609375,-0.24922844332456587,0.9640940382361411,0.5986345861911774
1783245529798658300,3.701658203125,0.19172844051420687,1.3231129358395934,1.0389053874619305
1783245529808670500,3.71167041015625,0.5716156463623047,1.6841263682611285,1.3823580287516117
1783245529818682400,3.721682373046875,0.8498153326272964,1.9747678952090442,1.628960653617233
1783245529828694300,3.7316943359375,0.975966846859455,2.1880019189581272,1.805685001745075
1783245529838705400,3.741705322265625,1.0297288321852685,2.3892500290982426,1.9482408305503427
1783245529848717600,3.751717529296875,1.1146481723189354,2.5967145295351743,2.024175776978582
1783245529858729500,3.7617294921875,1.1428683046311139,2.708422800134122,2.0721188468925655
1783245529868740400,3.771740234375,1.1145587404698132,2.7092770788758993,1.9750806144200264
1783245529878752500,3.78175244140625,1.0568126539438962,2.5704750496461988,1.7415763944499194
1783245529888764400,3.791764404296875,0.9531295766294002,2.434147155445069,1.5062285924397407
1783245529898775300,3.801775390625,0.8354325870096683,2.325551610039174,1.3528320745378732
1783245529908787500,3.811787353515625,0.569651068291068,2.21112808913216,1.1987591186791657
1783245529918799400,3.82179931640625,0.25662322975099083,2.063053350774944,1.0595317036442458
1783245529928810200,3.831810302734375,0.05047054256498813,1.9331971368059515,0.9252198254406452
1783245529938822400,3.841822509765625,-0.21943068643212318,1.7847348604358733,0.7913336253032088
1783245529948834300,3.851834228515625,-0.3685404669255018,1.6480075916536152,0.6966109762966632
1783245529958845400,3.861845458984375,-0.44172436107993124,1.5656617552697658,0.6310255744472145
1783245529968857300,3.871857421875,-0.47059798886477944,1.4958387158505617,0.6372124463886022
1783245529978869500,3.881869384765625,-0.3643015141814947,1.4189282023884355,0.6454229331120849
1783245529988881400,3.89188134765625,-0.13870996703207492,1.3196020051091908,0.5462677084855735
1783245529998892300,3.901892333984375,0.10599953756332396,1.2159331024505198,0.43633857638835905
1783245530008904400,3.911904541015625,0.3683388068735599,1.1034935949675737,0.36144963188171386
1783245530018916400,3.921916259765625,0.5830927336663008,1.0181003537118434,0.2895537317112088
1783245530028927200,3.93192724609375,0.753861388260126,0.9120517163097858,0.27432869005054233
1783245530038939400,3.941939453125,0.8437181847959756,0.7915893536299466,0.2839897409085184
1783245530048951300,3.951951416015625,0.8905009787589311,0.6345680693596601,0.29011896437853574
1783245530058962400,3.96196240234375,0.924755715060234,0.5647440070271492,0.3271790404241532
1783245530068974600,3.971974609375,1.0375105721026658,0.5291149136327207,0.3653158057905733
1783245530078986500,3.981986572265625,1.1343670182675123,0.5015101367399096,0.40284868697971105
1783245530088997400,3.991997314453125,1.1916162611871957,0.4853476680986583,0.46802623868063087
1783245530099009500,4.002009521484375,1.2779928143918513,0.46518458551391956,0.4851693158570677
1783245530109021400,4.012021484375,1.2315344300776718,0.5129837169125676,0.5295642648354172
1783245530119033300,4.022033447265625,1.0282605131983757,0.611050707910955,0.5879477724820376
1783245530129044200,4.032044189453125,0.8327034543067217,0.48914720651209354,0.4915369511928409
1783245530139056400,4.042056396484375,0.628490210750699,0.24693448716849087,0.31394371127597986
1783245530149068300,4.052068359375,0.30849019511044024,-0.015394553008675574,0.17670345147028566
1783245530159079400,4.062079345703125,0.158961896944046,-0.1359007548302412,0.12947656700164079
1783245530169091600,4.072091552734375,0.137460259231925,-0.256996885368973,0.05284494354613125
1783245530179103500,4.082103515625,0.17298048542439937,-0.4270252429895103,-0.08095460122115909
1783245530189114400,4.0921142578125,0.29375030661821366,-0.5521463912606239,-0.15987470094002781
1783245530199126500,4.10212646484375,0.4576449837893247,-0.5917442421555519,-0.13637034510336815
1783245530209138400,4.112138427734375,0.6444067418068647,-0.5011231832489371,-0.022040347698703406
1783245530219149300,4.1221494140625,0.741367817389965,-0.3858738790422678,0.1202474778201431
1783245530229161500,4.132161376953125,0.7378454884827137,-0.31664325255826115,0.18430756979845464
1783245530239173400,4.14217333984375,0.6600982319355011,-0.2731348040908575,0.2223513961844146
1783245530249184300,4.152184326171875,0.4853489832729101,-0.23227292460948226,0.2616698456160724
1783245530259196400,4.162196533203125,0.18255378493368624,-0.2310511277295649,0.29670915642380713
1783245530269208300,4.172208251953125,-0.0752682992130518,-0.23336451923847198,0.384998849773407
1783245530279220200,4.18222021484375,-0.3027157033622265,-0.27704730135947464,0.4438393804725259
1783245530289231400,4.1922314453125,-0.560837062716484,-0.40371012611463664,0.4731266305595636
1783245530299243500,4.202243408203125,-0.7749614594340324,-0.5627468418605626,0.5684461494807154
1783245530309255400,4.21225537109375,-0.9202823690384626,-0.6693764940209687,0.6690811643362045
1783245530319266300,4.222266357421875,-1.100034540554881,-0.7385645965375006,0.7541689198393374
1783245530329278500,4.232278564453125,-1.2058785952955484,-0.6762737061887979,0.9239857536010444
1783245530339290400,4.242290283203125,-1.2331032868295908,-0.5378593611024319,1.0530289706867189
1783245530349301200,4.25230126953125,-1.1673714622467755,-0.41093393988832827,1.1186921139474957
1783245530359313400,4.2623134765625,-0.9366571652561425,-0.2242873326830566,1.2226451673097907
1783245530369325300,4.2723251953125,-0.5763537808001041,0.0630526685014367,1.3115895251758396
1783245530379336400,4.28233642578125,-0.27532851474285125,0.34034707648977636,1.2608768444180487
1783245530389348600,4.2923486328125,-0.011410451808571816,0.46864963127598164,1.0242837915871292
1783245530399360500,4.302360595703125,0.2189589772671461,0.5207986284472048,0.7529508492864668
1783245530409371400,4.312371337890625,0.295325593110919,0.5355997456073761,0.4407717365302145
1783245530419383300,4.32238330078125,0.17096505394876002,0.45296866254135965,0.1445480255357921
1783245530429395500,4.3323955078125,-0.008036591461300849,0.32133301780968904,-0.08760061510689555
1783245530439407400,4.342407470703125,-0.1420744750291109,0.2319660506173968,-0.17105704308114944
1783245530449418200,4.352418212890625,-0.21173370218873022,0.14505918992832303,-0.0701823011856526
1783245530459430400,4.362430419921875,-0.22891338504850864,0.056698184908181425,0.12755443983264267
1783245530469442300,4.3724423828125,-0.2552402509599924,-0.0845015531130135,0.309278203682974
1783245530479453400,4.382453369140625,-0.35189503707289693,-0.24166370715871452,0.5271705015666782
1783245530489465600,4.392465576171875,-0.42462651128470896,-0.49329468158036466,0.7391910578727722
1783245530499477500,4.4024775390625,-0.43046003974378105,-0.9003469577297568,0.9402281556107104
1783245530509488400,4.41248828125,-0.6832827081680297,-1.0240465487651527,1.2525098519586026
1783245530519500500,4.42250048828125,-0.760924166253209,-0.8448017422489822,1.5067568540975451
1783245530529512400,4.432512451171875,-0.3309913652539253,-0.7347033910647034,1.4153241865471005
1783245530539523300,4.4425234375,0.12207447405159473,-0.5685876768432557,1.2111376118022947
1783245530549535500,4.452535400390625,0.4091694144338369,-0.27274682768657804,1.0667441923063248
1783245530559547400,4.46254736328125,0.5570283180832862,0.10068842554315924,0.9861665346387773
1783245530569559300,4.472559326171875,0.5570943690568209,0.5106529358774423,1.0090556811865419
1783245530579570200,4.482570068359375,0.4117775511056185,0.8533994747243822,1.067500855892524
1783245530589582300,4.492582275390625,0.17149930695593357,1.1305410302385688,1.0275609866268933
1783245530599594200,4.50259423828125,-0.1741559589445591,1.298612262441963,0.8743344915296882
1783245530609605400,4.51260546875,-0.49021688157022,1.4427848787941038,0.6694074736811221
1783245530619617500,4.522617431640625,-0.7711252422720194,1.5500211185455322,0.44047165760509666
1783245530629629400,4.53262939453125,-0.9710609546393155,1.5373312944509088,0.1624899249397218
1783245530639640300,4.542640380859375,-1.1842027700603008,1.4066766235806047,-0.13790128099769353
1783245530649652500,4.552652587890625,-1.3278379185348748,1.2501157964289187,-0.32835210279151794
1783245530659664400,4.562664306640625,-1.4077759631246327,1.1163248733595013,-0.41914742228649554
1783245530669675300,4.57267529296875,-1.4497393741071223,0.9707758540876209,-0.5024662684209644
1783245530679687400,4.5826875,-1.400682789993286,0.7791796616509556,-0.538990557089448
1783245530689699300,4.59269921875,-1.2329372826129197,0.619386136188358,-0.5730769510865211
1783245530699710500,4.60271044921875,-0.9889099150627851,0.5926857607893645,-0.49321401755958794
1783245530709722600,4.61272265625,-0.6609907968610524,0.5867677689172327,-0.32953364072628316
1783245530719734500,4.622734619140625,-0.36856384780108925,0.48971039335280653,-0.23697533014677463
1783245530729746400,4.632746337890625,-0.07158814939558505,0.34525969071164725,-0.15711520963143558
1783245530739757300,4.64275732421875,0.27994214601814743,0.22325360572114586,-0.08728990518990903
1783245530749769500,4.65276953125,0.5398474661797285,0.15949322734177113,0.03749119747187942
1783245530759781400,4.662781494140625,0.6954618062615394,0.12639131433740258,0.20922131750900297
1783245530769792300,4.672792236328125,0.7886077074706555,0.08725202086493372,0.3865100580539554
1783245530779804400,4.682804443359375,0.9530319614738225,0.07394611069858074,0.5879327575759962
1783245530789816300,4.69281640625,1.1163929701596498,0.07496200974285602,0.7540289999119937
1783245530799827500,4.702827392578125,1.082477256554365,0.030628947019577024,0.8535679631590842
1783245530809839400,4.71283935546875,1.0185106880784034,-0.0008037175983190536,0.9744355456389486
1783245530819851500,4.7228515625,0.9721972651928663,0.04324044518098235,1.072622509755194
1783245530829862400,4.7328623046875,0.8877607401400804,0.09908420521691441,1.051486125158891
1783245530839874300,4.742874267578125,0.8059428731530904,0.05123085941299796,0.84706691070199
1783245530849886200,4.75288623046875,0.6548182457059621,-0.099192195636034,0.5645670064924284
1783245530859897300,4.7628974609375,0.5015326408326626,-0.24464579170942305,0.3981829967236146
1783245530869909200,4.7729091796875,0.4330605776309967,-0.2993755991540849,0.31327651607152074
1783245530879921200,4.782921142578125,0.3237795341789722,-0.3244153478644788,0.29267138880770655
1783245530889933300,4.792933349609375,0.24457214195132254,-0.38263416646867987,0.26645339009817687
1783245530899944200,4.802944091796875,0.23633856661319733,-0.4361649733871221,0.249679730756022
1783245530909956000,4.8129560546875,0.261313433393836,-0.4947862353123724,0.2791121614674106
1783245530919968300,4.82296826171875,0.32983985713124275,-0.5408111966453493,0.2717795170243829
1783245530929979400,4.8329794921875,0.26217384961545465,-0.6856351165130734,0.2386283580508083
1783245530939991300,4.8429912109375,0.15442016186118124,-0.8179895770385861,0.23934447043091056
1783245530950003500,4.85300341796875,0.16151684212386608,-0.8318708028748631,0.27466486320234834
1783245530960014300,4.863014404296875,0.22809797701239584,-0.7756023876860737,0.3236077212760225
1783245530970026200,4.873026123046875,0.25745968057513235,-0.7585229503303765,0.33475488250590857
1783245530980038100,4.8830380859375,0.25761633244156834,-0.7362468211144209,0.33276096874233335
1783245530990049300,4.89304931640625,0.26676293097138404,-0.7120549214050174,0.4196919774919748
1783245531000061200,4.903061279296875,0.249741069021821,-0.636188948559761,0.5020315302655101
1783245531010073000,4.913072998046875,0.16232757398486136,-0.5795465854920446,0.5449084758963435
1783245531020084500,4.92308447265625,0.03188157742917538,-0.5563542182140052,0.5041419100156054
1783245531030096400,4.933096435546875,-0.1487011996924877,-0.522410593688488,0.47089456065855917
1783245531040108300,4.9431083984375,-0.3759428521364927,-0.4122491141401231,0.47860813071057196
1783245531050120400,4.953120361328125,-0.6328741249233484,-0.2993289835333824,0.5170262703016401
1783245531060131300,4.96313134765625,-0.841001911574602,-0.2096548500880599,0.5383719867996871
1783245531070143200,4.973143310546875,-1.0770347732394934,-0.17256459809988736,0.5563909700278192
1783245531080155400,4.9831552734375,-1.2612760728687047,-0.15131328188702464,0.48990233572833236
1783245531090166300,4.993166259765625,-1.368399646025896,-0.12032456164434552,0.48166949104256923
1783245531100178200,5.00317822265625,-1.3591460799902677,0.0013195581659674644,0.6326435310378671
1783245531110190300,5.0131904296875,-1.2887813349097967,0.26598127907440067,0.9507901738964021
1783245531120201500,5.023201416015625,-1.1851228075146674,0.5577130854770541,1.286774086740613
1783245531130213400,5.03321337890625,-1.0411036281585693,0.7231681438326836,1.4448236911453305
1783245531140225300,5.043225341796875,-0.8718272579491138,0.7782264525793492,1.4659037424445152
1783245531150236400,5.053236328125,-0.7340361593276262,0.7737428774245083,1.3863573275208472
1783245531160248300,5.063248291015625,-0.789408502459526,0.7165227144688368,1.2523343492612242
1783245531170260200,5.07326025390625,-0.9348813877552747,0.5505690589413047,0.9405337144285439
1783245531180271400,5.083271240234375,-1.1424462798267603,0.26580036954954267,0.48802229413539167
1783245531190283300,5.093283203125,-1.4066145181298255,0.024500965658575295,0.049540933564677835
1783245531200295200,5.103295166015625,-1.5322750339746474,-0.11164221962541342,-0.344932431518659
1783245531210307300,5.113307373046875,-1.6154244418263435,-0.15320640215724707,-0.652562721864134
1783245531220318200,5.123318115234375,-1.5688994220167398,-0.22684242399334906,-0.8265260808460414
1783245531230330000,5.133330078125,-1.2897305984586476,-0.32426161860749125,-0.9670638478271663
1783245531240342300,5.14334228515625,-0.8713724999189376,-0.33995968460738657,-0.9371852807834744
1783245531250353400,5.153353515625,-0.3600216449052095,-0.2881577473081648,-0.8120772842548787
1783245531260365300,5.163365234375,0.16022446422576903,-0.18751169960200786,-0.6868954918377101
1783245531270377500,5.17337744140625,0.5590034175485372,-0.03387318963780999,-0.48548532300367947
1783245531280388400,5.183388427734375,0.9075707715034484,0.1723901183158159,-0.25263693659380076
1783245531290400300,5.193400146484375,1.2031371876329182,0.4914141285307705,-0.03349032780006528
1783245531300412200,5.203412109375,1.311824941366911,0.739804075204581,0.18363544269055126
1783245531310423300,5.21342333984375,1.3118015604913233,0.896739580887556,0.3561094398975372
1783245531320435200,5.223435302734375,1.2661784579575062,0.9760554019257426,0.5350320287220179
1783245531330447000,5.233447021484375,1.1399369273543358,0.979287661845237,0.7812200814373791
1783245531340459300,5.243459228515625,0.8893909716904163,0.8861239327184856,1.0195312632977962
1783245531350470400,5.253470458984375,0.7128636074393987,0.8127272725962102,1.2763944392845035
1783245531360482300,5.263482421875,0.5510071580976248,0.7262668405003845,1.510141089708358
1783245531370494500,5.273494384765625,0.3697919282913208,0.6279787540972233,1.6279602444030343
1783245531380505300,5.28350537109375,0.19184826750159262,0.560985385145992,1.6715126781426368
1783245531390517200,5.293517333984375,-0.010655834048986434,0.5347545269548892,1.6232012133076785
1783245531400529400,5.303529296875,-0.1334568688094616,0.5159554261997342,1.463126240555197
1783245531410540300,5.313540283203125,-0.1797358049035072,0.5766419500917196,1.2389713020801543
1783245531420552200,5.32355224609375,-0.15030629680156707,0.6416707409717142,0.9889926249101757
1783245531430564000,5.333564208984375,-0.06440262180566787,0.6941901788905263,0.7631355586923658
1783245531440575500,5.343575439453125,0.05132511356770992,0.7661430699452757,0.6037311786778271
1783245531450587400,5.35358740234375,0.2659066064029932,0.8375117313712834,0.47156814907118677
1783245531460599300,5.363599365234375,0.4931470898032188,0.8810391768001019,0.3607965748004615
1783245531470610400,5.3736103515625,0.7224848377436399,0.9279549494929611,0.2873164741784334
1783245531480622300,5.383622314453125,0.8600023801207541,0.9262136587835847,0.27164938783869147
1783245531490634200,5.39363427734375,0.8558172033905983,0.8417648587711155,0.27434242631495
1783245531500645400,5.403645263671875,0.8684756094336509,0.7932163703098892,0.2378811198800802
1783245531510657300,5.4136572265625,0.8417787411659956,0.8156132032960652,0.2114202523253858
1783245531520669200,5.423669189453125,0.8436778527855873,0.8178542602211236,0.10187573563158511
1783245531530681300,5.433681396484375,0.9398954165250062,0.7739575430884957,-0.0370738853752613
1783245531540692200,5.443692138671875,1.0915706635922193,0.7693607168175279,-0.1469222073212266
1783245531550704000,5.4537041015625,1.223009178316593,0.7537059054374694,-0.23368352205976842
1783245531560716300,5.46371630859375,1.347673668861389,0.691228260345012,-0.2828222314991057
1783245531570727400,5.4737275390625,1.4739724826097487,0.6349523925021291,-0.3345589946076274
1783245531580739300,5.4837392578125,1.4836393056213855,0.606912000671029,-0.38016587665900586
1783245531590751200,5.493751220703125,1.4226871165305375,0.6273531695447861,-0.3779747963555157
1783245531600762400,5.503762451171875,1.3147633329063653,0.5872089368134736,-0.4115044332526624
1783245531610774300,5.513774169921875,1.1078086816877126,0.531641509500891,-0.4210831395894289
1783245531620786200,5.5237861328125,0.9220867881119251,0.5283988743178546,-0.38045945277810095
1783245531630797300,5.53379736328125,0.6851981864005326,0.3586166004128754,-0.42400808712542054
1783245531640809200,5.543809326171875,0.5013257200837135,0.12875000629276037,-0.5083968275137245
1783245531650821000,5.553821044921875,0.3158504947453737,-0.06080956574976444,-0.5394488222509622
1783245531660832300,5.563832275390625,0.1327893448114395,-0.2683383635945618,-0.5787209483228624
1783245531670844400,5.573844482421875,-0.05826280387639999,-0.45074090348929163,-0.5516099462963641
1783245531680856300,5.583856201171875,-0.2743219680488109,-0.6351357862450182,-0.5016225110732019
1783245531690868500,5.593868408203125,-0.4977303259402513,-0.751708448009938,-0.41338630147650834
1783245531700879400,5.60387939453125,-0.7873223438352346,-0.8257175409421325,-0.36798385595604777
1783245531710891300,5.613891357421875,-1.0352297676891087,-0.82943816890046,-0.32677593951597805
1783245531720903400,5.6239033203125,-1.323068804436922,-0.9183898332901298,-0.3852843887165189
1783245531730914300,5.633914306640625,-1.4793062448531389,-1.056006159866601,-0.45774230668395754
1783245531740926200,5.64392626953125,-1.5862667364031076,-1.1322821748174727,-0.45248277872055764
1783245531750938000,5.653938232421875,-1.5931430519133805,-1.0615367598563432,-0.38583456994518633
1783245531760949200,5.66394921875,-1.4202344626814125,-0.9623308279559015,-0.14867971851304174
1783245531770961400,5.67396142578125,-1.348179280295968,-0.9301461759269237,-0.14395765842720865
1783245531780973300,5.683973388671875,-1.2961059787094593,-0.941973391842842,-0.15678119190409778
1783245531790983700,5.693983642578125,-1.2641706252664326,-0.9100441758796572,-0.07311901222467422
1783245531800995600,5.70399560546875,-1.289060151851177,-0.8406814474485814,0.0504993302680552
1783245531811007700,5.7140078125,-1.3046990350097416,-0.7428149474583565,0.2098661547511816
1783245531821018600,5.7240185546875,-1.1501713211208582,-0.4983268305286765,0.4219447248548269
1783245531831030500,5.734030517578125,-0.88397537638247,-0.15871245222762226,0.7449043209530413
1783245531841042700,5.744042724609375,-0.5272901824235916,0.20141250692158935,0.9553079435817897
1783245531851054600,5.7540546875,-0.08554010238051414,0.4660739355690777,1.0215317164000124
1783245531861065700,5.764065673828125,0.3200497000008821,0.553602727548778,0.9674195293970406
1783245531871077600,5.77407763671875,0.6254214708298445,0.49133156481385226,0.91073135442622
1783245531881089800,5.78408984375,0.7231231356471777,0.42269378965646026,0.7337229286599903
1783245531891100700,5.7941005859375,0.6719780548214912,0.389067268256098,0.7439241508092731
1783245531901112600,5.804112548828125,0.30482524286210533,0.6123408938519657,0.9087636345498263
1783245531911124700,5.814124755859375,-0.32150749759376046,0.3487365730419755,0.8268689029343426
1783245531921135600,5.824135498046875,-0.2711135273963213,0.016957126150280236,0.6090119686249643
1783245531931147500,5.8341474609375,-0.22966274211108684,-0.07210355157181621,0.6709992729172111
1783245531941159700,5.84415966796875,-0.3847895909368992,-0.27191271494999525,0.6348841495715082
1783245531951170600,5.854170654296875,-0.49270285316705703,-0.3693376086525619,0.7280845574468374
1783245531961182700,5.8641826171875,-0.6796820533275604,-0.37233898242563007,0.9088844844505191
1783245531971194600,5.874194580078125,-0.5585638570874929,-0.1560689519815147,1.2074971364080904
1783245531981205800,5.884205810546875,-0.235332019919157,0.20393194239661097,1.526901962634176
1783245531991217700,5.8942177734375,0.043138884502649306,0.6366068817108869,1.606410383635014
1783245532001229800,5.904229736328125,0.2791343367666006,0.959577437594533,1.4727406027272343
1783245532011241700,5.91424169921875,0.6058534315288067,1.1442872315183281,1.3722472613647578
1783245532021252600,5.924252685546875,0.9068623309731483,1.3673369852304458,1.3734268265381455
1783245532031264500,5.934264404296875,0.9830869079977274,1.5485124675482511,1.3472732713669537
1783245532041276700,5.944276611328125,1.0084025510400534,1.7839774661973118,1.3477797595843672
1783245532051287600,5.95428759765625,0.9755717100620269,2.008096310445666,1.4134668682426212
1783245532061299500,5.964299560546875,0.445913629463315,2.0941364713028072,1.3855593090109526
1783245532071311600,5.9743115234375,0.01710311049222946,1.9687576950088141,1.1888996957048774
1783245532081322800,5.98432275390625,-0.24959844568073747,1.6532555753096938,0.9185092218860983
1783245532091334700,5.994334716796875,-0.4130219982087612,1.3148399052739144,0.757502082850039
1783245532101346800,6.004346923828125,-0.7486456994384527,1.0853352763339876,0.7376581492170691
1783245532111357700,6.014357666015625,-1.2137836693316697,1.001842169611156,0.7474543707620352
1783245532121369600,6.02436962890625,-1.6063158372193573,1.0203915333889424,0.7194757921207696
1783245532131381800,6.0343818359375,-1.8140648536860942,1.059315868936479,0.6636084320135415
1783245532141392600,6.044392578125,-1.7592144886016845,1.1220980499334632,0.6000966215677559
1783245532151404500,6.054404541015625,-1.6018138496249914,1.1857345096722245,0.5842546901177614
1783245532161416700,6.064416748046875,-1.352573131340742,1.1983940847590564,0.6061443772993982
1783245532171428600,6.0744287109375,-1.0048971732676029,1.1151894395887851,0.6288887085489928
1783245532181439700,6.084439697265625,-0.666111208614707,0.9426154891386628,0.5752930927660316
1783245532191451600,6.09445166015625,-0.3762275142967701,0.7671572154238819,0.5314004672866315
1783245532201463800,6.1044638671875,-0.12863982391655443,0.6907429610460997,0.5439280134916306
1783245532211474700,6.114474609375,0.05069909062385559,0.6796342686630785,0.5908733776051551
1783245532221486600,6.124486572265625,0.24357962378263473,0.7976023303091525,0.6591018413092941
1783245532231498800,6.134498779296875,0.3918243118792772,0.9325041372299194,0.8232575075041503
1783245532241509600,6.144509521484375,0.5520294868826866,0.9651105218023062,0.9831547856021672
1783245532251521500,6.154521484375,0.7699719805836677,0.9273068608477711,1.119437671617791
1783245532261533700,6.16453369140625,0.9389327089726924,0.8579178289316594,1.1923198794119059
1783245532271544600,6.174544677734375,1.07545597961545,0.7618604241900145,1.1943221591450273
1783245532281556500,6.184556396484375,1.1604174053251743,0.6626961394742131,1.0889323509778828
1783245532291568600,6.194568603515625,1.1376812573820352,0.5336562103241682,1.0161769844338298
1783245532301579800,6.204579833984375,0.9882640183746814,0.44577699747160077,0.9815187818981707
1783245532311591700,6.214591796875,0.8305465685337782,0.4049330920383334,0.9915141062118112
1783245532321603800,6.224603759765625,0.6854203047186136,0.33081878516599533,0.9274700885854661
1783245532331615700,6.23461572265625,0.6106389122396707,0.23944705402255057,0.8401947599101811
1783245532341626600,6.244626708984375,0.49586044041514393,0.1466677941687405,0.7209764790073037
1783245532351638500,6.254638427734375,0.37175767540633675,0.10184943214654922,0.6214636731147766
1783245532361650700,6.264650634765625,0.2119353622406721,0.12746186617836355,0.5956473140086979
1783245532371661600,6.27466162109375,0.14082242914140225,0.23248539831638335,0.6502499148771167
1783245532381673500,6.284673583984375,0.08113806802928447,0.3068020958930254,0.6817105634804814
1783245532391685600,6.294685546875,0.062438043734431264,0.33871991367936133,0.6947663713432848
1783245532401696800,6.30469677734375,0.01784779137969017,0.304199219918251,0.6769178493112326
1783245532411708700,6.314708740234375,-0.016638415589928627,0.21875585591048,0.6648058251045644
1783245532421720800,6.324720947265625,-0.045783261531591415,0.1348361943386495,0.6167106333687901
1783245532431731700,6.334731689453125,-0.20883505813777445,0.05488222152739763,0.5843797778021543
1783245532441743600,6.34474365234375,-0.3514905479252338,0.01947071640640497,0.5097826558489352
1783245532451755800,6.354755859375,-0.42011283325254917,0.07152998946756124,0.45226402140334243
1783245532461766700,6.3647666015625,-0.4724661208242178,0.14424261284843087,0.4040753061652183
1783245532471778600,6.374778564453125,-0.5625105488866567,0.22469079891741275,0.3521567567490041
1783245532481790500,6.38479052734375,-0.6729179660201072,0.3206267692364752,0.3404508291251957
1783245532491802600,6.394802734375,-0.8288947096735239,0.3591561141170561,0.3810993581168353
1783245532501813800,6.404813720703125,-0.9828782336831092,0.4039778371401131,0.33221878815703093
1783245532511825700,6.41482568359375,-1.109952707979083,0.43463411055803297,0.41208669012002647
1783245532521837800,6.424837890625,-1.1824380984753369,0.41240591213703154,0.5736377998396754
1783245532531848700,6.4348486328125,-1.168931551170349,0.5400136165268719,0.8171844712007791
1783245532541860600,6.444860595703125,-1.1930495088607072,0.8373395896747707,1.2040285835146902
1783245532551872800,6.454872802734375,-1.0933721600562334,1.1547266463376582,1.5193432178176938
1783245532561883600,6.464883544921875,-0.905415639296174,1.235149844095856,1.6513376128591597
1783245532571895600,6.4748955078125,-0.772123605659604,1.099792256231606,1.6558020449221134
1783245532581907700,6.48490771484375,-0.7320382635086774,0.8614338742285966,1.615832876496762
1783245532591918600,6.494918701171875,-0.8003519212782383,0.6375953082263469,1.5803319395266473
1783245532601930500,6.504930419921875,-1.012704047626257,0.4863641516648233,1.5311385772906243
1783245532611942700,6.514942626953125,-1.144655188047886,0.4053630078881979,1.4505955525450407
1783245532621953800,6.524953857421875,-1.159020982530713,0.44543534442707894,1.30113988122344
1783245532631965700,6.534965576171875,-1.0712883385419845,0.5889563650026917,1.1462032942727207
1783245532641977600,6.5449775390625,-0.8124743207484483,0.8186844274349511,1.0388687087133526
1783245532651988700,6.55498876953125,-0.47759062423110005,1.0967426594026386,0.8931940172351897
1783245532662000600,6.565000732421875,-0.017640286108851433,1.3303960785850881,0.7638890074081719
1783245532672012500,6.575012451171875,0.21779753227233886,1.4051834624134003,0.610688888861239
1783245532682024700,6.585024658203125,0.37629765692353245,1.2482236990720033,0.3890472483813762
1783245532692035600,6.59503564453125,0.5398123948663472,1.1357232551820575,0.28017829286158086
1783245532702047500,6.605047607421875,0.7253069094270468,1.1561924811065196,0.40916649182438847
1783245532712059600,6.6150595703125,0.6955553297638892,1.1768009693711996,0.5581706199862062
1783245532722070800,6.62507080078125,0.6659218235224486,1.2877175050705671,0.6632479281380772
1783245532732082700,6.635082763671875,0.7506453488230704,1.4481598498307167,0.8364493628367781
1783245532742094800,6.6450947265625,0.7590069344550371,1.6159848521880804,0.9887583777628839
1783245532752105700,6.655105712890625,0.7745429417610168,1.7628823634594677,1.098461153758317
1783245532762117600,6.66511767578125,0.8100923940479755,1.8748231276400387,1.1210650536239146
1783245532772129800,6.6751298828125,0.8442740651130676,1.8427932277813552,1.1754672365494072
1783245532782140700,6.685140625,0.8367319791704416,1.700660446693748,1.17182508065477
1783245532792153300,6.6951533203125,0.7786001081973314,1.5318042015925049,1.2168208450704812
1783245532802165500,6.70516552734375,0.7032675115764141,1.407164699358493,1.296144703284651
1783245532812177400,6.715177490234375,0.486568880456686,1.3038074929974972,1.3631653986342251
1783245532822188300,6.725188232421875,0.3324772198975086,1.1867790502890945,1.3555981782503426
1783245532832200200,6.7352001953125,0.14864625463485717,1.0623246953636407,1.2974635307982563
1783245532842212400,6.74521240234375,-0.18026187460422516,0.8822326243683696,1.2144924021229146
1783245532852223500,6.755223388671875,-0.35809389171302314,0.7415675777457654,1.1423403352342545
1783245532862235400,6.7652353515625,-0.46431554759442806,0.654576984295994,1.0973815418280661
1783245532872247600,6.77524755859375,-0.3981681279480457,0.6909324922688305,1.0507121451117098
1783245532882258400,6.785258544921875,-0.2561848383337259,0.739966280028969,0.9494231233268976
1783245532892270300,6.795270263671875,-0.026833646389842033,0.7685654747866094,0.7898227092836052
1783245532902282500,6.805282470703125,0.24878011503517627,0.803371853621304,0.6219966109476983
1783245532912293400,6.81529345703125,0.40218788498342034,0.7964251032233238,0.414578726131469
1783245532922305300,6.82530517578125,0.410707876047492,0.7268712361343205,0.35122882824912666
1783245532932317400,6.8353173828125,0.3740016549408436,0.6314467224687338,0.1415162566244602
1783245532942328600,6.84532861328125,0.4324316320776939,0.5362710689976811,0.19411197464987634
1783245532952340500,6.855340576171875,0.3407037809729576,0.33409079257398844,0.25624614006690677
1783245532962352600,6.8653525390625,0.34496728363633156,0.25167905134707685,0.3627050387702882
1783245532972363500,6.875363525390625,0.3406295466929674,0.2568361418493092,0.4281429219078272
1783245532982375400,6.88537548828125,0.24133330616056917,0.28078254236504435,0.400908220436424
1783245532992387300,6.89538720703125,0.31128596330881114,0.33199630451276896,0.4588504871215671
1783245533002399500,6.9053994140625,0.43422611427903174,0.3951670464359224,0.6155907624933868
1783245533012410400,6.915410400390625,0.44408466047048567,0.3510470419414341,0.6103347416613251
1783245533022422300,6.92542236328125,0.5276356348603963,0.148321114333719,0.47924664780981835
1783245533032434400,6.935434326171875,0.46396658802628515,-0.09067176618054508,0.3321693960573524
1783245533042445300,6.9454453125,0.23104747446775434,-0.22842633218392727,0.22676007947213947
1783245533052457200,6.955457275390625,-0.01791734948456287,-0.2641797826103866,0.06607194325737654
1783245533062469400,6.965469482421875,-0.09295943872630595,-0.1673139840953052,0.04380275523886084
1783245533072480500,6.97548046875,-0.06889701061546802,0.005463233841955661,0.08956760433092713
1783245533082492400,6.985492431640625,0.05611702401936054,0.18636925156861542,0.21562581425644456
1783245533092504600,6.995504638671875,0.13573299704790115,0.17742402082979677,0.22524901732206343
1783245533102515500,7.005515380859375,0.2848328406691551,-0.07156988308653235,0.1996412959979847
1783245533112527400,7.01552734375,0.45739247033298014,-0.3328964682228863,0.2406333777302876
1783245533122539500,7.02553955078125,0.4234966304719448,-0.5725498584724963,0.3552855197614059
1783245533132550400,7.03555029296875,0.3598737608671188,-0.7840751786075532,0.4149014552798122
1783245533142562300,7.045562255859375,0.2558861476480961,-0.8910779018640518,0.3436713255416602
1783245533152574200,7.05557421875,-0.054148938816785806,-0.9524503621935844,0.18983444346114992
1783245533162586400,7.06558642578125,-0.1825035160511732,-0.7862618749968707,0.10978950443081557
1783245533172597500,7.075597412109375,-0.15310615665316582,-0.4310732032060623,0.19905717596709727
1783245533182609400,7.085609375,-0.25916239283978937,-0.0652021016202867,0.3605626199141145
1783245533192621600,7.09562158203125,-0.3211374952375889,0.15120222272798417,0.4898698216982186
1783245533202632400,7.105632568359375,-0.3498877889037132,0.12056845340281724,0.5902659132312983
1783245533212644400,7.115644287109375,-0.4188888444155454,-0.028582828144729136,0.6466793629139661
1783245533222656500,7.125656494140625,-0.37061668867766856,-0.25557123648002744,0.8150140683591365
1783245533232667400,7.13566748046875,-0.273971254914999,-0.425212932870537,0.9371063703283667
1783245533242679300,7.14567919921875,-0.24318565602898595,-0.44030543419271706,1.031204092369601
1783245533252691500,7.15569140625,-0.1626794561624527,-0.2638108031675219,1.234768297432363
1783245533262702600,7.16570263671875,-0.08196750459074974,-0.019303250885009764,1.366318163576722
1783245533272714500,7.175714599609375,-0.1820247926235199,0.12003259296044706,1.3228564768604933
1783245533282726400,7.185726318359375,-0.32260230709314347,0.10058306547254324,1.1524188808519393
1783245533292737500,7.195737548828125,-0.4033013991832733,-0.025755934155732393,0.9431988419845699
1783245533302749400,7.20574951171875,-0.6523743596851825,-0.23871362518146633,0.8690201646391302
1783245533312761300,7.21576123046875,-0.9362953462064265,-0.3705407008320093,0.9709759067043662
1783245533322772500,7.2257724609375,-1.1035860955566168,-0.432457643301785,1.1451171064712107
1783245533332784400,7.235784423828125,-1.1572469585955143,-0.4225663638845086,1.2720800832167267
1783245533342796300,7.24579638671875,-1.1281219863981007,-0.32290143617019057,1.312755207954347
1783245533352808400,7.255808349609375,-1.076504027363658,-0.21868001419529318,1.2552044978700578
1783245533362819300,7.2658193359375,-0.9293535642445087,-0.13939122729450462,1.0931371822565794
1783245533372831200,7.275831298828125,-0.7426087573617697,-0.0013264262981712818,0.8823470445282757
1783245533382843400,7.285843505859375,-0.5473468820244074,0.20146350645646452,0.6233423995334655
1783245533392854500,7.2958544921875,-0.5372328997671604,0.33510230770409105,0.22247860276065765
1783245533402866400,7.305866455078125,-0.5555062230825424,0.5205595589943229,-0.02269771562889218
1783245533412878600,7.315878662109375,-0.565149080696702,0.6999911202542484,-0.2022315682195127
1783245533422889500,7.325889404296875,-0.5729080242604017,0.7764987520039082,-0.4377655404515564
1783245533432901400,7.3359013671875,-0.5779319899022579,0.7682759903207421,-0.5871973925061523
1783245533442913300,7.345913330078125,-0.42115445125997064,0.8704406258963048,-0.5486084994580597
1783245533452924400,7.35592431640625,-0.20488310564160345,1.0417562468484043,-0.3996634080071002
1783245533462936300,7.365936279296875,-0.005873860469460487,1.1366368628956376,-0.19042079198174178
1783245533472948200,7.3759482421875,0.1020943468183279,1.1012361714296042,-0.09390577966570854
1783245533482959600,7.385959716796875,0.23009762639701364,1.0603849594727157,-0.09358838427960872
1783245533492971500,7.395971435546875,0.31473814958930013,1.0894774907052516,-0.062445423323288556
1783245533502983400,7.4059833984375,0.5015940156310796,1.15566509623155,-0.057616980253532527
1783245533512995600,7.41599560546875,0.6349497621536254,1.206392390036583,-0.06276501066647469
1783245533523006500,7.42600634765625,0.7022755779296159,1.2476119969144464,-0.009489128357172012
1783245533533018400,7.436018310546875,0.6340770709723234,1.2357353888988494,0.03847776082381606
1783245533543030500,7.446030517578125,0.34333705208599563,1.0328310359843074,0.034874987091496584
1783245533553041400,7.45604150390625,0.12502864768207073,0.8246635018445551,0.12298333252482116
1783245533563053300,7.46605322265625,-0.13381985690295695,0.6788866651661694,0.2921487166404724
1783245533573065500,7.4760654296875,-0.5016816939145327,0.4892452600590884,0.35173845827169714
1783245533583076400,7.486076416015625,-0.7511468686044216,0.37451340385526416,0.35974735800847407
1783245533593088500,7.496088623046875,-0.8429594753831624,0.3601052315354347,0.4411691383499652
1783245533603100400,7.506100341796875,-0.8081050196230412,0.3958982833199203,0.5402615268733352
1783245533613111600,7.516111572265625,-0.6942576911687851,0.40771702366843815,0.4907930009577423
1783245533623123500,7.52612353515625,-0.45321723047494883,0.3652355801612139,0.3242571616280824
1783245533633135400,7.53613525390625,-0.1873404346883297,0.30676658618822694,0.18605251376964152
1783245533643146500,7.546146484375,0.08955810585021973,0.2738147491790354,0.11646733822692185
1783245533653158400,7.556158447265625,0.32398177875280376,0.2903903286658227,0.107509211473912
1783245533663170300,7.56617041015625,0.40197979519069194,0.3549002102382481,0.10468681099694221
1783245533673181200,7.57618115234375,0.3791320035666227,0.39244258990809316,0.17503928111772984
1783245533683193300,7.586193359375,0.3117155868977308,0.32832638382837176,0.2504344215808436
1783245533693205200,7.596205322265625,0.32493454943299294,0.2827845298372209,0.3214562423305586
1783245533703217400,7.606217529296875,0.33164369168281554,0.20526246034801005,0.44661483653523026
1783245533713228500,7.616228515625,0.3739636610180139,0.18969240464195608,0.4695570284444838
1783245533723240400,7.626240478515625,0.43850306094586844,0.23794892441928386,0.4765594180198386
1783245533733252600,7.636252685546875,0.4748018702954054,0.2790047190375626,0.42879327557533975
1783245533743263500,7.646263427734375,0.43945933875739573,0.2860122597120702,0.23721900270953772
1783245533753275400,7.656275390625,0.44808162115216255,0.2999821867451072,-0.02676558612231165
1783245533763287300,7.666287353515625,0.32764322386980055,0.30127982534021136,-0.2790385117093101
1783245533773298400,7.67629833984375,0.22979542858004567,0.2602184777639806,-0.380852141890116
1783245533783310300,7.686310302734375,0.3005366057574749,0.19025676052644847,-0.35995183107201006
1783245533793321700,7.69632177734375,0.3738438340306282,0.12188406604602932,-0.1987542109651491
1783245533803332900,7.706332763671875,0.4641133030205965,-0.04331701754853129,0.006056815820932388
1783245533813344800,7.7163447265625,0.5444301177948713,-0.21980434205010532,0.13433324978519232
1783245533823357000,7.72635693359375,0.6076321316391229,-0.35371509210690855,0.21961844582287593
1783245533833367800,7.736367919921875,0.6041454585671424,-0.42835751450657844,0.2342018103128299
1783245533843379700,7.746379638671875,0.5617997702687978,-0.4966339090056717,0.183953148603905
1783245533853392000,7.756391845703125,0.6378489907264709,-0.5182547891832888,0.1376557635377161
1783245533863403800,7.76640380859375,0.7185059972405433,-0.5209760308407246,0.09676750750606879
1783245533873414700,7.77641455078125,0.7649298947632313,-0.5309641947612166,0.03123014604942873
1783245533883426600,7.786426513671875,0.7673591677367687,-0.5633965379409491,-0.014946663110703228
1783245533893438700,7.796438720703125,0.7180693593889474,-0.5981843582056462,-0.1278062774355523
1783245533903449900,7.806449951171875,0.6379845998048782,-0.582811432506889,-0.23397812109217048
1783245533913461800,7.816461669921875,0.581945317196846,-0.5042188111767173,-0.17835658897217363
1783245533923474000,7.826473876953125,0.40164778675734997,-0.39945246867015954,-0.06597394450930878
1783245533933484800,7.83648486328125,-0.14077332930266856,-0.300236161506176,-0.09973470501489937
1783245533943496700,7.84649658203125,-0.7681634698569774,-0.47351899087801574,-0.19795442062327637
1783245533953508900,7.8565087890625,-0.9552338554322719,-0.6810600636824965,-0.20998207274843006
1783245533963519700,7.866519775390625,-0.7726777324110269,-0.8823938062794506,-0.15657759562339632
1783245533973531600,7.87653173828125,-0.573269258788228,-0.9638741118751466,-0.017917605212889612
1783245533983543800,7.886543701171875,-0.465194083994627,-0.8913884291179478,0.2679139276374131
1783245533993555000,7.896554931640625,-0.5414888036459684,-0.8129666343100368,0.5117719665026292
1783245534003566800,7.90656689453125,-0.6901146000146865,-0.7076593167945742,0.5793171606503427
1783245534013579000,7.9165791015625,-0.8795224886268377,-0.50826289893575,0.6257911809250712
