time,seconds_elapsed,z,y,x
1783245619305425700,0.06342578125,0.1119852289557457,0.30449309945106506,-0.0527820810675621
1783245619315437800,0.073437744140625,0.14081242680549622,0.18666350841522217,-0.08876699209213257
1783245619325449700,0.08344970703125,0.15638205409049988,0.0779854953289032,-0.12211430072784424
1783245619335462000,0.0934619140625,0.16219273209571838,0.004238219931721687,-0.14715205132961273
1783245619345472800,0.10347265625,0.15343785285949707,-0.04465289041399956,-0.15063786506652832
1783245619355484700,0.113484619140625,0.14244933426380157,-0.0719141736626625,-0.13286113739013672
1783245619365496600,0.12349658203125,0.12697185575962067,-0.07257837057113647,-0.11174600571393967
1783245619375507700,0.1335078125,0.10279237478971481,-0.05513029918074608,-0.0921127200126648
1783245619385519600,0.14351953125,0.07730060070753098,-0.04307150840759277,-0.07139625400304794
1783245619395531800,0.15353173828125,0.0439678430557251,-0.017308250069618225,-0.040885552763938904
1783245619405543700,0.163543701171875,0.016080819070339203,-0.006399674341082573,0.0013740193098783493
1783245619415554800,0.173554931640625,0.0013035587035119534,-0.04111373424530029,0.046652231365442276
1783245619425566700,0.183566650390625,0.006359836086630821,-0.09490479528903961,0.07747645676136017
1783245619435579000,0.193578857421875,0.017692066729068756,-0.10745313763618469,0.06379799544811249
1783245619445590800,0.2035908203125,0.016001759096980095,-0.05502535030245781,0.013050929643213749
1783245619455601700,0.2136015625,-0.0010608998127281666,0.027647895738482475,-0.03285417705774307
1783245619465613800,0.22361376953125,-0.020157895982265472,0.07160922884941101,-0.05377410724759102
1783245619475625700,0.233625732421875,-0.022220710292458534,0.056076280772686005,-0.051113490015268326
1783245619485636600,0.24363671875,-0.010053792968392372,0.01314452663064003,-0.034665804356336594
1783245619495648800,0.253648681640625,0.003778879763558507,-0.02498028427362442,-0.014459006488323212
1783245619505660700,0.26366064453125,0.015526882372796535,-0.03803456574678421,0.008797047659754753
1783245619515672600,0.273672607421875,0.0316254124045372,-0.0487089678645134,0.026953822001814842
1783245619525683700,0.28368359375,0.052048396319150925,-0.06651779264211655,0.03174484893679619
1783245619535696000,0.29369580078125,0.07427380979061127,-0.05369973182678223,0.005687948781996965
1783245619545707800,0.303707763671875,0.08014341443777084,0.00022741546854376793,-0.04100525379180908
1783245619555718700,0.31371875,0.07521108537912369,0.06678175926208496,-0.0968579351902008
1783245619565730800,0.323730712890625,0.07258760184049606,0.11851925402879715,-0.14589045941829681
1783245619575742700,0.33374267578125,0.08028722554445267,0.15543457865715027,-0.18518826365470886
1783245619585755000,0.3437548828125,0.10184657573699951,0.1889621764421463,-0.22007966041564941
1783245619595765800,0.353765869140625,0.13487958908081055,0.2202739715576172,-0.25739288330078125
1783245619605777700,0.363777587890625,0.16861970722675323,0.22834254801273346,-0.2832503020763397
1783245619615789600,0.37378955078125,0.20471352338790894,0.19605593383312225,-0.2915806174278259
1783245619625801700,0.3838017578125,0.23382027447223663,0.13726559281349182,-0.2872324585914612
1783245619635812900,0.393812744140625,0.2553424537181854,0.06948107481002808,-0.27027785778045654
1783245619645824800,0.40382470703125,0.26092949509620667,0.0005771090509369969,-0.23825176060199738
1783245619655837000,0.4138369140625,0.24678641557693481,-0.052052173763513565,-0.18290601670742035
1783245619665847800,0.423847900390625,0.22341957688331604,-0.07706325501203537,-0.11598929017782211
1783245619675859700,0.433859619140625,0.19764718413352966,-0.08229772001504898,-0.04580572620034218
1783245619685871900,0.443871826171875,0.17655815184116364,-0.0728142037987709,0.014608879573643208
1783245619695883800,0.4538837890625,0.1551053822040558,-0.054527051746845245,0.06500253826379776
1783245619705894700,0.463894775390625,0.13604167103767395,-0.016330134123563766,0.10142180323600769
1783245619715906800,0.47390673828125,0.11909396946430206,0.03998503461480141,0.12510089576244354
1783245619725918700,0.483918701171875,0.11474236845970154,0.10988422483205795,0.1270897388458252
1783245619735929600,0.4939296875,0.12849433720111847,0.1722687929868698,0.10953863710165024
1783245619745941800,0.503941650390625,0.15795981884002686,0.20100189745426178,0.07999859005212784
1783245619755953700,0.51395361328125,0.1982850879430771,0.2020377367734909,0.0356808565557003
1783245619765965800,0.5239658203125,0.23932786285877228,0.20041294395923615,-0.020443931221961975
1783245619775976700,0.533976806640625,0.2864454686641693,0.1828378438949585,-0.07134938985109329
1783245619785988900,0.54398876953125,0.33034688234329224,0.15293480455875397,-0.10999718308448792
1783245619796000800,0.554000732421875,0.37320417165756226,0.11050637811422348,-0.12537752091884613
1783245619806013000,0.564012939453125,0.40949559211730957,0.06944815069437027,-0.1295914351940155
1783245619816023800,0.57402392578125,0.43639084696769714,0.05486610159277916,-0.1435963362455368
1783245619826035700,0.58403564453125,0.44756650924682617,0.06905488669872284,-0.17180639505386353
1783245619836047600,0.594047607421875,0.44030967354774475,0.095883309841156,-0.20638594031333923
1783245619846058800,0.604058837890625,0.4253363311290741,0.11428521573543549,-0.23589083552360535
1783245619856070700,0.614070556640625,0.4077494740486145,0.10388416051864624,-0.25049224495887756
1783245619866082600,0.62408251953125,0.3934248685836792,0.0769508108496666,-0.23733410239219666
1783245619876095500,0.634095458984375,0.37682437896728516,0.06690169870853424,-0.1995697319507599
1783245619886106400,0.6441064453125,0.35653454065322876,0.08638059347867966,-0.14093253016471863
1783245619896118500,0.654118408203125,0.33485063910484314,0.10062992572784424,-0.07407580316066742
1783245619906130400,0.66413037109375,0.31676432490348816,0.08944491297006607,-0.015511821955442429
1783245619916142300,0.674142333984375,0.3053757846355438,0.0679284930229187,0.030414268374443054
1783245619926153500,0.684153564453125,0.2951764166355133,0.04447243735194206,0.05817612260580063
1783245619936165400,0.694165283203125,0.2861860990524292,0.02504582516849041,0.06890907138586044
1783245619946177500,0.704177490234375,0.2779585123062134,0.0011298400349915028,0.06303094327449799
1783245619956188400,0.7141884765625,0.2750336825847626,-0.021152790635824203,0.05355621129274368
1783245619966200300,0.724200439453125,0.2700570523738861,-0.04748612642288208,0.038171395659446716
1783245619976212500,0.73421240234375,0.2634134292602539,-0.06447596848011017,0.025547731667757034
1783245619986224400,0.744224365234375,0.2565208971500397,-0.0743858590722084,0.016150236129760742
1783245619996235300,0.7542353515625,0.24726705253124237,-0.07513932883739471,0.005500798113644123
1783245620006247400,0.764247314453125,0.23334351181983948,-0.05532247945666313,-0.003031437285244465
1783245620016259300,0.77425927734375,0.21986009180545807,-0.026728281751275063,-0.01664132811129093
1783245620026271200,0.784271240234375,0.20517568290233612,-0.001350753242149949,-0.03289992734789848
1783245620036282400,0.794282470703125,0.19631530344486237,0.01850438117980957,-0.04333013296127319
1783245620046294500,0.80429443359375,0.19743649661540985,0.015833765268325806,-0.04915526509284973
1783245620056306400,0.814306396484375,0.21388305723667145,-0.00895096454769373,-0.04125525802373886
1783245620066317300,0.8243173828125,0.233660489320755,-0.054450538009405136,-0.020390190184116364
1783245620076329500,0.83432958984375,0.2578420042991638,-0.12681105732917786,0.013288205489516258
1783245620086341400,0.84434130859375,0.28186291456222534,-0.23892748355865479,0.06296894699335098
1783245620096353500,0.854353515625,0.2992529273033142,-0.36124640703201294,0.11923407018184662
1783245620106364400,0.864364501953125,0.3060852885246277,-0.4407185912132263,0.16961975395679474
1783245620116376300,0.874376220703125,0.29565107822418213,-0.43748340010643005,0.19940821826457977
1783245620126388200,0.88438818359375,0.2672777771949768,-0.3469737470149994,0.20647279918193817
1783245620136399600,0.894399658203125,0.22135721147060394,-0.1836516261100769,0.1930098980665207
1783245620146411500,0.90441162109375,0.1727832704782486,0.024481069296598434,0.15344731509685516
1783245620156423400,0.91442333984375,0.12022941559553146,0.22210533916950226,0.10439255833625793
1783245620166435600,0.924435546875,0.06572595983743668,0.3511703908443451,0.06877437233924866
1783245620176446500,0.934446533203125,0.026448406279087067,0.3827604353427887,0.07002704590559006
1783245620186458400,0.944458251953125,0.004594771191477776,0.3152274787425995,0.11204133927822113
1783245620196470500,0.954470458984375,-0.006667902693152428,0.17329524457454681,0.19127924740314484
1783245620206482400,0.964482421875,-0.014372161589562893,-0.0076249949634075165,0.2968381345272064
1783245620216493300,0.974493408203125,-0.018704654648900032,-0.16421619057655334,0.3984012305736542
1783245620226505500,0.98450537109375,-0.021139848977327347,-0.20084023475646973,0.4579833149909973
1783245620236517400,0.994517333984375,-0.030490944162011147,-0.137154221534729,0.4656503200531006
1783245620246528500,1.004528564453125,-0.04265466704964638,-0.07314541935920715,0.4400829076766968
1783245620256540400,1.01454052734375,-0.05322199687361717,-0.05241063982248306,0.4097577929496765
1783245620266552600,1.024552490234375,-0.05530219152569771,-0.06621327251195908,0.3926994502544403
1783245620276564500,1.034564453125,-0.04447537660598755,-0.12791870534420013,0.4130883514881134
1783245620286575400,1.044575439453125,-0.026396239176392555,-0.23312582075595856,0.46870818734169006
1783245620296587500,1.05458740234375,-0.008605779148638248,-0.3504232168197632,0.5411329865455627
1783245620306599400,1.064599365234375,0.0035054779145866632,-0.4358113706111908,0.614486038684845
1783245620316610300,1.0746103515625,0.003975734580308199,-0.45542582869529724,0.6764900088310242
1783245620326622500,1.08462255859375,0.004295580089092255,-0.4281150996685028,0.7105888724327087
1783245620336634400,1.09463427734375,0.01027166098356247,-0.355496346950531,0.7044434547424316
1783245620346646300,1.104646240234375,0.015388126485049725,-0.2435927391052246,0.6561707258224487
1783245620356657400,1.114657470703125,0.008472904562950134,-0.11328775435686111,0.5715271830558777
1783245620366669300,1.12466943359375,-0.0048839133232831955,0.031909383833408356,0.45526957511901855
1783245620376681200,1.13468115234375,-0.016550157219171524,0.1793752759695053,0.3219330906867981
1783245620386693400,1.144693359375,-0.010542331263422966,0.30489566922187805,0.19220702350139618
1783245620396704500,1.15470458984375,0.012335668317973614,0.391529381275177,0.0787382498383522
1783245620406716400,1.16471630859375,0.0509730726480484,0.439567506313324,-0.01707509532570839
1783245620416728600,1.174728515625,0.1047990545630455,0.4547080099582672,-0.09683755040168762
1783245620426739500,1.184739501953125,0.16582299768924713,0.4424937069416046,-0.15530964732170105
1783245620436751400,1.19475146484375,0.2301410734653473,0.38592490553855896,-0.1825731098651886
1783245620446763500,1.204763427734375,0.3035985231399536,0.28144481778144836,-0.1641078144311905
1783245620456775400,1.214775390625,0.37893152236938477,0.14618267118930817,-0.10086200386285782
1783245620466786300,1.224786376953125,0.44763922691345215,0.031106939539313316,-0.008353646844625473
1783245620476798500,1.234798583984375,0.5018823146820068,-0.02503145858645439,0.09093053638935089
1783245620486810400,1.244810302734375,0.5366948843002319,-0.027239752933382988,0.17307761311531067
1783245620496821500,1.254821533203125,0.5489912629127502,-0.010249009355902672,0.2271338552236557
1783245620506833400,1.26483349609375,0.5399290323257446,0.017055848613381386,0.2636583149433136
1783245620516845600,1.274845458984375,0.5205058455467224,0.061222098767757416,0.28867456316947937
1783245620526857500,1.284857421875,0.4942822754383087,0.12422370165586472,0.312309592962265
1783245620536868400,1.294868408203125,0.46674883365631104,0.19991932809352875,0.3217182755470276
1783245620546880500,1.304880615234375,0.4415196180343628,0.27373310923576355,0.3133905827999115
1783245620556892400,1.314892333984375,0.43053919076919556,0.34480127692222595,0.2826796770095825
1783245620566904300,1.324904296875,0.4404863715171814,0.408456951379776,0.22611971199512482
1783245620576915500,1.33491552734375,0.468019962310791,0.45397186279296875,0.148899108171463
1783245620586927400,1.34492724609375,0.5098366141319275,0.46920832991600037,0.05713615566492081
1783245620596939300,1.354939208984375,0.5611810684204102,0.4650575518608093,-0.033681370317935944
1783245620606950400,1.364950439453125,0.6143151521682739,0.4648679196834564,-0.11157749593257904
1783245620616962600,1.374962646484375,0.6692284941673279,0.45587244629859924,-0.17042076587677002
1783245620626974500,1.384974365234375,0.7261314988136292,0.44075021147727966,-0.21508143842220306
1783245620636986400,1.394986328125,0.7788132429122925,0.4270312786102295,-0.24894514679908752
1783245620646997500,1.40499755859375,0.8189228773117065,0.4218634068965912,-0.27200838923454285
1783245620657009400,1.415009521484375,0.8471991419792175,0.42901113629341125,-0.2899809777736664
1783245620667021600,1.425021484375,0.8634678721427917,0.45519718527793884,-0.306522399187088
1783245620677033500,1.435033447265625,0.8766578435897827,0.49178987741470337,-0.3270499110221863
1783245620687044400,1.44504443359375,0.8871509432792664,0.5116149187088013,-0.34885162115097046
1783245620697056500,1.455056396484375,0.9008655548095703,0.4911381006240845,-0.361006498336792
1783245620707068400,1.465068359375,0.9198243618011475,0.4707220494747162,-0.3668212294578552
1783245620717079300,1.475079345703125,0.9509491920471191,0.47193971276283264,-0.3691452443599701
1783245620727091200,1.48509130859375,0.9839028716087341,0.48127490282058716,-0.3687971532344818
1783245620737103400,1.495103271484375,1.0092769861221313,0.4886288344860077,-0.3723227381706238
1783245620747115300,1.505115234375,1.0239496231079102,0.5142912864685059,-0.38685640692710876
1783245620757126400,1.51512646484375,1.0260580778121948,0.5394917130470276,-0.40513235330581665
1783245620767138600,1.525138671875,1.0191439390182495,0.543349027633667,-0.41457512974739075
1783245620777150500,1.535150390625,1.0147830247879028,0.5322415828704834,-0.41568630933761597
1783245620787161300,1.545161376953125,1.0086979866027832,0.5180160403251648,-0.4030973017215729
1783245620797173500,1.555173583984375,0.9970049858093262,0.4803535044193268,-0.3722398281097412
1783245620807185400,1.565185302734375,0.9750930666923523,0.44654732942581177,-0.3335755169391632
1783245620817197300,1.575197265625,0.9432832598686218,0.45415666699409485,-0.29805129766464233
1783245620827208400,1.58520849609375,0.8975709080696106,0.48600462079048157,-0.26246505975723267
1783245620837220400,1.595220458984375,0.8415316939353943,0.5081740021705627,-0.21602654457092285
1783245620847232300,1.605232177734375,0.7815600037574768,0.5085234045982361,-0.14806880056858063
1783245620857244400,1.615244384765625,0.7175600528717041,0.5068610906600952,-0.06152789667248726
1783245620867255600,1.625255615234375,0.6570019125938416,0.5236760377883911,0.025523114949464798
1783245620877267200,1.63526708984375,0.6073223948478699,0.5547810196876526,0.09062108397483826
1783245620887279000,1.645279052734375,0.5793906450271606,0.5914191603660583,0.1253923773765564
1783245620897290000,1.6552900390625,0.5753090977668762,0.6433360576629639,0.12547779083251953
1783245620907302000,1.665302001953125,0.6057698130607605,0.7215270400047302,0.09659047424793243
1783245620917314000,1.67531396484375,0.6635451912879944,0.8211403489112854,0.03744642063975334
1783245620927326000,1.685325927734375,0.7440054416656494,0.8940872550010681,-0.04977556690573692
1783245620937336800,1.6953369140625,0.8310920000076294,0.8680710196495056,-0.1363523006439209
1783245620947349000,1.705348876953125,0.9120526313781738,0.7322084903717041,-0.18904054164886475
1783245620957361000,1.71536083984375,0.9900844097137451,0.5142378211021423,-0.1891937255859375
1783245620967372000,1.7253720703125,1.0812162160873413,0.24913239479064941,-0.13659842312335968
1783245620977384200,1.73538427734375,1.1714146137237549,-0.005780060775578022,-0.041857801377773285
1783245620987396000,1.74539599609375,1.2496744394302368,-0.19499285519123077,0.06651261448860168
1783245620997408000,1.755407958984375,1.290841817855835,-0.30086639523506165,0.17056329548358917
1783245621007419100,1.765419189453125,1.3036335706710815,-0.3105275630950928,0.25880342721939087
1783245621017431000,1.77543115234375,1.2884842157363892,-0.235868901014328,0.32573139667510986
1783245621027443000,1.78544287109375,1.2418863773345947,-0.11107104271650314,0.3728240728378296
1783245621037455000,1.795455078125,1.1749351024627686,0.03548853099346161,0.4143577218055725
1783245621047466000,1.805466064453125,1.0916556119918823,0.18686527013778687,0.4660036265850067
1783245621057478000,1.815477783203125,1.0219343900680542,0.3233630955219269,0.5401290059089661
1783245621067490000,1.825489990234375,0.9887351989746094,0.4222361445426941,0.6385306715965271
1783245621077501200,1.835501220703125,0.9931879043579102,0.49521464109420776,0.7362216711044312
1783245621087513000,1.84551318359375,1.0113935470581055,0.5600056052207947,0.8124709129333496
1783245621097525000,1.85552490234375,1.0385596752166748,0.610897958278656,0.8470377326011658
1783245621107537200,1.865537109375,1.079171895980835,0.6477001905441284,0.8262088894844055
1783245621117548000,1.875548095703125,1.1510894298553467,0.688224196434021,0.7463375329971313
1783245621127560000,1.885559814453125,1.2498890161514282,0.7516356706619263,0.6101152896881104
1783245621137572000,1.895572021484375,1.3713470697402954,0.8277579545974731,0.41961869597435
1783245621147584000,1.905583984375,1.5087717771530151,0.8805521726608276,0.20182643830776215
1783245621157595000,1.915594970703125,1.6462500095367432,0.8931961059570312,-0.02237050235271454
1783245621167607000,1.92560693359375,1.7630809545516968,0.8587356209754944,-0.2148326188325882
1783245621177619000,1.935618896484375,1.8567845821380615,0.7794061899185181,-0.36001214385032654
1783245621187629800,1.9456298828125,1.928114414215088,0.6778926253318787,-0.44603440165519714
1783245621197642000,1.95564208984375,1.9656908512115479,0.5730684995651245,-0.473297655582428
1783245621207654000,1.96565380859375,1.9594109058380127,0.4626479744911194,-0.45554715394973755
1783245621217665800,1.975665771484375,1.9090827703475952,0.39539262652397156,-0.40474969148635864
1783245621227677200,1.98567724609375,1.82691490650177,0.38887664675712585,-0.3326835036277771
1783245621237689000,1.995689208984375,1.7316972017288208,0.43271881341934204,-0.24647551774978638
1783245621247701000,2.005700927734375,1.652231216430664,0.5085981488227844,-0.16213560104370117
1783245621257711900,2.0157119140625,1.5847686529159546,0.600772500038147,-0.07876341789960861
1783245621267724000,2.02572412109375,1.5244985818862915,0.6857931613922119,0.0020123817957937717
1783245621277736000,2.03573583984375,1.4706135988235474,0.7422050833702087,0.08052949607372284
1783245621287748000,2.045748046875,1.4264971017837524,0.7587316036224365,0.1459716260433197
1783245621297759000,2.055759033203125,1.3897762298583984,0.7554427981376648,0.19249723851680756
1783245621307771000,2.06577099609375,1.3553165197372437,0.7484728097915649,0.20662477612495422
1783245621317783000,2.075782958984375,1.3272124528884888,0.7476673722267151,0.18348923325538635
1783245621327795000,2.085794921875,1.3051337003707886,0.7615514993667603,0.1275005340576172
1783245621337806000,2.09580615234375,1.2884669303894043,0.7760587930679321,0.0505698136985302
1783245621347818000,2.10581787109375,1.2762800455093384,0.7990133762359619,-0.039347823709249496
1783245621357830100,2.115830078125,1.2688056230545044,0.8319156169891357,-0.1291060894727707
1783245621367841000,2.125841064453125,1.2658449411392212,0.8726657032966614,-0.21110908687114716
1783245621377853000,2.13585302734375,1.2750684022903442,0.8969823718070984,-0.2920493483543396
1783245621387865000,2.145864990234375,1.2944689989089966,0.8994316458702087,-0.36770495772361755
1783245621397877000,2.155876953125,1.3276411294937134,0.871299684047699,-0.4351330101490021
1783245621407888000,2.165887939453125,1.358884334564209,0.8402740955352783,-0.48927345871925354
1783245621417900000,2.175900146484375,1.3950661420822144,0.8155938386917114,-0.533619225025177
1783245621427912000,2.185911865234375,1.4343091249465942,0.7605617046356201,-0.5586694478988647
1783245621437923000,2.195923095703125,1.466667652130127,0.6601885557174683,-0.5461612939834595
1783245621447935200,2.205935302734375,1.495570421218872,0.5300062894821167,-0.4809546172618866
1783245621457947100,2.215947021484375,1.526746392250061,0.40082940459251404,-0.3652333617210388
1783245621467959000,2.225958984375,1.5583370923995972,0.298249214887619,-0.21107065677642822
1783245621477970000,2.235969970703125,1.5852516889572144,0.2378905862569809,-0.04367459937930107
1783245621487982000,2.245982177734375,1.6004106998443604,0.23500744998455048,0.11290010064840317
1783245621497994000,2.255993896484375,1.6013156175613403,0.29402101039886475,0.23227660357952118
1783245621508006100,2.266006103515625,1.5910453796386719,0.3814009130001068,0.3087916374206543
1783245621518017000,2.27601708984375,1.5828150510787964,0.44251516461372375,0.3484407067298889
1783245621528029000,2.28602880859375,1.5835481882095337,0.45324984192848206,0.36088457703590393
1783245621538041000,2.296041015625,1.5826799869537354,0.4332243800163269,0.36099541187286377
1783245621548052000,2.306052001953125,1.5850368738174438,0.3914188742637634,0.35835593938827515
1783245621558063900,2.31606396484375,1.5884284973144531,0.33595043420791626,0.3602704107761383
1783245621568075800,2.32607568359375,1.5962507724761963,0.2931273281574249,0.36263397336006165
1783245621578088000,2.336087890625,1.6036639213562012,0.2819949984550476,0.3581564426422119
1783245621588099000,2.34609912109375,1.5952619314193726,0.2990269958972931,0.34828463196754456
1783245621598111000,2.356111083984375,1.5805102586746216,0.33264750242233276,0.336521714925766
1783245621608123100,2.366123046875,1.5559478998184204,0.375521183013916,0.31542494893074036
1783245621618134000,2.376134033203125,1.5353302955627441,0.4170149862766266,0.29089707136154175
1783245621628146000,2.38614599609375,1.515235424041748,0.4490498900413513,0.26971080899238586
1783245621638158000,2.396157958984375,1.509482741355896,0.454379141330719,0.2608782649040222
1783245621648170000,2.406169921875,1.5150208473205566,0.4712025821208954,0.26306313276290894
1783245621658180900,2.416180908203125,1.52774178981781,0.5044251084327698,0.26266637444496155
1783245621668193000,2.426193115234375,1.5453237295150757,0.5254395604133606,0.25456929206848145
1783245621678205000,2.436204833984375,1.563335657119751,0.517882227897644,0.23555129766464233
1783245621688216800,2.446216796875,1.5770937204360962,0.47718968987464905,0.2171453982591629
1783245621698228200,2.456228271484375,1.5848792791366577,0.41134217381477356,0.21014662086963654
1783245621708240100,2.466240234375,1.5936603546142578,0.32157447934150696,0.2285946011543274
1783245621718252000,2.476251953125,1.6007516384124756,0.21584762632846832,0.27588528394699097
1783245621728263000,2.486262939453125,1.5938668251037598,0.11196330934762955,0.3451061546802521
1783245621738275000,2.496275146484375,1.563458800315857,0.05331650748848915,0.42745617032051086
1783245621748287000,2.506286865234375,1.5018202066421509,0.07734301686286926,0.5093361139297485
1783245621758299100,2.516299072265625,1.4248957633972168,0.16834251582622528,0.5825953483581543
1783245621768310000,2.52631005859375,1.3294334411621094,0.30910390615463257,0.6334635615348816
1783245621778322000,2.536322021484375,1.233845591545105,0.5088483095169067,0.6496970057487488
1783245621788333800,2.546333740234375,1.155173420906067,0.7544103860855103,0.6167259812355042
1783245621798346000,2.556345947265625,1.1028965711593628,1.0277104377746582,0.5105987787246704
1783245621808357000,2.566357177734375,1.0722178220748901,1.2591532468795776,0.3296196758747101
1783245621818369000,2.576369140625,1.0682693719863892,1.3572360277175903,0.10071992129087448
1783245621828381200,2.586381103515625,1.0878249406814575,1.291654348373413,-0.10780851542949677
1783245621838392000,2.59639208984375,1.1336638927459717,1.0940523147583008,-0.24371889233589172
1783245621848404000,2.606404052734375,1.2055859565734863,0.7946723103523254,-0.2679685652256012
1783245621858416000,2.616416015625,1.2880734205245972,0.45703092217445374,-0.165922150015831
1783245621868428000,2.626427978515625,1.3459787368774414,0.1341354101896286,0.044784482568502426
1783245621878438400,2.6364384765625,1.3714953660964966,-0.12872235476970673,0.3120095729827881
1783245621888450600,2.646450439453125,1.3724335432052612,-0.29003238677978516,0.5840885043144226
1783245621898462500,2.65646240234375,1.3522874116897583,-0.3310947120189667,0.832920253276825
1783245621908473600,2.6664736328125,1.3219960927963257,-0.27339813113212585,1.0325106382369995
1783245621918485800,2.67648583984375,1.2989513874053955,-0.12605251371860504,1.1574373245239258
1783245621928497700,2.68649755859375,1.2878612279891968,0.10400650650262833,1.2023731470108032
1783245621938509600,2.696509521484375,1.2815971374511719,0.3653281629085541,1.163405179977417
1783245621948520700,2.706520751953125,1.2742018699645996,0.6085027456283569,1.0503311157226562
1783245621958532600,2.71653271484375,1.2655619382858276,0.7988914251327515,0.8823200464248657
1783245621968544500,2.72654443359375,1.2508609294891357,0.9240485429763794,0.6826399564743042
1783245621978556700,2.736556640625,1.236990213394165,0.9799558520317078,0.47562992572784424
1783245621988567600,2.746567626953125,1.2430883646011353,0.9833908081054688,0.28010091185569763
1783245621998579500,2.756579345703125,1.2737153768539429,0.9305924773216248,0.12191114574670792
1783245622008591600,2.766591552734375,1.3180441856384277,0.8257339596748352,0.02200879156589508
1783245622018602500,2.7766025390625,1.364877700805664,0.7046135067939758,-0.012984735891222954
1783245622028614400,2.786614501953125,1.4100958108901978,0.596340537071228,0.012332338839769363
1783245622038626600,2.79662646484375,1.4524978399276733,0.53482985496521,0.07318475842475891
1783245622048638500,2.806638427734375,1.485909104347229,0.5374690294265747,0.12766104936599731
1783245622058649600,2.816649658203125,1.4989986419677734,0.6090633869171143,0.15180732309818268
1783245622068661500,2.82666162109375,1.483773112297058,0.7219774127006531,0.12040439993143082
1783245622078673700,2.836673583984375,1.4556176662445068,0.8190575838088989,0.049089215695858
1783245622088685600,2.846685546875,1.4280712604522705,0.874417781829834,-0.041030291467905045
1783245622098696400,2.856696533203125,1.4105820655822754,0.9033084511756897,-0.128694549202919
1783245622108708600,2.86670849609375,1.4021114110946655,0.9202725291252136,-0.200216144323349
1783245622118720500,2.876720458984375,1.3801065683364868,0.9188457131385803,-0.23620404303073883
1783245622128731400,2.8867314453125,1.343427062034607,0.8699977397918701,-0.22558443248271942
1783245622138743600,2.89674365234375,1.3090791702270508,0.8190127611160278,-0.1791355013847351
1783245622148755500,2.90675537109375,1.2820720672607422,0.787535548210144,-0.120646633207798
1783245622158767400,2.916767333984375,1.2710437774658203,0.7694247961044312,-0.08512099087238312
1783245622168778800,2.92677880859375,1.2783634662628174,0.7483685612678528,-0.10253593325614929
1783245622178790700,2.936790771484375,1.293339490890503,0.7040752172470093,-0.17321184277534485
1783245622188802600,2.946802490234375,1.3284894227981567,0.6663459539413452,-0.2893248498439789
1783245622198813400,2.9568134765625,1.381824254989624,0.6747043132781982,-0.43219423294067383
1783245622208825600,2.96682568359375,1.4360816478729248,0.7070348262786865,-0.5781509280204773
1783245622218837500,2.97683740234375,1.4630118608474731,0.7224573493003845,-0.677210807800293
1783245622228849700,2.986849609375,1.438817024230957,0.7342690229415894,-0.7039758563041687
1783245622238860500,2.996860595703125,1.3725699186325073,0.7749955058097839,-0.6571038365364075
1783245622248872400,3.00687255859375,1.2829872369766235,0.809347927570343,-0.5569524765014648
1783245622258884400,3.01688427734375,1.203902244567871,0.819014310836792,-0.4347875118255615
1783245622268896500,3.026896484375,1.1588913202285767,0.8281412124633789,-0.320880651473999
1783245622278907600,3.03690771484375,1.1507623195648193,0.8523817658424377,-0.2631002366542816
1783245622288919600,3.04691943359375,1.1524581909179688,0.8748239874839783,-0.2618935704231262
1783245622298931700,3.056931640625,1.1355687379837036,0.8666920065879822,-0.3042074143886566
1783245622308942600,3.066942626953125,1.0788780450820923,0.8438705801963806,-0.3526361882686615
1783245622318954500,3.07695458984375,0.9907387495040894,0.8199855089187622,-0.38061320781707764
1783245622328966700,3.086966552734375,0.8890554904937744,0.769055187702179,-0.377332478761673
1783245622338978600,3.096978515625,0.7791830897331238,0.6897989511489868,-0.34668582677841187
1783245622348989400,3.106989501953125,0.6803315877914429,0.6229325532913208,-0.30187147855758667
1783245622359001600,3.117001708984375,0.5792643427848816,0.6038966774940491,-0.25261515378952026
1783245622369013500,3.127013427734375,0.4775009751319885,0.6312031745910645,-0.20228062570095062
1783245622379024400,3.1370244140625,0.3735436201095581,0.6698594689369202,-0.1477222591638565
1783245622389036500,3.14703662109375,0.2808648347854614,0.7134058475494385,-0.09517408907413483
1783245622399048400,3.15704833984375,0.23072990775108337,0.7754619717597961,-0.06302088499069214
1783245622409060400,3.167060302734375,0.2322620153427124,0.8327609896659851,-0.05856647714972496
1783245622419071500,3.177071533203125,0.2739405930042267,0.8654438853263855,-0.07292784750461578
1783245622429083600,3.187083740234375,0.3342968821525574,0.8889214992523193,-0.10427112132310867
1783245622439095600,3.197095458984375,0.39914771914482117,0.9216954112052917,-0.15086258947849274
1783245622449107700,3.207107666015625,0.4572368562221527,0.9428683519363403,-0.2048129141330719
1783245622459118600,3.21711865234375,0.49594148993492126,0.929272472858429,-0.24975022673606873
1783245622469130500,3.227130615234375,0.5150981545448303,0.9010429978370667,-0.2783890664577484
1783245622479142400,3.237142333984375,0.5208816528320312,0.8444027304649353,-0.2883680462837219
1783245622489153500,3.247153564453125,0.515531063079834,0.7303789854049683,-0.2709845304489136
1783245622499165400,3.25716552734375,0.4984225332736969,0.5663774609565735,-0.2214597910642624
1783245622509177300,3.26717724609375,0.4862830638885498,0.4082983434200287,-0.15219442546367645
1783245622519189500,3.277189453125,0.5051441192626953,0.31210029125213623,-0.0923691913485527
1783245622529200600,3.28720068359375,0.557689368724823,0.29186931252479553,-0.0758485421538353
1783245622539212500,3.297212646484375,0.6440938711166382,0.3362979590892792,-0.12028475850820541
1783245622549224700,3.307224609375,0.7885658740997314,0.4197838008403778,-0.24663551151752472
1783245622559236600,3.317236572265625,0.9942720532417297,0.5389325618743896,-0.45788484811782837
1783245622569247500,3.32724755859375,1.2480851411819458,0.6900174021720886,-0.732413649559021
1783245622579259600,3.337259765625,1.5154683589935303,0.8269495964050293,-1.017556071281433
1783245622589271600,3.347271484375,1.7344143390655518,0.8723165392875671,-1.227426528930664
1783245622599282400,3.357282470703125,1.8728185892105103,0.7850152254104614,-1.3159677982330322
1783245622609294600,3.367294677734375,1.924102544784546,0.5862603187561035,-1.2747188806533813
1783245622619306500,3.377306396484375,1.8828402757644653,0.3207908868789673,-1.124818205833435
1783245622629318400,3.387318359375,1.7818334102630615,0.04962460696697235,-0.9008236527442932
1783245622639329500,3.39732958984375,1.6497619152069092,-0.2234548181295395,-0.6235069036483765
1783245622649341700,3.407341796875,1.5136648416519165,-0.47713154554367065,-0.31980159878730774
1783245622659353600,3.417353515625,1.4080262184143066,-0.6508351564407349,-0.022960348054766655
1783245622669364500,3.427364501953125,1.343449592590332,-0.7019259929656982,0.22621218860149384
1783245622679376600,3.437376708984375,1.2979514598846436,-0.6275423765182495,0.41623198986053467
1783245622689388500,3.447388427734375,1.2478432655334473,-0.4912434220314026,0.5613061189651489
1783245622699400700,3.457400634765625,1.1629687547683716,-0.33485183119773865,0.6873360276222229
1783245622709411600,3.46741162109375,1.0474510192871094,-0.15594573318958282,0.7986500263214111
1783245622719423500,3.477423583984375,0.9206609725952148,0.065364770591259,0.8796033263206482
1783245622729435400,3.487435302734375,0.7869759202003479,0.3052005469799042,0.921083390712738
1783245622739447600,3.497447509765625,0.6423673033714294,0.5013740658760071,0.9221144914627075
1783245622749458400,3.50745849609375,0.4962460398674011,0.6588926315307617,0.875607967376709
1783245622759470300,3.51747021484375,0.3692425489425659,0.7903273105621338,0.7585796117782593
1783245622769482500,3.527482421875,0.27426037192344666,0.9069250822067261,0.5645923018455505
1783245622779493600,3.53749365234375,0.21930238604545593,1.0329374074935913,0.2879023253917694
1783245622789505500,3.547505615234375,0.2125033438205719,1.1303646564483643,-0.04267507046461105
1783245622799517700,3.557517578125,0.25833722949028015,1.0986058712005615,-0.3673081398010254
1783245622809529600,3.567529541015625,0.37443453073501587,0.9220893383026123,-0.619731068611145
1783245622819540500,3.57754052734375,0.5651155114173889,0.6416016817092896,-0.7472609877586365
1783245622829552600,3.587552734375,0.8090962171554565,0.30906951427459717,-0.7179957628250122
1783245622839564500,3.597564453125,1.0401664972305298,-0.04046867415308952,-0.5446288585662842
1783245622849576400,3.607576416015625,1.2021359205245972,-0.3788967728614807,-0.2644970715045929
1783245622859587300,3.61758740234375,1.264786958694458,-0.644058346748352,0.050254616886377335
1783245622869599500,3.627599609375,1.2380698919296265,-0.7494819760322571,0.3331715166568756
1783245622879612000,3.63761181640625,1.1485021114349365,-0.7000640630722046,0.5508588552474976
1783245622889623000,3.647623046875,1.0277602672576904,-0.5419101119041443,0.688985288143158
1783245622899635000,3.657635009765625,0.8912668228149414,-0.31595349311828613,0.7434824109077454
1783245622909647000,3.667647216796875,0.7547342777252197,-0.05622899904847145,0.7379278540611267
1783245622919659000,3.677658935546875,0.6288280487060547,0.20021753013134003,0.6795379519462585
1783245622929670000,3.687669921875,0.5282676219940186,0.3981980085372925,0.5756853222846985
1783245622939681800,3.697681884765625,0.45070788264274597,0.5141743421554565,0.44893115758895874
1783245622949694000,3.70769384765625,0.3861241042613983,0.5662524700164795,0.33274996280670166
1783245622959704800,3.717704833984375,0.3413815200328827,0.583094596862793,0.23959337174892426
1783245622969716700,3.727716796875,0.31346574425697327,0.5599533319473267,0.17589563131332397
1783245622979729000,3.73772900390625,0.3067174255847931,0.5211585760116577,0.14683915674686432
1783245622989740800,3.74774072265625,0.32639580965042114,0.4596256911754608,0.1500522643327713
1783245622999751700,3.757751708984375,0.36850470304489136,0.3685756027698517,0.17852210998535156
1783245623009763800,3.767763916015625,0.42816483974456787,0.28606900572776794,0.21401938796043396
1783245623019775700,3.777775634765625,0.4834279716014862,0.24440273642539978,0.24117989838123322
1783245623029788000,3.787787841796875,0.5233303904533386,0.23382626473903656,0.24754352867603302
1783245623039799000,3.797799072265625,0.5393118858337402,0.248699352145195,0.2247571051120758
1783245623049811000,3.80781103515625,0.5276173949241638,0.27413442730903625,0.18057340383529663
1783245623059822800,3.81782275390625,0.4955447316169739,0.2990363538265228,0.12791413068771362
1783245623069834000,3.827833984375,0.4499322474002838,0.32436567544937134,0.08007816225290298
1783245623079846000,3.837845947265625,0.3921124041080475,0.3177569806575775,0.046499017626047134
1783245623089857800,3.84785791015625,0.31686824560165405,0.27893343567848206,0.030672915279865265
1783245623099870000,3.857869873046875,0.22861981391906738,0.23299793899059296,0.034709349274635315
1783245623109880800,3.867880859375,0.13111881911754608,0.18232357501983643,0.04844433441758156
1783245623119892700,3.877892822265625,0.04150090366601944,0.13018900156021118,0.06207232177257538
1783245623129905000,3.88790478515625,-0.02793090045452118,0.10949330776929855,0.052300646901130676
1783245623139916800,3.897916748046875,-0.08239244669675827,0.1036723330616951,0.02771015837788582
1783245623149928000,3.907927978515625,-0.11990147083997726,0.09471958875656128,-0.01193525642156601
1783245623159939800,3.91793994140625,-0.1316654533147812,0.10116687417030334,-0.05747164413332939
1783245623169952000,3.927951904296875,-0.11062941700220108,0.14467200636863708,-0.11057481169700623
1783245623179963000,3.937962890625,-0.06482557952404022,0.18044114112854004,-0.16970431804656982
1783245623189974800,3.947974853515625,-0.014152283780276775,0.16474208235740662,-0.22313372790813446
1783245623199987000,3.957987060546875,0.025458022952079773,0.09561743587255478,-0.2528643310070038
1783245623209998800,3.967998779296875,0.049532201141119,-0.030149273574352264,-0.2462514340877533
1783245623220009700,3.978009765625,0.05190907046198845,-0.2064068615436554,-0.19848337769508362
1783245623230022000,3.98802197265625,0.02539091184735298,-0.38768741488456726,-0.11402547359466553
1783245623240033800,3.99803369140625,-0.02261316031217575,-0.5017783045768738,-0.027954302728176117
1783245623250045700,4.008045654296875,-0.08048072457313538,-0.5192041993141174,0.029473038390278816
1783245623260057000,4.01805712890625,-0.1525883972644806,-0.41817134618759155,0.042467787861824036
1783245623270069000,4.028069091796875,-0.2338302582502365,-0.23033034801483154,-0.0029377746395766735
1783245623280081000,4.038080810546875,-0.31335651874542236,0.016772694885730743,-0.10150355845689774
1783245623290092000,4.048092041015625,-0.3691079318523407,0.26110148429870605,-0.22067150473594666
1783245623300104000,4.05810400390625,-0.39365658164024353,0.4387036859989166,-0.33126571774482727
1783245623310115800,4.06811572265625,-0.38700106739997864,0.534808874130249,-0.39211174845695496
1783245623320128000,4.0781279296875,-0.3656655550003052,0.5407534837722778,-0.3848925828933716
1783245623330139000,4.088138916015625,-0.3344913721084595,0.451674222946167,-0.3122633695602417
1783245623340150800,4.09815087890625,-0.2920502722263336,0.2708605229854584,-0.18280094861984253
1783245623350163000,4.108162841796875,-0.2516604959964752,0.054939400404691696,-0.022995304316282272
1783245623360174800,4.1181748046875,-0.22610923647880554,-0.16304363310337067,0.1416855901479721
1783245623370185700,4.128185791015625,-0.2280339002609253,-0.3739321529865265,0.2900926470756531
1783245623380198000,4.138197998046875,-0.2608403265476227,-0.5232427716255188,0.4003533124923706
1783245623390209800,4.148209716796875,-0.31486308574676514,-0.5845354199409485,0.4737228751182556
1783245623400221000,4.158220947265625,-0.3852730095386505,-0.5941535830497742,0.5214023590087891
1783245623410232800,4.16823291015625,-0.4618450105190277,-0.5812881588935852,0.5555209517478943
1783245623420245000,4.178244873046875,-0.5361396670341492,-0.539148211479187,0.5856528282165527
1783245623430257000,4.1882568359375,-0.5915642976760864,-0.4807109534740448,0.6235501170158386
1783245623440267800,4.198267822265625,-0.617652416229248,-0.4097357392311096,0.6586259603500366
1783245623450280000,4.208280029296875,-0.6041965484619141,-0.31013378500938416,0.6694597005844116
1783245623460291800,4.218291748046875,-0.5602521896362305,-0.17111875116825104,0.6446231603622437
1783245623470302700,4.228302734375,-0.5053048133850098,0.006188389845192432,0.5748962759971619
1783245623480315000,4.23831494140625,-0.4417937099933624,0.17246447503566742,0.4560590982437134
1783245623490326800,4.248326904296875,-0.38010555505752563,0.2947736084461212,0.29860129952430725
1783245623500338700,4.258338623046875,-0.32974913716316223,0.37842419743537903,0.1133686751127243
1783245623510350000,4.26835009765625,-0.2797333896160126,0.4268074333667755,-0.07467792928218842
1783245623520362000,4.278362060546875,-0.22302432358264923,0.397128164768219,-0.24541427195072174
1783245623530374000,4.288373779296875,-0.1638544797897339,0.2835099995136261,-0.3637411892414093
1783245623540386000,4.298385986328125,-0.10583896934986115,0.10079103708267212,-0.40201646089553833
1783245623550397000,4.30839697265625,-0.05894683301448822,-0.11643794924020767,-0.34379124641418457
1783245623560408800,4.318408935546875,-0.02393050491809845,-0.3212450444698334,-0.2021038830280304
1783245623570421000,4.3284208984375,-0.016923727467656136,-0.47212404012680054,-0.003462419379502535
1783245623580432000,4.338431884765625,-0.026541758328676224,-0.5345315337181091,0.20641539990901947
1783245623590443800,4.34844384765625,-0.05535236746072769,-0.47588980197906494,0.37743160128593445
1783245623600455700,4.35845556640625,-0.10156752169132233,-0.3059903383255005,0.48177677392959595
1783245623610467800,4.3684677734375,-0.14822237193584442,-0.13024355471134186,0.5309427380561829
1783245623620479000,4.37847900390625,-0.17539434134960175,-0.007660867180675268,0.5359832048416138
1783245623630491000,4.388490966796875,-0.1821662336587906,0.08999671787023544,0.5027384757995605
1783245623640503000,4.3985029296875,-0.17449936270713806,0.16915160417556763,0.43881526589393616
1783245623650514000,4.408513916015625,-0.15867087244987488,0.1981257200241089,0.3588578701019287
1783245623660525800,4.41852587890625,-0.14336007833480835,0.17953529953956604,0.26389801502227783
1783245623670538000,4.4285380859375,-0.127637580037117,0.11667458713054657,0.15893083810806274
1783245623680550000,4.4385498046875,-0.11398232728242874,0.04945357143878937,0.05270658805966377
1783245623690560800,4.448560791015625,-0.10834787786006927,0.012676915153861046,-0.04912044107913971
1783245623700573000,4.458572998046875,-0.1058422178030014,0.0019610717426985502,-0.1297270655632019
1783245623710584800,4.468584716796875,-0.10991179943084717,0.019815968349575996,-0.18869824707508087
1783245623720596700,4.4785966796875,-0.1147725060582161,0.0685482919216156,-0.22414223849773407
1783245623730607900,4.48860791015625,-0.12013957649469376,0.11122837662696838,-0.23432110249996185
1783245623740619800,4.498619873046875,-0.11782947182655334,0.13060756027698517,-0.21245691180229187
1783245623750632000,4.5086318359375,-0.09941824525594711,0.13553254306316376,-0.17166846990585327
1783245623760642800,4.518642822265625,-0.07340704649686813,0.12980207800865173,-0.11373152583837509
1783245623770655000,4.528655029296875,-0.05047456547617912,0.1137046068906784,-0.05787625163793564
1783245623780667000,4.5386669921875,-0.04321914538741112,0.08806779235601425,-0.01845754310488701
1783245623790679000,4.548678955078125,-0.06443415582180023,0.049694836139678955,-0.00017281295731663704
1783245623800690000,4.55868994140625,-0.10502754151821136,0.02302815578877926,0.005921763367950916
1783245623810701800,4.568701904296875,-0.15184032917022705,0.03643983602523804,0.010408923029899597
1783245623820714000,4.5787138671875,-0.20017866790294647,0.0930234044790268,0.02123926766216755
1783245623830726000,4.588725830078125,-0.24229735136032104,0.18419457972049713,0.035179585218429565
1783245623840736800,4.59873681640625,-0.2747495770454407,0.30247730016708374,0.03649332374334335
1783245623850748700,4.608748779296875,-0.29165905714035034,0.40715470910072327,0.01895161345601082
1783245623860760800,4.6187607421875,-0.28667351603507996,0.46388566493988037,-0.022809527814388275
1783245623870772000,4.62877197265625,-0.25890687108039856,0.4771314263343811,-0.08215993642807007
1783245623880784400,4.638784423828125,-0.21866939961910248,0.43286389112472534,-0.15196198225021362
1783245623890796500,4.648796630859375,-0.17257380485534668,0.3446482717990875,-0.21051956713199615
1783245623900808400,4.658808349609375,-0.12241436541080475,0.24274282157421112,-0.24655777215957642
1783245623910819600,4.668819580078125,-0.07171283662319183,0.1568063497543335,-0.26183658838272095
1783245623920831500,4.67883154296875,-0.02737894095480442,0.10429051518440247,-0.25832778215408325
1783245623930843400,4.688843505859375,-0.0038403247017413378,0.08751127123832703,-0.24993057548999786
1783245623940855600,4.69885546875,-0.0032736468128859997,0.0881846472620964,-0.24506744742393494
1783245623950866400,4.708866455078125,-0.005542660132050514,0.11545941233634949,-0.2514481246471405
1783245623960878300,4.71887841796875,0.0017942293779924512,0.17859816551208496,-0.2747550904750824
1783245623970890500,4.728890380859375,0.018056290224194527,0.2812561094760895,-0.323466420173645
1783245623980901400,4.7389013671875,0.039308808743953705,0.3995410203933716,-0.39647167921066284
1783245623990913300,4.748913330078125,0.054290689527988434,0.49106401205062866,-0.4840175211429596
1783245624000925200,4.75892529296875,0.06446533650159836,0.4973156750202179,-0.5497636795043945
1783245624010937300,4.768937255859375,0.08707664161920547,0.41019406914711,-0.572374165058136
1783245624020948500,4.778948486328125,0.11795231699943542,0.2625862956047058,-0.5451894998550415
1783245624030960400,4.78896044921875,0.14269095659255981,0.10540199279785156,-0.4714401960372925
1783245624040972500,4.79897265625,0.14544600248336792,-0.02046303078532219,-0.3615972697734833
1783245624050983400,4.8089833984375,0.12104292213916779,-0.12259446084499359,-0.22188729047775269
1783245624060995300,4.818995361328125,0.06594766676425934,-0.19821049273014069,-0.055492863059043884
1783245624071007500,4.829007568359375,-0.00818568654358387,-0.23590034246444702,0.12014713883399963
1783245624081019400,4.839019287109375,-0.08335427939891815,-0.23668667674064636,0.29325535893440247
1783245624091030300,4.8490302734375,-0.15278740227222443,-0.22073939442634583,0.45449644327163696
1783245624101042400,4.85904248046875,-0.2213514894247055,-0.19979555904865265,0.6015568375587463
1783245624111054300,4.869054443359375,-0.27421870827674866,-0.17932277917861938,0.724872887134552
1783245624121066200,4.879066162109375,-0.30771589279174805,-0.1484355628490448,0.8176867961883545
1783245624131077600,4.88907763671875,-0.311453640460968,-0.11071934551000595,0.8676732778549194
1783245624141089500,4.899089599609375,-0.2807810604572296,-0.06698427349328995,0.8604097366333008
1783245624151101400,4.909101318359375,-0.22394786775112152,-0.012371895834803581,0.7940245866775513
1783245624161112300,4.9191123046875,-0.15137596428394318,0.06098637357354164,0.6701424717903137
1783245624171124500,4.92912451171875,-0.0676959902048111,0.1379687637090683,0.4930714964866638
1783245624181136400,4.939136474609375,0.03341847285628319,0.21050119400024414,0.2776796519756317
1783245624191148500,4.9491484375,0.15071819722652435,0.25001344084739685,0.039564285427331924
1783245624201159400,4.959159423828125,0.28176480531692505,0.2289162576198578,-0.19089829921722412
1783245624211171300,4.96917138671875,0.41397929191589355,0.14385488629341125,-0.3834642767906189
1783245624221183500,4.97918359375,0.5326639413833618,0.0033657876774668694,-0.5113965272903442
1783245624231194600,4.989194580078125,0.6454450488090515,-0.1511702537536621,-0.5802666544914246
1783245624241206500,4.99920654296875,0.727381706237793,-0.27562639117240906,-0.5848300457000732
1783245624251218400,5.009218505859375,0.7605953216552734,-0.3458523452281952,-0.5354366898536682
1783245624261230600,5.019230712890625,0.7439814805984497,-0.3510848879814148,-0.4500699043273926
1783245624271241500,5.029241455078125,0.6963061094284058,-0.3174704611301422,-0.34350353479385376
1783245624281253400,5.03925341796875,0.6360626220703125,-0.2470771223306656,-0.2338528037071228
1783245624291265500,5.049265625,0.5770506858825684,-0.1429789513349533,-0.14626170694828033
1783245624301277400,5.05927734375,0.5342380404472351,-0.03625887632369995,-0.09210552275180817
1783245624311288300,5.069288330078125,0.49360087513923645,0.03903694450855255,-0.06252925843000412
1783245624321300500,5.079300537109375,0.45232996344566345,0.05959374085068703,-0.043149564415216446
1783245624331312400,5.0893125,0.4191288650035858,0.0429399311542511,-0.022491158917546272
1783245624341323300,5.0993232421875,0.3991144895553589,0.019482867792248726,0.007585717830806971
1783245624351335400,5.10933544921875,0.38247665762901306,-0.005860037636011839,0.04143476113677025
1783245624361347300,5.119347412109375,0.37211495637893677,-0.021479027345776558,0.07316985726356506
1783245624371359200,5.129359130859375,0.3602806627750397,-0.013878365978598595,0.09800170361995697
1783245624381370400,5.139370361328125,0.3502421975135803,0.024095796048641205,0.11153756827116013
1783245624391382500,5.149382568359375,0.3473007380962372,0.05462387576699257,0.11162358522415161
1783245624401394400,5.15939453125,0.3472529649734497,0.0815587043762207,0.10332701355218887
1783245624411406600,5.169406494140625,0.3419628143310547,0.11329985409975052,0.09499238431453705
1783245624421417500,5.17941748046875,0.32449203729629517,0.1321410983800888,0.09169620275497437
1783245624431429400,5.189429443359375,0.3075934648513794,0.13313578069210052,0.07854151725769043
1783245624441441500,5.199441650390625,0.30011773109436035,0.12514503300189972,0.041222043335437775
1783245624451452400,5.209452392578125,0.30490344762802124,0.11046222597360611,-0.024250971153378487
1783245624461464300,5.21946435546875,0.31489184498786926,0.08474618941545486,-0.10462064296007156
1783245624471476200,5.229476318359375,0.32665953040122986,0.06476210057735443,-0.18720659613609314
1783245624481488400,5.23948828125,0.3349186182022095,0.05495307967066765,-0.24511903524398804
1783245624491499500,5.24949951171875,0.3432077169418335,0.024062810465693474,-0.2641473412513733
1783245624501511400,5.259511474609375,0.3484807014465332,-0.01955663412809372,-0.23818278312683105
1783245624511523600,5.269523681640625,0.3527529537677765,-0.05709841847419739,-0.1847648322582245
1783245624521534500,5.279534423828125,0.346774697303772,-0.07248733937740326,-0.10991782695055008
1783245624531546400,5.28954638671875,0.31790605187416077,-0.06651146709918976,-0.0233770739287138
1783245624541558500,5.29955859375,0.2705285847187042,-0.04073699936270714,0.05586370453238487
1783245624551570400,5.3095703125,0.21740172803401947,-0.001527013722807169,0.10805819928646088
1783245624561581300,5.319581298828125,0.17987437546253204,0.03580204397439957,0.13473688066005707
1783245624571593500,5.329593505859375,0.15521083772182465,0.045967597514390945,0.1255417764186859
1783245624581605400,5.33960546875,0.14476604759693146,0.03821137174963951,0.08391589671373367
1783245624591617300,5.3496171875,0.13910549879074097,0.003842743579298258,0.025994006544351578
1783245624601628400,5.35962841796875,0.13738758862018585,-0.05934237688779831,-0.03891074284911156
1783245624611640600,5.369640625,0.14278635382652283,-0.11710367351770401,-0.08973104506731033
1783245624621652500,5.379652587890625,0.1571601778268814,-0.1587948054075241,-0.12176895141601562
1783245624631663400,5.389663330078125,0.1668357104063034,-0.18461042642593384,-0.12659992277622223
1783245624641675500,5.399675537109375,0.16567568480968475,-0.21137721836566925,-0.099897600710392
1783245624651687400,5.4096875,0.1521494835615158,-0.24378442764282227,-0.04853161796927452
1783245624661699600,5.419699462890625,0.12562216818332672,-0.26009050011634827,0.009733889251947403
1783245624671710500,5.42971044921875,0.08792165666818619,-0.2448630928993225,0.06227406486868858
1783245624681722400,5.439722412109375,0.04352952912449837,-0.20764848589897156,0.09549739956855774
1783245624691734300,5.449734375,-0.002254736376926303,-0.15721967816352844,0.11427934467792511
1783245624701746400,5.459746337890625,-0.04325457289814949,-0.08366771042346954,0.11465996503829956
1783245624711757300,5.46975732421875,-0.07595179975032806,0.005270685534924269,0.10947053134441376
1783245624721769200,5.479769287109375,-0.10548966377973557,0.08147337287664413,0.10574469715356827
1783245624731781400,5.489781494140625,-0.1340419352054596,0.1413010209798813,0.11128301173448563
1783245624741792500,5.49979248046875,-0.15407414734363556,0.1830126792192459,0.1278602033853531
1783245624751804400,5.509804443359375,-0.15595993399620056,0.19415773451328278,0.13538789749145508
1783245624761816600,5.519816650390625,-0.13359268009662628,0.18838658928871155,0.12833377718925476
1783245624771828500,5.529828369140625,-0.09496646374464035,0.18207010626792908,0.09821395576000214
1783245624781839400,5.53983935546875,-0.049848027527332306,0.19054600596427917,0.04544121026992798
1783245624791851500,5.5498515625,-0.00003572739660739899,0.19964441657066345,-0.025888625532388687
1783245624801863400,5.559863525390625,0.03724373131990433,0.12551240622997284,-0.0782540962100029
1783245624811874300,5.569874267578125,0.0670170709490776,-0.05653835088014603,-0.07313790172338486
1783245624821886200,5.57988623046875,0.09539640694856644,-0.29823678731918335,-0.01267688162624836
1783245624831898400,5.5898984375,0.10584238916635513,-0.5487004518508911,0.08286216109991074
1783245624841910300,5.59991015625,0.09597650170326233,-0.7407622933387756,0.1838447004556656
1783245624851921400,5.60992138671875,0.06127737835049629,-0.8241333365440369,0.26513954997062683
1783245624861933600,5.61993359375,0.0074955765157938,-0.7631048560142517,0.31328198313713074
1783245624871945500,5.629945556640625,-0.04095824435353279,-0.6060467958450317,0.32816025614738464
1783245624881957400,5.639957275390625,-0.07476308196783066,-0.4255851209163666,0.3122854232788086
1783245624891968500,5.649968505859375,-0.08654889464378357,-0.21292747557163239,0.2723694145679474
1783245624901980400,5.65998046875,-0.08067210018634796,0.017014117911458015,0.20379704236984253
1783245624911992300,5.669992431640625,-0.07579319179058075,0.2160944640636444,0.11681979894638062
1783245624922003200,5.680003173828125,-0.08487309515476227,0.3660440146923065,0.01634054072201252
1783245624932015400,5.690015380859375,-0.10703485459089279,0.4761020839214325,-0.0886244848370552
1783245624942027300,5.70002734375,-0.11954115331172943,0.5256377458572388,-0.19058635830879211
1783245624952039400,5.710039306640625,-0.11281987279653549,0.5029636025428772,-0.26083043217658997
1783245624962050600,5.720050537109375,-0.07106639444828033,0.3968532681465149,-0.279342919588089
1783245624972062500,5.7300625,-0.0031770935747772455,0.21959859132766724,-0.2337312400341034
1783245624982074400,5.740074462890625,0.0769978016614914,0.00559638999402523,-0.12961076200008392
1783245624992085500,5.75008544921875,0.1514134407043457,-0.19660091400146484,0.018758203834295273
1783245625002097400,5.760097412109375,0.20582139492034912,-0.3321998119354248,0.17944295704364777
1783245625012109300,5.770109375,0.23192809522151947,-0.35154154896736145,0.3152029514312744
1783245625022121500,5.78012158203125,0.23004114627838135,-0.23328596353530884,0.39722561836242676
1783245625032132400,5.79013232421875,0.22047773003578186,-0.05150391161441803,0.4202693998813629
1783245625042144300,5.800144287109375,0.190715029835701,0.09984946995973587,0.40125805139541626
1783245625052156400,5.810156494140625,0.1471310704946518,0.19099003076553345,0.35731935501098633
1783245625062168300,5.820168212890625,0.09049922227859497,0.22052417695522308,0.29995307326316833
1783245625072179200,5.83017919921875,0.034695349633693695,0.21257518231868744,0.24400031566619873
1783245625082191400,5.84019140625,0.0005741252098232508,0.18349270522594452,0.19686682522296906
1783245625092203300,5.850203369140625,0.0012630849378183484,0.15627732872962952,0.15618517994880676
1783245625102214400,5.86021435546875,0.030819222331047058,0.14753292500972748,0.11210846900939941
1783245625112226600,5.8702265625,0.07794572412967682,0.15134602785110474,0.07248301804065704
1783245625122238500,5.880238525390625,0.12854833900928497,0.17119795083999634,0.03824283182621002
1783245625132250400,5.89025048828125,0.18305711448192596,0.21102765202522278,0.010919064283370972
1783245625142261200,5.90026123046875,0.23523850739002228,0.2771836817264557,-0.019441908225417137
1783245625152273400,5.9102734375,0.27731725573539734,0.355763703584671,-0.061791494488716125
1783245625162285300,5.920285400390625,0.3118969798088074,0.4169382154941559,-0.11536610871553421
1783245625172297500,5.93029736328125,0.3387373983860016,0.4410582184791565,-0.16560399532318115
1783245625182308400,5.940308349609375,0.3632632791996002,0.4410437047481537,-0.2102491408586502
1783245625192320300,5.9503203125,0.38121962547302246,0.43568408489227295,-0.2514703571796417
1783245625202332400,5.96033251953125,0.38146644830703735,0.4169345796108246,-0.2812183201313019
1783245625212343600,5.970343505859375,0.36239689588546753,0.4029622972011566,-0.28963416814804077
1783245625222355500,5.98035546875,0.3342075049877167,0.410993754863739,-0.28481239080429077
1783245625232367400,5.990367431640625,0.29776960611343384,0.4339746832847595,-0.26424452662467957
1783245625242379500,6.000379638671875,0.257432222366333,0.4641229510307312,-0.21125395596027374
1783245625252390400,6.010390380859375,0.21979936957359314,0.4755502939224243,-0.12882113456726074
1783245625262402300,6.02040234375,0.1879822015762329,0.45829808712005615,-0.03799647092819214
1783245625272414500,6.03041455078125,0.15556487441062927,0.42913514375686646,0.05472174659371376
1783245625282425300,6.04042529296875,0.10603776574134827,0.4139450788497925,0.12965244054794312
1783245625292437200,6.050437255859375,0.03467623144388199,0.419811487197876,0.1744087189435959
1783245625302449400,6.060449462890625,-0.04548028111457825,0.4330112934112549,0.18060310184955597
1783245625312461300,6.07046142578125,-0.1204562559723854,0.444879949092865,0.14916661381721497
1783245625322472400,6.080472412109375,-0.18843792378902435,0.4500627815723419,0.08896925300359726
1783245625332484600,6.090484619140625,-0.23807258903980255,0.4606344699859619,0.014554407447576523
1783245625342496500,6.10049658203125,-0.26157477498054504,0.4640398621559143,-0.058871664106845856
1783245625352508400,6.11050830078125,-0.2601095139980316,0.4521523118019104,-0.12276435643434525
1783245625362519300,6.120519287109375,-0.2472519725561142,0.4253458082675934,-0.16757024824619293
1783245625372531500,6.130531494140625,-0.22163663804531097,0.3668452203273773,-0.19535528123378754
1783245625382543400,6.14054345703125,-0.18571484088897705,0.24823275208473206,-0.19864049553871155
1783245625392554200,6.15055419921875,-0.16597522795200348,0.10165609419345856,-0.1624380201101303
1783245625402566400,6.16056640625,-0.16429376602172852,-0.04694356024265289,-0.09852980077266693
1783245625412578300,6.170578369140625,-0.18055129051208496,-0.11475429683923721,-0.02889186516404152
1783245625422590500,6.180590576171875,-0.2101409137248993,-0.09384249895811081,0.026112454012036324
1783245625432601300,6.190601318359375,-0.24659878015518188,-0.04751760885119438,0.06678105890750885
1783245625442613200,6.20061328125,-0.2794044017791748,0.025157881900668144,0.07999348640441895
1783245625452625200,6.210625244140625,-0.301369845867157,0.14940579235553741,0.060732968151569366
1783245625462636500,6.220636474609375,-0.3075266182422638,0.30894267559051514,0.016953330487012863
1783245625472648400,6.2306484375,-0.2876434326171875,0.4941210448741913,-0.04707944765686989
1783245625482660400,6.240660400390625,-0.24204868078231812,0.7060960531234741,-0.14085263013839722
1783245625492672500,6.250672607421875,-0.19185927510261536,0.8636009693145752,-0.23698395490646362
1783245625502683400,6.260683349609375,-0.13418658077716827,0.854320228099823,-0.30312833189964294
1783245625512695300,6.2706953125,-0.05533917620778084,0.6753004193305969,-0.3214080035686493
1783245625522707500,6.28070751953125,0.045797836035490036,0.376354455947876,-0.29182714223861694
1783245625532719400,6.29071923828125,0.1297324150800705,0.053748968988657,-0.219199538230896
1783245625542730200,6.300730224609375,0.1629030704498291,-0.241207554936409,-0.10915394872426987
1783245625552742400,6.310742431640625,0.12696610391139984,-0.4723760485649109,0.0312122143805027
1783245625562754300,6.32075439453125,0.046394091099500656,-0.6130165457725525,0.1858798712491989
1783245625572765400,6.330765380859375,-0.05478179454803467,-0.6311841011047363,0.34221142530441284
1783245625582777300,6.34077734375,-0.14442414045333862,-0.5296579003334045,0.48235103487968445
1783245625592789500,6.35078955078125,-0.22466251254081726,-0.36508890986442566,0.5970656871795654
1783245625602801400,6.360801513671875,-0.2848112881183624,-0.18146605789661407,0.6700388789176941
1783245625612812300,6.370812255859375,-0.31206101179122925,0.014038200490176678,0.694697916507721
1783245625622824400,6.380824462890625,-0.3066299259662628,0.19235311448574066,0.6695453524589539
1783245625632836400,6.39083642578125,-0.27027592062950134,0.3102014660835266,0.597368061542511
1783245625642847200,6.40084716796875,-0.21554240584373474,0.3614864647388458,0.48395100235939026
1783245625652859400,6.410859375,-0.13701216876506805,0.3866714537143707,0.3328182101249695
1783245625662871300,6.420871337890625,-0.04723238945007324,0.38744843006134033,0.1620151847600937
1783245625672883200,6.43088330078125,0.0530790351331234,0.3540148437023163,-0.0005111526697874069
1783245625682894600,6.44089453125,0.15994296967983246,0.28295427560806274,-0.13787221908569336
1783245625692906500,6.450906494140625,0.26386457681655884,0.19009222090244293,-0.24386735260486603
1783245625702918400,6.46091845703125,0.35972538590431213,0.08327759802341461,-0.3072183132171631
1783245625712930600,6.4709306640625,0.44279468059539795,-0.042453691363334656,-0.33260223269462585
1783245625722941400,6.48094140625,0.5020688772201538,-0.17503146827220917,-0.32389527559280396
1783245625732953300,6.490953369140625,0.5362108945846558,-0.29653364419937134,-0.28224292397499084
1783245625742965500,6.500965576171875,0.5462926626205444,-0.38989099860191345,-0.21714434027671814
1783245625752976400,6.510976318359375,0.5315398573875427,-0.43125519156455994,-0.15744026005268097
1783245625762988300,6.52098828125,0.5048640966415405,-0.42470991611480713,-0.11527827382087708
1783245625773000400,6.53100048828125,0.46110832691192627,-0.38057923316955566,-0.10819213837385178
1783245625783012400,6.541012451171875,0.40707138180732727,-0.3073825240135193,-0.12652000784873962
1783245625793023200,6.551023193359375,0.3594130575656891,-0.2437412440776825,-0.15645740926265717
1783245625803035100,6.56103515625,0.3267761766910553,-0.22139641642570496,-0.17686741054058075
1783245625813047300,6.57104736328125,0.3137139081954956,-0.22252027690410614,-0.17924241721630096
1783245625823058400,6.581058349609375,0.31509828567504883,-0.23398429155349731,-0.16967247426509857
1783245625833070300,6.5910703125,0.3085746169090271,-0.2638404369354248,-0.1513131707906723
1783245625843082500,6.60108251953125,0.29554975032806396,-0.2980760931968689,-0.12922018766403198
1783245625853094400,6.611094482421875,0.2798115015029907,-0.31101956963539124,-0.1159840077161789
1783245625863105300,6.621105224609375,0.2654048502445221,-0.29769521951675415,-0.10253111273050308
1783245625873117400,6.631117431640625,0.25270503759384155,-0.264940470457077,-0.09024994820356369
1783245625883129000,6.641129150390625,0.24005338549613953,-0.23116126656532288,-0.08425324410200119
1783245625893140000,6.651139892578125,0.22175933420658112,-0.20639707148075104,-0.08132456243038177
1783245625903151900,6.66115185546875,0.20899364352226257,-0.15509653091430664,-0.0973815768957138
1783245625913163800,6.671163818359375,0.19608503580093384,-0.0947788655757904,-0.12782123684883118
1783245625923176000,6.681176025390625,0.17885524034500122,-0.06853260099887848,-0.1581634283065796
1783245625933187000,6.69118701171875,0.1595292091369629,-0.08670627325773239,-0.17096684873104095
1783245625943199000,6.701198974609375,0.14196811616420746,-0.13615445792675018,-0.15873156487941742
1783245625953211100,6.711211181640625,0.12462134659290314,-0.19816483557224274,-0.11323118209838867
1783245625963223000,6.72122314453125,0.10978956520557404,-0.2452552318572998,-0.058412544429302216
1783245625973234000,6.73123388671875,0.09791559725999832,-0.2494124323129654,-0.010732106864452362
1783245625983246000,6.74124609375,0.09087792783975601,-0.23365584015846252,0.016746390610933304
1783245625993258000,6.751258056640625,0.08510685712099075,-0.23103289306163788,0.037088677287101746
1783245626003268900,6.761268798828125,0.08139514923095703,-0.23270346224308014,0.05406680703163147
1783245626013281000,6.771281005859375,0.08243031799793243,-0.23176603019237518,0.07519899308681488
1783245626023293000,6.78129296875,0.08875584602355957,-0.2298082560300827,0.09608098119497299
1783245626033304800,6.791304931640625,0.09616582840681076,-0.225803405046463,0.1101086437702179
1783245626043316000,6.80131591796875,0.09407512843608856,-0.22862429916858673,0.11411438137292862
1783245626053328100,6.811328125,0.0834917277097702,-0.22521013021469116,0.10443352162837982
1783245626063340000,6.821340087890625,0.07050874084234238,-0.19874924421310425,0.09381960332393646
1783245626073352200,6.831352294921875,0.050578974187374115,-0.16195768117904663,0.09013698250055313
1783245626083363000,6.841363037109375,0.035212837159633636,-0.12909887731075287,0.09218044579029083
1783245626093375000,6.851375,0.02873176522552967,-0.08847396075725555,0.09189069271087646
1783245626103387100,6.86138720703125,0.032052528113126755,-0.06313666701316833,0.09025689214468002
1783245626113398000,6.87139794921875,0.04039780795574188,-0.0680089145898819,0.08498916029930115
1783245626123410000,6.881409912109375,0.04667402803897858,-0.08045126497745514,0.08623931556940079
1783245626133421800,6.891421875,0.043641749769449234,-0.09753891080617905,0.11255907267332077
1783245626143434000,6.90143408203125,0.03475676476955414,-0.13211335241794586,0.1760091483592987
1783245626153445000,6.911445068359375,0.0290453489869833,-0.1784060150384903,0.27156734466552734
1783245626163457000,6.92145703125,0.030417844653129578,-0.20790952444076538,0.37376669049263
1783245626173469200,6.93146923828125,0.028730735182762146,-0.21713364124298096,0.44583263993263245
1783245626183480000,6.94147998046875,0.00928280409425497,-0.17918136715888977,0.44652989506721497
1783245626193492000,6.951491943359375,-0.02950054593384266,-0.13104073703289032,0.37298402190208435
1783245626203504000,6.961504150390625,-0.0732387825846672,-0.08689966052770615,0.252795934677124
1783245626213516000,6.97151611328125,-0.10247869789600372,-0.03744902089238167,0.11441701650619507
1783245626223527000,6.98152685546875,-0.10204917192459106,0.015921829268336296,-0.02084321901202202
1783245626233539000,6.9915390625,-0.08443156629800797,0.04136247560381889,-0.12775608897209167
1783245626243551000,7.001551025390625,-0.057063061743974686,0.022704536095261574,-0.18742533028125763
1783245626253561900,7.011561767578125,-0.03255026414990425,-0.02015184983611107,-0.18601597845554352
1783245626263573800,7.02157373046875,0.0034622298553586006,-0.04634256288409233,-0.13163302838802338
1783245626273586000,7.0315859375,0.05145691707730293,-0.023925937712192535,-0.06351976096630096
1783245626283597800,7.041597900390625,0.08469396829605103,0.0021155166905373335,0.0021601845510303974
1783245626293609000,7.05160888671875,0.08468757569789886,-0.03075321763753891,0.07141302525997162
1783245626303621000,7.06162109375,0.07620374858379364,-0.13227929174900055,0.15039406716823578
1783245626313633000,7.071633056640625,0.06776419281959534,-0.2567434310913086,0.2375233769416809
1783245626323645200,7.081645263671875,0.05416662245988846,-0.36941540241241455,0.3093797266483307
1783245626333656000,7.091656005859375,0.03258702903985977,-0.459194540977478,0.3573933243751526
1783245626343668000,7.10166796875,-0.008251960389316082,-0.5157187581062317,0.371317058801651
1783245626353680000,7.111679931640625,-0.05580110475420952,-0.5069364905357361,0.3585605025291443
1783245626363691000,7.12169091796875,-0.08566956222057343,-0.4370475113391876,0.33441224694252014
1783245626373703000,7.131702880859375,-0.1036435067653656,-0.3228338658809662,0.3058929741382599
1783245626383714800,7.14171484375,-0.10720618069171906,-0.16555461287498474,0.28668180108070374
1783245626393727000,7.15172705078125,-0.09449677914381027,0.012560002505779266,0.25880569219589233
1783245626403738000,7.161738037109375,-0.07424285262823105,0.19527554512023926,0.2180643230676651
1783245626413750000,7.17175,-0.056060388684272766,0.35340607166290283,0.15347813069820404
1783245626423762200,7.18176220703125,-0.04221806302666664,0.48567935824394226,0.056172486394643784
1783245626433773000,7.19177294921875,-0.019142571836709976,0.5696157813072205,-0.06940966844558716
1783245626443785000,7.201784912109375,0.022910866886377335,0.5943280458450317,-0.20158322155475616
1783245626453797000,7.211797119140625,0.09388730674982071,0.5456939339637756,-0.3127385079860687
1783245626463809000,7.22180908203125,0.181988924741745,0.4377868175506592,-0.3779240846633911
1783245626473820000,7.23181982421875,0.285287082195282,0.3118206262588501,-0.37816163897514343
1783245626483832000,7.24183203125,0.40005168318748474,0.20060832798480988,-0.32390958070755005
1783245626493844000,7.251843994140625,0.5042353868484497,0.1248195543885231,-0.23777255415916443
1783245626503855000,7.261855224609375,0.5902978777885437,0.07879142463207245,-0.14119522273540497
1783245626513867000,7.271866943359375,0.6444817781448364,0.06321167200803757,-0.0576460063457489
1783245626523879200,7.281879150390625,0.6657889485359192,0.09547369182109833,0.0048413993790745735
1783245626533891000,7.29189111328125,0.6718053221702576,0.14085449278354645,0.05226084589958191
1783245626543902000,7.30190185546875,0.6738656759262085,0.18119296431541443,0.09920910745859146
1783245626553914000,7.3119140625,0.6716092228889465,0.22654472291469574,0.14716491103172302
1783245626563926000,7.321926025390625,0.6678929924964905,0.2717377245426178,0.18920591473579407
1783245626573938000,7.33193798828125,0.6575612425804138,0.30319976806640625,0.22550559043884277
1783245626583949000,7.341948974609375,0.6447867155075073,0.3319285809993744,0.23153606057167053
1783245626593961000,7.3519609375,0.6353269219398499,0.37641003727912903,0.21096661686897278
1783245626603972900,7.361972900390625,0.6457094550132751,0.43580615520477295,0.1611941158771515
1783245626613984000,7.37198388671875,0.6806557178497314,0.4921402633190155,0.09825430065393448
1783245626623996000,7.381995849609375,0.7437965869903564,0.5258620381355286,0.03972221538424492
1783245626634007800,7.3920078125,0.8325310349464417,0.5550696849822998,-0.014404401183128357
1783245626644020000,7.40202001953125,0.9281338453292847,0.5804133415222168,-0.0568583719432354
1783245626654031000,7.412031005859375,1.0176335573196411,0.5768172740936279,-0.08391822129487991
1783245626664043000,7.42204296875,1.0909876823425293,0.5876833200454712,-0.10456123948097229
1783245626674055200,7.43205517578125,1.1443840265274048,0.6381885409355164,-0.13172601163387299
1783245626684066000,7.442066162109375,1.166244626045227,0.6935387253761292,-0.1569949984550476
1783245626694078000,7.452077880859375,1.1685477495193481,0.7371307015419006,-0.16715389490127563
1783245626704090000,7.462090087890625,1.1604772806167603,0.7714864611625671,-0.1654277741909027
1783245626714102000,7.47210205078125,1.1564449071884155,0.8153894543647766,-0.16105832159519196
1783245626724113000,7.48211279296875,1.1575684547424316,0.8676020503044128,-0.16706664860248566
1783245626734124800,7.492124755859375,1.1675652265548706,0.9020708203315735,-0.17970095574855804
1783245626744137000,7.502136962890625,1.177150011062622,0.8959531784057617,-0.19481776654720306
1783245626754148000,7.512148193359375,1.1920511722564697,0.8687183260917664,-0.19505877792835236
1783245626764160000,7.522159912109375,1.2070707082748413,0.8301469683647156,-0.17316488921642303
1783245626774172200,7.532172119140625,1.2205116748809814,0.7630957365036011,-0.1300317943096161
1783245626784184000,7.54218408203125,1.2369627952575684,0.6700775623321533,-0.08116617053747177
1783245626794195000,7.55219482421875,1.2605984210968018,0.5845139026641846,-0.051997099071741104
1783245626804207000,7.56220703125,1.2849539518356323,0.5703758597373962,-0.06404240429401398
1783245626814219000,7.572218994140625,1.3226754665374756,0.632927417755127,-0.11533302068710327
1783245626824231000,7.58223095703125,1.3743681907653809,0.7650938034057617,-0.19952546060085297
1783245626834242000,7.592241943359375,1.4404926300048828,0.9198359847068787,-0.29446500539779663
1783245626844254000,7.60225390625,1.528074026107788,1.00307035446167,-0.38237595558166504
1783245626854265900,7.612265869140625,1.617897629737854,0.9483101963996887,-0.4287722408771515
1783245626864277000,7.622277099609375,1.7032822370529175,0.7891132831573486,-0.4169434607028961
1783245626874289200,7.6322890625,1.7752655744552612,0.5826322436332703,-0.3504166305065155
1783245626884301000,7.642301025390625,1.83061683177948,0.3762989938259125,-0.24969559907913208
1783245626894313200,7.652313232421875,1.8761780261993408,0.2547592520713806,-0.16306963562965393
1783245626904324000,7.662323974609375,1.9021741151809692,0.23795369267463684,-0.11988887935876846
1783245626914336000,7.6723359375,1.9044688940048218,0.27689072489738464,-0.12155735492706299
1783245626924348200,7.68234814453125,1.8891069889068604,0.3208995461463928,-0.14179764688014984
1783245626934359000,7.692359130859375,1.8749432563781738,0.364671528339386,-0.15805411338806152
1783245626944371000,7.702370849609375,1.8700261116027832,0.4225526750087738,-0.1594848930835724
1783245626954383000,7.712383056640625,1.8571736812591553,0.48948296904563904,-0.13777373731136322
1783245626964395000,7.72239501953125,1.8364191055297852,0.5443266034126282,-0.10236148536205292
1783245626974406000,7.732406005859375,1.801439881324768,0.5894170999526978,-0.06967304646968842
1783245626984418000,7.74241796875,1.7533056735992432,0.6365829110145569,-0.048354316502809525
1783245626994430000,7.752429931640625,1.7005542516708374,0.7001288533210754,-0.03580523654818535
1783245627004441000,7.762441162109375,1.654533863067627,0.7729628086090088,-0.03645982965826988
1783245627014453000,7.772452880859375,1.6277751922607422,0.8389481902122498,-0.04349590092897415
1783245627024465200,7.782465087890625,1.637494444847107,0.8881189227104187,-0.053901880979537964
1783245627034477000,7.79247705078125,1.6868785619735718,0.9126998782157898,-0.06689491122961044
1783245627044488000,7.802488037109375,1.777103304862976,0.8760551810264587,-0.07908885180950165
1783245627054500000,7.8125,1.8972569704055786,0.7954151630401611,-0.09732005000114441
1783245627064512000,7.822511962890625,2.041682481765747,0.7039344906806946,-0.13128934800624847
1783245627074524000,7.83252392578125,2.189570426940918,0.6262809634208679,-0.1825466752052307
1783245627084535000,7.84253515625,2.3242671489715576,0.5700849890708923,-0.2389150708913803
1783245627094547000,7.852546875,2.4183568954467773,0.5493216514587402,-0.28824105858802795
1783245627104558800,7.862558837890625,2.465468406677246,0.5596079230308533,-0.3259795010089874
1783245627114570200,7.8725703125,2.461660385131836,0.5682112574577332,-0.34957486391067505
1783245627124582100,7.88258203125,2.4179506301879883,0.5508568286895752,-0.3468446135520935
1783245627134594000,7.892593994140625,2.3394179344177246,0.5305225849151611,-0.31736794114112854
1783245627144606200,7.902606201171875,2.234510660171509,0.5231003165245056,-0.26155582070350647
1783245627154617000,7.9126171875,2.128283739089966,0.5426204800605774,-0.19289152324199677
1783245627164629000,7.92262890625,2.0385069847106934,0.6019253730773926,-0.12245737016201019
1783245627174641200,7.93264111328125,1.9793508052825928,0.6901785731315613,-0.05355207622051239
1783245627184652000,7.942652099609375,1.9506232738494873,0.7669578194618225,0.011428995057940483
1783245627194664000,7.952663818359375,1.9408906698226929,0.8230301141738892,0.06413134932518005
1783245627204676000,7.962676025390625,1.9480036497116089,0.8634244799613953,0.0809619277715683
1783245627214688000,7.97268798828125,1.9605010747909546,0.8726994395256042,0.06920727342367172
1783245627224699100,7.98269921875,1.9812663793563843,0.8447833061218262,0.041961729526519775
1783245627234711000,7.9927109375,1.9987415075302124,0.7992573380470276,0.009617636911571026
1783245627244723200,8.00272314453125,2.013657808303833,0.7404079437255859,-0.014512048102915287
1783245627254734000,8.012734130859375,2.012483596801758,0.6750243902206421,-0.010306650772690773
1783245627264746000,8.02274609375,2.0001683235168457,0.6120726466178894,0.028404247015714645
1783245627274758100,8.032758056640626,1.9768939018249512,0.5683587193489075,0.07577869296073914
1783245627284770000,8.04277001953125,1.9596328735351562,0.5378072261810303,0.11321420967578888
1783245627294781000,8.052781005859375,1.9464890956878662,0.537158727645874,0.11225813627243042
1783245627304793000,8.06279296875,1.921106219291687,0.5681749582290649,0.08522671461105347
1783245627314805000,8.072804931640626,1.8877389430999756,0.5788308382034302,0.051104169338941574
1783245627324817000,8.08281689453125,1.8625116348266602,0.5762670040130615,0.02276793122291565
1783245627334828000,8.092828125,1.8469494581222534,0.5639381408691406,0.004395316354930401
1783245627344840000,8.10283984375,1.8284823894500732,0.533113420009613,-0.003873273031786084
1783245627354851800,8.112851806640625,1.793677806854248,0.4859669506549835,0.0017563831061124802
1783245627364863200,8.12286328125,1.7382680177688599,0.4452187716960907,0.02435809187591076
1783245627374875100,8.132875244140624,1.6741083860397339,0.42664429545402527,0.06480991840362549
1783245627384887000,8.142886962890625,1.6092842817306519,0.42643633484840393,0.11619122326374054
1783245627394899200,8.152899169921875,1.5507287979125977,0.4416091740131378,0.1754438877105713
1783245627404910000,8.16291015625,1.4920037984848022,0.4702219069004059,0.23456095159053802
1783245627414922000,8.172921875,1.437643051147461,0.5331329107284546,0.287339985370636
1783245627424934100,8.18293408203125,1.3983912467956543,0.5943292379379272,0.3147871494293213
1783245627434945000,8.192945068359375,1.3713380098342896,0.6001506447792053,0.32181867957115173
1783245627444957000,8.20295703125,1.3511158227920532,0.5584495663642883,0.32065773010253906
1783245627454968800,8.21296875,1.3291550874710083,0.499586820602417,0.31213295459747314
1783245627464981000,8.22298095703125,1.306758165359497,0.44281435012817383,0.30424514412879944
1783245627474992000,8.2329921875,1.2766783237457275,0.41502663493156433,0.2908358871936798
1783245627485004000,8.243004150390625,1.2441784143447876,0.4311744272708893,0.2629310190677643
1783245627495016200,8.25301611328125,1.2050997018814087,0.47538527846336365,0.2218855768442154
1783245627505027000,8.263027099609374,1.1581951379776,0.4928465485572815,0.18405362963676453
1783245627515039000,8.2730390625,1.105749249458313,0.4984535574913025,0.16619740426540375
1783245627525051100,8.283051025390625,1.0553956031799316,0.5031593441963196,0.17888304591178894
1783245627535063000,8.29306298828125,1.0144191980361938,0.48582059144973755,0.22005125880241394
1783245627545074000,8.303073974609376,0.9928904175758362,0.43172508478164673,0.2787433862686157
1783245627555086000,8.313086181640625,0.9871766567230225,0.35645774006843567,0.33262205123901367
1783245627565098000,8.323097900390625,0.9921926259994507,0.2518683671951294,0.36103761196136475
1783245627575110000,8.33310986328125,0.9919505715370178,0.17418740689754486,0.3481777310371399
1783245627585121300,8.343121337890626,0.9810125827789307,0.15638823807239532,0.29712703824043274
1783245627595133200,8.35313330078125,0.9551168084144592,0.17554780840873718,0.22971738874912262
1783245627605145000,8.36314501953125,0.9178352355957031,0.20409508049488068,0.17591319978237152
1783245627615156000,8.373156005859375,0.8815525770187378,0.22005221247673035,0.15421216189861298
1783245627625168100,8.383168212890626,0.8481645584106445,0.19441752135753632,0.1672641932964325
1783245627635180000,8.393179931640624,0.8149728178977966,0.1270344853401184,0.21815001964569092
1783245627645192200,8.403192138671875,0.7740377187728882,0.052235428243875504,0.2986176311969757
1783245627655203000,8.413203125,0.724365770816803,0.012395869009196758,0.3827708661556244
1783245627665215000,8.423215087890625,0.6878618597984314,0.03312104195356369,0.45352283120155334
1783245627675227000,8.433226806640626,0.6674167513847351,0.09239289164543152,0.4988138675689697
1783245627685239000,8.443239013671874,0.6718127727508545,0.18689550459384918,0.5163946747779846
1783245627695250000,8.45325,0.6960939168930054,0.2615732252597809,0.5095130801200867
1783245627705261800,8.46326171875,0.7233042120933533,0.3156419098377228,0.47739332914352417
1783245627715274000,8.47327392578125,0.7336433529853821,0.31675776839256287,0.42889848351478577
1783245627725285000,8.48328515625,0.7281152009963989,0.2907011806964874,0.38050374388694763
1783245627735297000,8.493297119140625,0.706883430480957,0.2737578749656677,0.3312440514564514
1783245627745309200,8.50330908203125,0.6669334769248962,0.279463529586792,0.2941698133945465
1783245627755321000,8.513321044921875,0.6247604489326477,0.3017491400241852,0.2624257504940033
1783245627765332000,8.52333203125,0.5793970227241516,0.32662609219551086,0.24205200374126434
1783245627775344000,8.53334423828125,0.5462443828582764,0.34141993522644043,0.2239939123392105
1783245627785356000,8.54335595703125,0.539519727230072,0.328479528427124,0.19877146184444427
1783245627795367000,8.553366943359375,0.547227680683136,0.2773481607437134,0.16234686970710754
1783245627805379000,8.563379150390626,0.5737061500549316,0.21707983314990997,0.11197715997695923
1783245627815391000,8.573390869140624,0.6142740845680237,0.17931540310382843,0.07105235755443573
1783245627825403000,8.58340283203125,0.6539973020553589,0.14115925133228302,0.06339912861585617
1783245627835414000,8.5934140625,0.7251356840133667,0.1446048617362976,0.20322705805301666
1783245627845426200,8.60342626953125,0.8455348610877991,0.339020311832428,0.2987889051437378
1783245627855438000,8.61343798828125,0.9320843815803528,0.5721169114112854,0.24192404747009277
1783245627865450200,8.6234501953125,0.9341400861740112,0.7007657289505005,0.07349284738302231
1783245627875461000,8.633461181640625,0.8801040649414062,0.7498022317886353,-0.1618645340204239
1783245627885472500,8.643472412109375,0.8461937308311462,0.7443718314170837,-0.3801417946815491
1783245627895484400,8.653484375,0.847274124622345,0.6957454681396484,-0.5276079177856445
1783245627905495300,8.663495361328126,0.863076388835907,0.6012261509895325,-0.5449099540710449
1783245627915507500,8.673507568359375,0.8794521689414978,0.5284795165061951,-0.4347088932991028
