time,seconds_elapsed,z,y,x
1783245557555081700,0.069081787109375,0.17014964591264722,-0.8780408717669546,0.1765715687189251
1783245557565093600,0.07909375,-0.03953355348706245,-0.9717422149017453,0.34269762167129664
1783245557575105800,0.089105712890625,-0.14008300895094872,-1.0065249205999076,0.40206287036426364
1783245557585117000,0.099116943359375,-0.13074351819753646,-1.044606960104406,0.36779282689597453
1783245557595128800,0.10912890625,-0.06775836197435856,-1.0810969081118702,0.1640571194575168
1783245557605140700,0.119140625,0.05638531956672668,-1.1038469384498895,-0.09759873416582122
1783245557615153000,0.12915283203125,0.17496610628366469,-1.0402078483626245,-0.34556802600845693
1783245557625163800,0.139163818359375,0.351585240471363,-0.9213377233102917,-0.47120837584808467
1783245557635175700,0.14917578125,0.49566462558209895,-0.8549532800376415,-0.6312178821489215
1783245557645187800,0.159187744140625,0.5671843859165907,-0.8699151407174766,-0.7953979521326721
1783245557655199700,0.16919970703125,0.5812912372022867,-0.8716486865118146,-0.9176054049141704
1783245557665210600,0.179210693359375,0.47172670063376426,-0.8482679570548236,-0.9480420442320406
1783245557675222500,0.189222412109375,0.27790859436392784,-0.8159181775920092,-0.9172313109047711
1783245557685234700,0.199234619140625,0.14725216992795467,-0.7948672062568366,-0.8632194424711167
1783245557695246600,0.20924658203125,-0.0005552957952022552,-0.8391866788461804,-0.8642765503086149
1783245557705257700,0.2192578125,-0.145011697524786,-0.9086315326027572,-0.8536182320415974
1783245557715270000,0.229269775390625,-0.22112813799977302,-0.9609780981726944,-0.8088358181156218
1783245557725281800,0.23928173828125,-0.2805424499988556,-1.0204849107608198,-0.7730544567689299
1783245557735294000,0.2492939453125,-0.31682255464792247,-1.076175818322599,-0.7118351411744952
1783245557745304800,0.259304931640625,-0.4215986878961324,-1.1200539768852293,-0.6313679581440985
1783245557755316700,0.269316650390625,-0.5561421828985214,-1.142584811514616,-0.4992735367942601
1783245557765328600,0.27932861328125,-0.7299252168774605,-1.1389838644132018,-0.391397610899806
1783245557775340800,0.2893408203125,-0.9921832376450299,-1.1363960398770867,-0.27074140614829956
1783245557785351700,0.2993515625,-1.2553718172609805,-1.1314316954679786,-0.24469182280823587
1783245557795363600,0.309363525390625,-1.3788432986289263,-1.148393643923849,-0.260982813199982
1783245557805375700,0.319375732421875,-1.5087942051440477,-1.0748976150803267,-0.20858269081190228
1783245557815387400,0.329387451171875,-1.515699746748805,-0.9277766703166067,-0.12477679181285202
1783245557825398500,0.3393984375,-1.4978227292746304,-0.752932875238359,-0.009742810857295989
1783245557835410700,0.34941064453125,-1.4105050958275793,-0.5361977115005254,0.10334354316182434
1783245557845422600,0.359422607421875,-1.2164549343675375,-0.3703746966153383,0.10735153669416904
1783245557855434500,0.3694345703125,-0.9707605103880167,-0.35118104358464475,0.051976124822348355
1783245557865445600,0.379445556640625,-0.7676642881631851,-0.33856077759489417,0.07411606043800711
1783245557875457500,0.38945751953125,-0.7536819400399923,-0.3009912176571786,0.13753865823037922
1783245557885469400,0.399469482421875,-0.7817699704051018,-0.2715174320220947,0.17448709059506654
1783245557895481600,0.409481689453125,-0.7482751125603914,-0.23340309768319129,0.19332630416490137
1783245557905492500,0.419492431640625,-0.7226467503070831,-0.2104189663283527,0.14337233281992376
1783245557915504400,0.42950439453125,-0.741170248991251,-0.24574469286203382,-0.027807679053768512
1783245557925516500,0.4395166015625,-0.637511137074232,-0.24601065032184122,-0.20080058556832373
1783245557935528400,0.449528564453125,-0.457838460534811,-0.18679814450517296,-0.2794847576394677
1783245557945539600,0.45953955078125,-0.2621995685786009,-0.11192279013246297,-0.2723638197183609
1783245557955551500,0.469551513671875,-0.010572247418761253,-0.03559548338577151,-0.2430461744930595
1783245557965563600,0.479563720703125,0.2975070288032293,-0.0015174188256263732,-0.3367674644373357
1783245557975575600,0.489575439453125,0.5256231259942055,0.06226020294949412,-0.4914012690491974
1783245557985586400,0.49958642578125,0.6944394774764776,0.17855521681681275,-0.6786117937475442
1783245557995598600,0.5095986328125,0.8009276753395795,0.32060134253427386,-0.8404194355115294
1783245558005610500,0.519610595703125,0.9148486535519361,0.3944606517322361,-1.05649577001445
1783245558015621400,0.529621337890625,1.0165759206235407,0.4090992718070745,-1.3035742687635123
1783245558025633500,0.539633544921875,1.0341758747220038,0.38918884880915283,-1.4680613588698208
1783245558035645400,0.5496455078125,1.0227367813408375,0.3891461787112057,-1.5311881155207752
1783245558045657300,0.5596572265625,1.0109814616173505,0.4731777762249112,-1.4627543385028838
1783245558055669500,0.56966943359375,0.9702239192932843,0.5302900948919356,-1.2371256742134689
1783245558065680400,0.579680419921875,0.8846089981108903,0.5817341586641966,-0.899331935468316
1783245558075692300,0.5896923828125,0.7440922739177942,0.6038112581767141,-0.5068783857747912
1783245558085704400,0.599704345703125,0.6329068581491708,0.5717521322235465,-0.24978651559874415
1783245558095716400,0.60971630859375,0.5664893893897534,0.4695033254958689,-0.02089395414255559
1783245558105727500,0.6197275390625,0.4294260205209255,0.36341610964909193,0.17982852468825875
1783245558115739600,0.62973974609375,0.2686252177119255,0.34502807391285895,0.4354775025796145
1783245558125751600,0.63975146484375,0.07603986810743808,0.3532733396887779,0.7037449928950518
1783245558135762400,0.649762451171875,-0.1746650775104761,0.3092091570347547,0.8590933755170553
1783245558145774600,0.659774658203125,-0.3932733416438102,0.23092165613099933,0.887135740109533
1783245558155786500,0.669786376953125,-0.607057546621561,0.18037790219932792,0.8771884927213192
1783245558165798400,0.67979833984375,-0.7377420281082391,0.21695640527307986,0.8468016838945448
1783245558175809300,0.689809326171875,-0.856679373177886,0.24851956440284848,0.8245064115867018
1783245558185821400,0.699821533203125,-0.9824725754916668,0.341735315977782,0.7856633245818316
1783245558195833300,0.709833251953125,-1.0100281064152716,0.4377823454558849,0.7619216528579592
1783245558205845500,0.719845458984375,-0.9435095153689383,0.42453357230424876,0.675899466048926
1783245558215856600,0.729856689453125,-0.7292512631386519,0.4010514282993972,0.4766938215218484
1783245558225868500,0.73986865234375,-0.3719622580677271,0.3133979870267212,0.2216553767442703
1783245558235880700,0.749880615234375,0.006726677906513214,0.21918401819467542,-0.0024570377632975576
1783245558245892600,0.759892578125,0.3834054431021213,0.14802169299572707,-0.16757848025038838
1783245558255903500,0.769903564453125,0.7066197446137666,0.1580469740562141,-0.2553092245429754
1783245558265915400,0.779915283203125,0.972943699645996,0.13660641888156533,-0.2305298803344369
1783245558275927600,0.789927490234375,1.1179016211569308,0.084509005767107,-0.18094927234649658
1783245558285939500,0.799939453125,1.1355717178821563,0.04559826035350561,-0.14368220248669386
1783245558295950300,0.809950439453125,1.1767413481384514,-0.016924977446347474,-0.14588175835758446
1783245558305962500,0.81996240234375,1.1518231799811125,-0.08489552086666226,-0.17031513867266476
1783245558315974400,0.829974365234375,1.0244172817736863,-0.18668942343369124,-0.19436156549677253
1783245558325986300,0.839986328125,1.0090805964320897,-0.19840981797426938,-0.18740356305241584
1783245558335997700,0.849997802734375,0.9324614671319723,-0.17909589956477284,-0.24993001572266219
1783245558346009600,0.860009521484375,0.847857768818736,-0.19760098580941557,-0.3078283702008426
1783245558356021500,0.870021484375,0.7522732422858476,-0.2153890098258853,-0.3445928973659873
1783245558366033700,0.88003369140625,0.6208943487942219,-0.24509675034731626,-0.3960262936137616
1783245558376044500,0.89004443359375,0.5622603735178708,-0.261583774767816,-0.41173619618192314
1783245558386056400,0.900056396484375,0.39861820980310436,-0.32368513389378784,-0.3897651873923838
1783245558396068600,0.910068603515625,0.24189561621844768,-0.41194560114890333,-0.40378582169935107
1783245558406080500,0.92008056640625,0.19096563944816589,-0.5009992646083236,-0.3906502996638417
1783245558416091400,0.93009130859375,0.2032078659057617,-0.5233204020097851,-0.3308151319041848
1783245558426103600,0.940103515625,0.1780582270801067,-0.5793620227053761,-0.3009277970321476
1783245558436115500,0.950115478515625,0.1580348452270031,-0.6257194308631122,-0.31042978487089273
1783245558446127400,0.96012744140625,0.17290157496929168,-0.6619523353695869,-0.2764906903900206
1783245558456138500,0.970138427734375,0.22881986154615877,-0.6540646508596837,-0.2871570458330214
1783245558466150400,0.980150390625,0.26409458854496476,-0.6491681109897792,-0.3730320792563259
1783245558476162600,0.99016259765625,0.24730419726371763,-0.720618897741288,-0.4636848484754562
1783245558486174500,1.000174560546875,0.27378946860730646,-0.7399697871603071,-0.5544872552983462
1783245558496185600,1.010185546875,0.3047498395383358,-0.7053298509337007,-0.67554729161039
1783245558506197500,1.020197509765625,0.2597013220220804,-0.6447527787655591,-0.7936905636928975
1783245558516209700,1.030209716796875,0.18483400482535361,-0.5704105083562433,-0.8824000898897647
1783245558526221600,1.0402216796875,0.15452128414809702,-0.44028906757980585,-0.8976834376089274
1783245558536232400,1.050232421875,0.10939151808917522,-0.37054844574704765,-0.8746478683277964
1783245558546244400,1.060244384765625,0.06228665256500244,-0.324320801448822,-0.7994454739578067
1783245558556256500,1.070256591796875,0.04818506197631359,-0.28042554562091826,-0.6570620791099965
1783245558566268400,1.080268310546875,0.011645429608225821,-0.20745544034764168,-0.5001709970906376
1783245558576279300,1.090279296875,-0.0683101506382227,-0.17128785616233944,-0.37293490249216554
1783245558586291500,1.10029150390625,-0.13520166665017605,-0.18836846256181597,-0.3199694743715226
1783245558596303400,1.110303466796875,-0.17083295200169085,-0.1614332554936409,-0.30290801106393334
1783245558606315500,1.1203154296875,-0.13283961369395256,-0.09631678633019328,-0.3036237581178546
1783245558616326700,1.13032666015625,-0.10275894820690154,0.03560191312655806,-0.2901059587664902
1783245558626338600,1.140338623046875,-0.09847031110227107,0.22506883844956754,-0.31121874329149724
1783245558636350500,1.1503505859375,-0.28218554103076454,0.3479397235758602,-0.3921592429220676
1783245558646362600,1.160362548828125,-0.6816068839102983,0.3866621068105101,-0.5350846356920897
1783245558656373500,1.17037353515625,-1.1445534812390803,0.38945392948612567,-0.6360166607327759
1783245558666385400,1.180385498046875,-1.6354548379421232,0.3473021563246846,-0.6372383114822209
1783245558676397600,1.1903974609375,-2.0303245088666677,0.15057006230428813,-0.6713062930397689
1783245558686409500,1.200409423828125,-2.2699200314491987,0.05968772211298346,-0.6819372849084436
1783245558696420400,1.21042041015625,-2.387875379744172,0.1257723056562245,-0.46399888286069035
1783245558706432500,1.2204326171875,-2.3203426432192322,0.2927399605318904,-0.25609672165885566
1783245558716444400,1.2304443359375,-1.9411872587770223,0.5322231087811291,-0.13105521449521182
1783245558726456300,1.240456298828125,-1.2591630262374878,0.696965781083703,-0.24051336807981133
1783245558736467700,1.2504677734375,-0.5285118331730365,0.6972787925556302,-0.6203937057957053
1783245558746479600,1.260479736328125,0.0003968903630971908,0.6440493066713213,-0.9975343894146382
1783245558756491500,1.270491455078125,0.4195329875379801,0.7061211474418639,-1.2111110891215502
1783245558766503700,1.280503662109375,0.578064091849327,0.7602338459014892,-1.3301814129211007
1783245558776514600,1.2905146484375,0.43671383944153785,0.7242344578899442,-1.3991083802834152
1783245558786526500,1.3005263671875,0.09049977061450482,0.7046003676153719,-1.3308068513430653
1783245558796538600,1.31053857421875,-0.3758744630753994,0.7251615096069872,-1.0780066870115697
1783245558806550500,1.320550537109375,-0.7783592851787805,0.7419270587079226,-0.8255793015152215
1783245558816561400,1.3305615234375,-1.0655652847200632,0.7451626796282828,-0.6700006172686815
1783245558826573300,1.3405732421875,-1.2807564338862896,0.7593620315030216,-0.6529150424331426
1783245558836585200,1.350585205078125,-1.3669085306853055,0.8250147995002567,-0.6365737100936472
1783245558846597400,1.360597412109375,-1.1636708541631697,0.8987737170636654,-0.7013797981336712
1783245558856608500,1.3706083984375,-0.7563672336012125,0.9316957434564829,-0.8542910167366266
1783245558866620400,1.380620361328125,-0.3564554768562317,0.9706387837044894,-0.9889236513271927
1783245558876632600,1.390632568359375,-0.04090951801538467,0.9798254219837487,-1.0947427177570759
1783245558886644500,1.40064453125,0.13785013533234594,0.9776995158709585,-1.1242717407107352
1783245558896655400,1.4106552734375,0.1953957308501005,1.0176252835460007,-1.1172292748533188
1783245558906667500,1.42066748046875,0.20535539932847022,0.9921680400758981,-1.1086999314390122
1783245558916679400,1.430679443359375,0.16123919422626495,0.9366821535669266,-1.0909196523375808
1783245558926691300,1.44069140625,0.0603144757091999,0.8796098746493458,-1.036137091792375
1783245558936702500,1.450702392578125,-0.044507834768295285,0.8426378422133624,-0.9545867897003889
1783245558946714400,1.46071435546875,-0.23958383214473722,0.7736997689351439,-0.8260827209927141
1783245558956726300,1.470726318359375,-0.4503296923398971,0.6596290069885552,-0.5943567627415061
1783245558966738400,1.480738525390625,-0.674513126257062,0.5267674737237393,-0.4099592496372759
1783245558976749300,1.490749267578125,-0.9372843572437762,0.3763734986387193,-0.3416949839673936
1783245558986761200,1.50076123046875,-1.1006693313270806,0.2775419530086219,-0.26381986325681206
1783245558996773400,1.5107734375,-1.207227671816945,0.286360488627851,-0.2077957782179117
1783245559006785300,1.520785400390625,-1.1828741518050432,0.3305943287603557,-0.19799393064975737
1783245559016796400,1.53079638671875,-0.9898977570563554,0.3878105461932719,-0.2566356508411467
1783245559026808300,1.540808349609375,-0.6938900269001722,0.38569194660410283,-0.36410511482656
1783245559036820500,1.550820556640625,-0.28245149849057194,0.35186887971833347,-0.45891544211655855
1783245559046832400,1.560832275390625,0.1610527317434549,0.34385011617466804,-0.4529653015404939
1783245559056843300,1.57084326171875,0.565902529412508,0.38456265031322834,-0.36489261194244027
1783245559066855400,1.58085546875,0.8924754937022924,0.4497914938099682,-0.23449060065895316
1783245559076867300,1.590867431640625,1.148942656108737,0.5039888018131256,-0.16316607063561678
1783245559086879500,1.60087939453125,1.366810331007838,0.4901522919014096,-0.1303568569675088
1783245559096890400,1.610890380859375,1.5724246735334395,0.4683785592496395,-0.1272853405676782
1783245559106902300,1.62090234375,1.6684037523418664,0.4673934937350452,-0.21969050641208887
1783245559116914200,1.6309140625,1.6386311298906802,0.3717531453616917,-0.30849691711217164
1783245559126926300,1.64092626953125,1.5304448959380388,0.3192334151819348,-0.48534036157503724
1783245559136937500,1.6509375,1.2428951975256204,0.2995788666412234,-0.6105581020884215
1783245559146949400,1.660949462890625,0.8472434363126754,0.30229484760165215,-0.6817914466969669
1783245559156961500,1.67096142578125,0.44780689586400985,0.39055677616149187,-0.7067230588577688
1783245559166973400,1.680973388671875,0.0717518155246973,0.38793534161671994,-0.7221689036622643
1783245559176984300,1.690984375,-0.17258008792996404,0.2386702244311571,-0.7229905953086913
1783245559186996500,1.70099658203125,-0.33321956269741054,0.016807050155103205,-0.6465306020930409
1783245559197008400,1.71100830078125,-0.4039852897942066,-0.2113715908780694,-0.5007832837700843
1783245559207020300,1.721020263671875,-0.4016232368379831,-0.4063138788722455,-0.31179888126701116
1783245559217031400,1.731031494140625,-0.3539496315151453,-0.5370495060242713,-0.17077406142130494
1783245559227043300,1.741043212890625,-0.35483635122179985,-0.6540656737729906,-0.09750263511389494
1783245559237055200,1.75105517578125,-0.3251625129699707,-0.7450137726768851,-0.07264058105796575
1783245559247067400,1.7610673828125,-0.2765326298356056,-0.7359013686776161,-0.037610038078576324
1783245559257078500,1.77107861328125,-0.26081483622193335,-0.7077896651759743,-0.016918255444616077
1783245559267090400,1.78109033203125,-0.22922493521571158,-0.6923838601209222,-0.048479368747770785
1783245559277102600,1.7911025390625,-0.18864158041477203,-0.6887425810091197,-0.13111483572795987
1783245559287114500,1.801114501953125,-0.18162205704152584,-0.6937992798767983,-0.2422394612200558
1783245559297125400,1.81112548828125,-0.20018588773608206,-0.6957257178947329,-0.3871783857695758
1783245559307137500,1.821137451171875,-0.21531448328495023,-0.7153795357830822,-0.5573815154351294
1783245559317149400,1.8311494140625,-0.22831600367724894,-0.6568658258855342,-0.6972030969709158
1783245559327161300,1.841161376953125,-0.28650866492688654,-0.5905379351057112,-0.8318835162259638
1783245559337172200,1.851172119140625,-0.3596633329868316,-0.5742891033552586,-0.9271149915374814
1783245559347184400,1.861184326171875,-0.336305253753066,-0.5349991493657231,-0.9359840883001684
1783245559357196300,1.8711962890625,-0.3088970223456621,-0.5046453660257161,-0.8492157592989504
1783245559367208400,1.88120849609375,-0.25452304260134695,-0.47392421067804097,-0.7201873744562268
1783245559377219300,1.89121923828125,-0.13043079898655413,-0.4194266045540571,-0.6151764095388352
1783245559387231200,1.901231201171875,-0.10543781202733517,-0.39982451685294507,-0.5764157401204109
1783245559397243100,1.9112431640625,-0.19002923538088798,-0.38977234778553244,-0.5106649185761809
1783245559407255300,1.92125537109375,-0.2707984700977802,-0.41054581735357637,-0.35568770735412836
1783245559417266400,1.931266357421875,-0.4916021984487772,-0.399030151604861,-0.20728037604168056
1783245559427278300,1.9412783203125,-0.8047036867469549,-0.29913886778876186,-0.10517769978642463
1783245559437290500,1.95129052734375,-1.0209159956544638,-0.11327128213196992,-0.08396993045434355
1783245559447302400,1.961302490234375,-1.1826309906989336,0.10662029981017113,-0.3030526802316308
1783245559457313300,1.971313232421875,-1.2651929540514946,0.2868886041551828,-0.6375786493524909
1783245559467325400,1.981325439453125,-1.1444599577367305,0.4292356125153601,-0.9467705629914999
1783245559477337300,1.99133740234375,-0.8879156384408473,0.5111185075625777,-1.1100468160033226
1783245559487349200,2.001349365234375,-0.6352642349302768,0.45029345198273657,-1.0952082894422113
1783245559497360400,2.0113603515625,-0.4915963532298803,0.26608035553470255,-1.0428297212988138
1783245559507372300,2.021372314453125,-0.39863457641601563,-0.11082403511032461,-1.0210220863774417
1783245559517384200,2.03138427734375,-0.5049631998032331,-0.5462623016580939,-0.836899152430892
1783245559527396400,2.041396240234375,-0.8225573233455419,-0.8003283942721784,-0.5277344190597534
1783245559537407500,2.051407470703125,-1.0878706400305032,-0.8541489779174327,-0.2609361245140433
1783245559547419400,2.06141943359375,-1.1763479649066924,-0.8269085042923688,-0.19256226098984477
1783245559557431600,2.071431640625,-1.1594821703016758,-0.7125066106952727,-0.22416209886819122
1783245559567443500,2.081443359375,-1.058027290430665,-0.4653817155212164,-0.29422289256602524
1783245559577454300,2.091454345703125,-0.7663935375750064,-0.0615282354131341,-0.38778438883870836
1783245559587466500,2.101466552734375,-0.3785656018555164,0.2747841787330806,-0.6886886588647961
1783245559597478400,2.111478515625,0.04236965369582176,0.5276712906956672,-1.0612655416995287
1783245559607490300,2.121490234375,0.3484580483615398,0.8093985665649175,-1.2398323028236626
1783245559617501200,2.131501220703125,0.49945115838348864,1.1948914834655822,-1.1951467734009027
1783245559627513300,2.141513427734375,0.5719014775663614,1.4701557008005677,-1.099365993643552
1783245559637525200,2.151525146484375,0.47812253915071484,1.4954900485433638,-1.1184272524662315
1783245559647537400,2.161537353515625,0.36624329589903354,1.3825740095898509,-1.1156602719709277
1783245559657548500,2.171548583984375,0.25180033963918685,1.2265133870452642,-0.9336544763088226
1783245559667560400,2.181560546875,-0.11194412518143654,1.0736863395944236,-0.5056783623352646
1783245559677572600,2.191572509765625,-0.5331868392467498,0.8802177774146198,-0.03482639870941639
1783245559687584500,2.20158447265625,-0.8778671226352452,0.6696165863871574,0.3060243895187974
1783245559697595400,2.211595458984375,-1.1438602382779122,0.47296705608367917,0.6090627489641308
1783245559707607300,2.221607177734375,-1.4001093740195034,0.32924773645699024,0.7974240511327981
1783245559717619500,2.231619384765625,-1.552265098080039,0.37409488618224856,0.9305252383723854
1783245559727631400,2.24163134765625,-1.5332313117861747,0.5461614716321229,0.932339009796083
1783245559737642200,2.251642333984375,-1.319402098622918,0.7183002455353736,0.7275722240105271
1783245559747654400,2.261654296875,-0.8368465454608202,0.8205915762305259,0.3839566472440958
1783245559757666300,2.271666259765625,-0.16487667394578456,0.8835065898269414,-0.09068623309731483
1783245559767678200,2.28167822265625,0.5446832157731056,0.9658312372922897,-0.5388616700127721
1783245559777689300,2.291689453125,1.0866828915506601,1.0747335105597973,-0.9476426696509123
1783245559787701200,2.301701171875,1.477640357467532,1.2092167998075485,-1.3471733181238175
1783245559797713200,2.311713134765625,1.6766671382963656,1.3060440198779106,-1.7048890241742134
1783245559807725300,2.321725341796875,1.6170505817234515,1.2276131649807094,-2.0503122348845
1783245559817737000,2.331737060546875,1.4725965180814264,1.1773813996076583,-2.1737828394696117
1783245559827748900,2.341748779296875,1.4135282430410385,1.3293217273518443,-1.9863921358987688
1783245559837760800,2.3517607421875,1.3486930750370025,1.5171061064153908,-1.670950221954286
1783245559847773000,2.36177294921875,1.3962117820590734,1.5366013727411627,-1.4977987638771533
1783245559857783800,2.37178369140625,1.4262304882258177,1.4058562471084295,-1.4063131970956921
1783245559867795700,2.381795654296875,1.3551421050459145,1.2291603944227099,-1.2787518160656093
1783245559877807900,2.391807861328125,1.271096625137329,1.1126852016828954,-1.0782014789313077
1783245559887819800,2.40181982421875,1.2068366266727446,0.9797786602325737,-0.8628641992926597
1783245559897830700,2.41183056640625,1.0814058279305696,0.8055291777856648,-0.6662859806597232
1783245559907842600,2.421842529296875,0.8046896582216024,0.5793915410608053,-0.48276715008616444
1783245559917854700,2.431854736328125,0.48459202742576596,0.3742756495766342,-0.34735417877286673
1783245559927866600,2.44186669921875,0.11481529670357704,0.2802327995277941,-0.21281740577220915
1783245559937877800,2.451877685546875,-0.34055706597864627,0.21205255887955426,-0.15629706164896487
1783245559947890000,2.461889892578125,-0.675686261689663,0.15519450723454356,-0.21825492065101862
1783245559957901800,2.47190185546875,-0.9481845214426516,0.09791501530706882,-0.368027256706357
1783245559967914000,2.4819140625,-1.0969961957722902,0.07067001163735985,-0.45056993083655833
1783245559977924900,2.4919248046875,-1.1108598859518766,0.024402765981107948,-0.4874003628447652
1783245559987936800,2.501936767578125,-1.1056979731440544,-0.06281754457131028,-0.5429477702826261
1783245559997948700,2.51194873046875,-1.0404559779047966,-0.16514380044937133,-0.5409127573236823
1783245560007960800,2.5219609375,-0.9192658854722976,-0.277917654453218,-0.538397267371416
1783245560017971700,2.5319716796875,-0.6871101575016975,-0.32102877416610714,-0.44775370437204837
1783245560027983600,2.541983642578125,-0.39154374137222764,-0.26708193379268047,-0.4092152994021773
1783245560037995800,2.551995849609375,-0.13225216919481753,-0.31241043729409573,-0.46686347851157184
1783245560048007700,2.562007568359375,0.11981237433850765,-0.3822102419681847,-0.5604407568752765
1783245560058018600,2.5720185546875,0.3341799321621656,-0.40954233939945694,-0.6497779134511947
1783245560068030700,2.58203076171875,0.47427463155090804,-0.424715943133831,-0.6167518421620131
1783245560078042600,2.592042724609375,0.5076578457146883,-0.4141688301563263,-0.5656655057862401
1783245560088054800,2.6020546875,0.490843489035964,-0.4264142714843154,-0.5053481074675917
1783245560098066000,2.61206591796875,0.34884441733062266,-0.4709650686115026,-0.5287658079341053
1783245560108077800,2.622077880859375,0.1331517483830452,-0.5033890823543071,-0.5013526080906391
1783245560118089700,2.63208984375,-0.04724456625580788,-0.47487683522775764,-0.39871027200073
1783245560128102000,2.642101806640625,-0.15407470942437648,-0.47050884927660225,-0.4077899427741766
1783245560138112800,2.65211279296875,-0.22435060717761515,-0.5198603246837854,-0.42446839811354875
1783245560148124700,2.662124755859375,-0.2541629771173,-0.5399567717730999,-0.4247174044385552
1783245560158136800,2.67213671875,-0.2663514275610447,-0.47816930090188975,-0.4219245588496327
1783245560168148700,2.682148681640625,-0.27627660924792286,-0.469606639739871,-0.412375224737823
1783245560178159600,2.69215966796875,-0.36216450215280055,-0.4857683777287602,-0.43389702845513817
1783245560188171800,2.702171875,-0.5118219796568155,-0.4341226539045572,-0.355873000793159
1783245560198183700,2.71218359375,-0.6571633475273847,-0.38634076590165495,-0.3170014183461666
1783245560208195600,2.722195556640625,-0.77026599509418,-0.36000454763993617,-0.35213293748199936
1783245560218206700,2.732206787109375,-0.8091255948424338,-0.1900543698221445,-0.19480068756639957
1783245560228219000,2.742218994140625,-0.8446879066109657,0.05467646982222795,0.017827333113551138
1783245560238230800,2.752230712890625,-0.8861369383305311,0.17921601881310342,0.0359478039547801
1783245560248243000,2.762242919921875,-0.976492916560173,0.22661299915164707,-0.19464608152657747
1783245560258253800,2.77225390625,-1.2469137855172157,0.1673727285452187,-0.51764177185148
1783245560268265700,2.782265625,-1.673411935892701,-0.013542787662148476,-0.8869748504593968
1783245560278277600,2.792277587890625,-2.086000218859315,-0.145616823811084,-1.1506275404557584
1783245560288289800,2.802289794921875,-2.5244635323166844,-0.09003755993023514,-1.2911261444702744
1783245560298300700,2.81230078125,-2.9604309373050928,-0.003935585883259773,-1.400275962758064
1783245560308312600,2.8223125,-3.0537206308990714,0.1575644512362778,-1.3810206426680087
1783245560318324700,2.83232470703125,-2.9239474190384147,0.31905762022361156,-1.1848562655329704
1783245560328336600,2.842336669921875,-2.4737960058748723,0.456569317381829,-0.9345160615742206
1783245560338347800,2.85234765625,-1.6436013195186852,0.5539033179305494,-0.7256167060285806
1783245560348360000,2.86235986328125,-0.8221411437600851,0.5691717603415251,-0.7105372103184461
1783245560358371800,2.872371826171875,-0.15546587152183056,0.5726755306787789,-0.7909057552799582
1783245560368383700,2.8823837890625,0.23856208788156508,0.6445172164440155,-0.8605416015639901
1783245560378395000,2.892394775390625,0.36129999427795406,0.7606418421804905,-0.9263301247701048
1783245560388406800,2.90240673828125,0.44969373252391814,0.902218158429116,-0.9556956277251243
1783245560398418700,2.912418701171875,0.44375966629981994,1.00176939663589,-0.9947633172661066
1783245560408430800,2.922430908203125,0.36291853539049623,1.0240531246364115,-1.0408008458197116
1783245560418441700,2.932441650390625,0.23961013562977312,1.0399354611620306,-0.9774100314050912
1783245560428453600,2.94245361328125,0.11868541613519192,0.989853917914629,-0.9070353494524955
1783245560438465800,2.9524658203125,-0.058089200875163075,0.9235118524789809,-0.7822501551374793
1783245560448477700,2.962477783203125,-0.22081366522312162,0.9306798444122075,-0.6691594902694225
1783245560458488600,2.972488525390625,-0.19349018948972224,0.9600108605757355,-0.5898588668003678
1783245560468500700,2.982500732421875,-0.08161211528182029,0.9697561556510627,-0.5145148720026016
1783245560478512600,2.9925126953125,0.11437982789576052,0.9850310278028249,-0.5405108985245227
1783245560488524800,3.00252490234375,0.33064065212011334,1.0112653931252658,-0.62388184017241
1783245560498535700,3.01253564453125,0.4669663543641567,1.0604064406521618,-0.7111424827352166
1783245560508547800,3.0225478515625,0.5232932217419147,1.1215860087580978,-0.8651046716958284
1783245560518559700,3.032559814453125,0.4531225379288196,1.1364007160522043,-1.0220921998269856
1783245560528572000,3.042572021484375,0.31133097149431704,1.1639821120694278,-1.143180585450679
1783245560538582800,3.052582763671875,0.18800328251123427,1.238889761276543,-1.2174306475318968
1783245560548594700,3.0625947265625,0.07838438540697097,1.2137800160698593,-1.2749514008693397
1783245560558606800,3.07260693359375,0.048532267978787416,1.1821940605863928,-1.343047616495937
1783245560568618800,3.08261865234375,-0.0528378562182188,1.113362954813987,-1.403574565912038
1783245560578629600,3.092629638671875,-0.17841770804226398,1.0006924150541425,-1.4161379871480166
1783245560588641500,3.1026416015625,-0.4716635722696781,0.8720699806638061,-1.2994590885296464
1783245560598653700,3.11265380859375,-0.8028039906054735,0.7238713236659765,-1.1012699275687337
1783245560608665600,3.12266552734375,-1.0597048682540655,0.5926578498691321,-0.8359604102760553
1783245560618676700,3.1326767578125,-1.331795131728053,0.4215283991388976,-0.6356155325859785
1783245560628689000,3.14268896484375,-1.5442729302823544,0.26120383553951976,-0.5438870969593524
1783245560638700800,3.15270068359375,-1.5611317106246947,0.10467515709176659,-0.5327151300817727
1783245560648712700,3.162712646484375,-1.450730138710141,0.0962447440072894,-0.5177113299563527
1783245560658723800,3.172723876953125,-1.2498714662790298,0.2030363087311387,-0.5580851336598396
1783245560668735700,3.18273583984375,-0.9253279619902371,0.263005039742589,-0.7902773942485452
1783245560678747600,3.19274755859375,-0.5781307273447513,0.24677169782221317,-1.0815817690193652
1783245560688759800,3.202759765625,-0.2952800004035234,0.19167305706515908,-1.268266516277939
1783245560698770700,3.212770751953125,-0.016941782450675964,0.18793036340549588,-1.313938426389545
1783245560708782600,3.222782470703125,0.2455716743826866,0.16674173716530202,-1.2667393067106605
1783245560718794800,3.232794677734375,0.42704818547368045,0.12791823164373636,-1.2169991242468357
1783245560728806700,3.242806640625,0.46806057934164996,0.05276537550389766,-1.2449908546306192
1783245560738817800,3.25281787109375,0.41114919007420536,0.056586102835834026,-1.2327354764305054
1783245560748830000,3.262829833984375,0.25138416005373,0.038867198532819745,-1.2691580582901836
1783245560758841900,3.272841796875,0.10689385605454445,-0.024721038150042295,-1.349195763862133
1783245560768853800,3.282853759765625,-0.01154839897453785,-0.058796764622628686,-1.414908153092116
1783245560778865000,3.292864990234375,-0.1611497623771429,-0.11820566979423165,-1.4757470910668373
1783245560788876800,3.302876708984375,-0.2562754392266273,-0.14841609914079307,-1.478332139123976
1783245560798888700,3.312888671875,-0.3430383614003658,-0.17473098235353826,-1.4329885841839014
1783245560808900900,3.32290087890625,-0.47105508498251436,-0.18771745130717754,-1.37893886795789
1783245560818911700,3.332911865234375,-0.6142407361239195,-0.2297610879190266,-1.3747798485822975
1783245560828923600,3.342923583984375,-0.662259793883562,-0.28696386134847995,-1.3575384986631571
1783245560838935800,3.352935791015625,-0.7637491605460643,-0.34170594375282526,-1.2966650738969445
1783245560848947700,3.36294775390625,-0.8544751411318778,-0.4553640332452953,-1.1553794111579656
1783245560858958800,3.372958740234375,-0.9058943627238273,-0.5546136581569909,-0.9562525309555232
1783245560868970800,3.382970703125,-0.8512094173341989,-0.5417711277186871,-0.6918216961935162
1783245560878982700,3.392982666015625,-0.746237469252944,-0.5294641654618084,-0.4505542948760092
1783245560888994800,3.402994873046875,-0.5754881038814783,-0.5328599453799426,-0.32845103312134744
1783245560899006000,3.413005859375,-0.3724865742027759,-0.5306505987673997,-0.2855396737642586
1783245560909017900,3.423017822265625,-0.2859621369600296,-0.5538606478326022,-0.3402123441942036
1783245560919029800,3.43302978515625,-0.3389800259202719,-0.6365528134360909,-0.43570612370371814
1783245560929042000,3.4430419921875,-0.5742728828728199,-0.7020519983068109,-0.45075361684039233
1783245560939052800,3.453052734375,-0.8546727095305919,-0.690827278328687,-0.3797751237757504
1783245560949064700,3.463064697265625,-1.100006483504176,-0.6809497351758181,-0.3652826341733336
1783245560959076900,3.473076904296875,-1.1995581601023673,-0.6894768866330385,-0.3822244166240096
1783245560969088800,3.4830888671875,-1.2629665101736782,-0.6845404531441629,-0.3771428755760193
1783245560979099600,3.493099609375,-1.1376736585974692,-0.5217096058122813,-0.27253450011014935
1783245560989111800,3.50311181640625,-0.7726695491045713,-0.2882810814268887,-0.15023279317393898
1783245560999123700,3.513123779296875,-0.35774142501354217,-0.16903583945184944,-0.13665654163360594
1783245561009135600,3.523135498046875,0.03596913900375366,-0.15230039322823286,-0.1689997452251613
1783245561019146800,3.533146728515625,0.3276286108225584,-0.1160498069345951,-0.16058511423170566
1783245561029159000,3.543158935546875,0.5637812994748354,-0.033530952071398494,-0.05381766103580594
1783245561039170800,3.5531708984375,0.6808049198776484,0.00010199906975030899,0.055849897515773766
1783245561049183000,3.563182861328125,0.7463210558831691,-0.07513327465653419,0.14276479538083076
1783245561059193900,3.57319384765625,0.7625058824867009,-0.1284228201650083,0.33043051650077104
1783245561069205800,3.583205810546875,0.6880991685390472,-0.1517309227772057,0.3901926190242171
1783245561079218000,3.593218017578125,0.5332026213377714,-0.2139532779343426,0.3195810595758259
1783245561089229800,3.603229736328125,0.3600526245653629,-0.24480229744538665,0.22877646079584954
1783245561099240700,3.61324072265625,0.12397592375874518,-0.2871853951446712,0.06956278104782104
1783245561109252600,3.623252685546875,-0.0570335543423891,-0.38760201800912614,-0.12227759540826082
1783245561119264800,3.6332646484375,-0.21188158622682093,-0.417103860694915,-0.2541309745438397
1783245561129276700,3.643276611328125,-0.3529050908982754,-0.29637203342393037,-0.23271672285422682
1783245561139287800,3.653287841796875,-0.3858241946816444,-0.11956541384011507,-0.2033474205069244
1783245561149300000,3.663300048828125,-0.35477497642338274,-0.01870718468800187,-0.3354140040017664
1783245561159312000,3.673311767578125,-0.26373919923603534,-0.025036241579055783,-0.5594036689125002
1783245561169323800,3.68332373046875,-0.12422317651808261,-0.03579991991668939,-0.6923384135439992
1783245561179335000,3.6933349609375,-0.06972761622071266,0.04603080655187368,-0.676795684236288
1783245561189346800,3.703346923828125,-0.18665362146794795,0.1269968790151179,-0.610611293580383
1783245561199358700,3.713358642578125,-0.29669512789845465,0.23477643186300992,-0.5161173387631773
1783245561209371000,3.723370849609375,-0.4210580051481724,0.43535365700423717,-0.3858944834388792
1783245561219381800,3.7333818359375,-0.5473007047951222,0.6790719586052,-0.19221154785603284
1783245561229393700,3.7433935546875,-0.571851793205738,0.9003631782121956,0.02641702841296792
1783245561239405800,3.75340576171875,-0.5342997689247131,1.0598508525960146,0.22252923696935176
1783245561249417700,3.763417724609375,-0.4433937555968761,1.1815472871154546,0.49840924811512227
1783245561259428900,3.773428955078125,-0.2545253806889057,1.2606636400587856,0.835158007851988
1783245561269440800,3.783440673828125,-0.11587094323635101,1.22001715689376,1.2032475161395966
1783245561279453000,3.793452880859375,-0.08338730826079845,1.075272732003033,1.5308553764350712
1783245561289464800,3.80346484375,-0.12321370721459388,0.8830801811084151,1.8181481774769723
1783245561299476000,3.81347607421875,-0.17872224394679068,0.7279926413796841,2.0384123921237887
1783245561309487900,3.82348779296875,-0.29643793826699255,0.5944616844207048,2.18364284696579
1783245561319499800,3.833499755859375,-0.4475029444813728,0.5360359450675547,2.2942947403796015
1783245561329512000,3.843511962890625,-0.5027238964438439,0.5537418437585234,2.25244648020938
1783245561339522800,3.853522705078125,-0.43523149192929267,0.6617592970155179,2.0410075231835245
1783245561349534700,3.86353466796875,-0.3021896336615085,0.763782332163304,1.669495639231801
1783245561359547000,3.873546875,0.010427870512008667,0.8117442529082298,1.1914325751833617
1783245561369558800,3.883558837890625,0.41187516626119614,0.8116833165012299,0.7449629192724824
1783245561379569700,3.893569580078125,0.8341431317210197,0.7841261781424284,0.49330666427910325
1783245561389581600,3.90358154296875,1.194765665128827,0.7335252871960402,0.39997546963095665
1783245561399593700,3.91359375,1.390011173853278,0.6620717239655554,0.31372970319911836
1783245561409605600,3.923605712890625,1.4006424579828978,0.4670448264278471,0.26939795565009117
1783245561419617800,3.93361767578125,1.3028607136666774,0.294110518232733,0.1953916391968727
1783245561429629000,3.94362890625,1.11381873575747,0.2521551444262266,0.18117255970835686
1783245561439640800,3.953640869140625,0.8843237514287233,0.2362089488841593,0.25200769877955315
1783245561449653000,3.963653076171875,0.8237550086975097,0.22526056162938474,0.34052930118888614
1783245561459664000,3.973663818359375,0.8521773855835199,0.18612375237494705,0.4731067568153143
1783245561469675800,3.98367578125,0.9373644367426633,0.07623626746237278,0.647227936707437
1783245561479687700,3.993687744140625,1.0873287882387637,0.049066520985960954,0.7449230256535112
1783245561489699800,4.003699951171875,1.1857470768928526,-0.006258475872874259,0.8143722633242607
1783245561499711700,4.013711669921875,1.2170599145233632,-0.03817395557165146,0.846260416624695
1783245561509722600,4.02372265625,1.2846844209849835,-0.15702639883682132,0.7285004447713493
1783245561519734800,4.03373486328125,1.2822972335875034,-0.33149785347133875,0.658458940295875
1783245561529746700,4.04374658203125,1.2276672332555054,-0.4303608171530068,0.6800527863360941
1783245561539757800,4.0537578125,1.1594359930723905,-0.4526945217750966,0.7442008488588034
1783245561549770000,4.06377001953125,1.0782599311202763,-0.4622650448054075,0.8324880579903722
1783245561559782000,4.073781982421875,1.001443233421445,-0.5029097744047641,0.8923831392437219
1783245561569793800,4.083793701171875,0.8968518090903759,-0.5847060140818358,0.9437168745093047
1783245561579806000,4.093805908203125,0.7908394120454788,-0.703401951611042,0.9433404424123465
1783245561589816800,4.10381689453125,0.6432347754180431,-0.7953058899350464,0.9159531076624989
1783245561599828700,4.113828857421875,0.43962826558351514,-0.8975500204876065,0.7954976131148636
1783245561609841000,4.1238408203125,0.28549510397017,-0.9205177852295339,0.6076107965901494
1783245561619852800,4.133852783203125,0.07179507014453411,-0.9136847243390976,0.38741694376580416
1783245561629863700,4.14386376953125,-0.056143327504396434,-0.8729889952048658,0.15947649540267883
1783245561639875800,4.153875732421875,-0.14528466924726963,-0.8141502911366522,-0.05015475461408496
1783245561649887700,4.1638876953125,-0.20542437291145324,-0.7793048954658209,-0.29698410090766847
1783245561659899600,4.173899658203125,-0.24289982482492922,-0.7246478609964251,-0.5260318529255688
1783245561669910800,4.183910888671875,-0.24996494090557098,-0.6650004708938301,-0.6756357736114412
1783245561679923000,4.1939228515625,-0.18877017523050307,-0.5720125367254019,-0.7311188105762004
1783245561689934800,4.203934814453125,-0.1554290466427803,-0.46542423948869105,-0.6749130122948438
1783245561699947000,4.213947021484375,-0.15537000993192196,-0.41749344453439113,-0.6334259866524488
1783245561709958000,4.2239580078125,-0.2483563366651535,-0.4626709952577948,-0.6050897536799311
1783245561719969800,4.2339697265625,-0.4365682934910059,-0.44501887258067724,-0.5146431745573878
1783245561729982000,4.24398193359375,-0.7016881334304809,-0.4100744004495442,-0.36966669447645545
1783245561739993900,4.253993896484375,-0.9779255797117948,-0.4509790961593389,-0.2620120101172477
1783245561750004700,4.264004638671875,-1.1152461382120846,-0.45017523243054747,-0.07205372108072042
1783245561760016600,4.2740166015625,-1.0891402215749024,-0.35154315489530563,0.17702157750874756
1783245561770028800,4.28402880859375,-0.9979232426017522,-0.2698288944132626,0.2993896642120555
1783245561780040700,4.294040771484375,-0.8605804722696542,-0.2589331141285598,0.377229421348311
1783245561790051600,4.304051513671875,-0.6341413683801889,-0.1643685782931745,0.4256861764054745
1783245561800063700,4.314063720703125,-0.4452630566000938,-0.08745689578726887,0.39660968299228694
1783245561810075600,4.32407568359375,-0.33644495448470113,-0.08897606817856431,0.3120085054297
1783245561820087300,4.33408740234375,-0.36065234402418134,-0.1292782679505646,0.19828253833279014
1783245561830098400,4.344098388671875,-0.49204234343171116,-0.20928733194991944,0.05451335168238729
1783245561840110300,4.3541103515625,-0.6983078433424234,-0.31235636901929975,0.043438305840641254
1783245561850122200,4.364122314453125,-0.9976742362767458,-0.421370139837265,0.13590112015642225
1783245561860134400,4.374134521484375,-1.2623060004383324,-0.5051167829297483,0.2839670176200568
1783245561870145300,4.384145263671875,-1.4641986920922994,-0.5897780566491186,0.4285018548807129
1783245561880157200,4.3941572265625,-1.5900041693657636,-0.5893558857142925,0.4555398647362366
1783245561890169300,4.40416943359375,-1.5881120720088482,-0.556993246769905,0.5498280313156545
1783245561900181200,4.41418115234375,-1.5086527508467436,-0.4805750468693673,0.5870564861981198
1783245561910192000,4.424192138671875,-1.338027888637781,-0.42053865744918584,0.6416467755742371
1783245561920204300,4.434204345703125,-0.9577712649554013,-0.36186464242339134,0.5910614475231617
1783245561930216200,4.44421630859375,-0.4709095390319824,-0.17798428506106137,0.45955607810765503
1783245561940228000,4.45422802734375,-0.002655482944846153,0.08256810083240271,0.302407769924216
1783245561950239200,4.4642392578125,0.3760562493830919,0.29194501076191665,0.1327008993430063
1783245561960251400,4.47425146484375,0.7212006431519985,0.4934367203995585,0.06859722395129501
1783245561970263300,4.48426318359375,0.9191180014342069,0.6962053181052208,0.0508200135897845
1783245561980275500,4.494275390625,0.9674883568495511,0.839502612927556,0.004604388522915542
1783245561990286300,4.504286376953125,0.9472036937117576,0.9571747603669762,-0.06465740028433502
1783245562000298200,4.51429833984375,0.8927309297680854,1.041718691316992,-0.14972557430416344
1783245562010310400,4.524310302734375,0.8776847518056631,1.1493988754436373,-0.21252857889346777
1783245562020322300,4.534322265625,0.8311059559822082,1.2183137139767408,-0.29107246571108697
1783245562030333200,4.544333251953125,0.7427578104436398,1.2161249717608094,-0.37206513392031193
1783245562040345000,4.554344970703125,0.5121387905210256,1.1402924627937376,-0.3606136194489896
1783245562050357200,4.564357177734375,0.24660978525876998,1.082503560039401,-0.2185121468150988
1783245562060369200,4.574369140625,-0.036790392258763314,1.0139379733353853,-0.10065525392591952
1783245562070380300,4.58438037109375,-0.47361003016233444,0.8756380484089255,-0.03396130631268024
1783245562080392400,4.594392333984375,-0.8857681050181389,0.7661049298919737,0.07798954087048769
1783245562090404400,4.604404296875,-1.1684645181804896,0.6878174289882183,0.24242322028912602
1783245562100416300,4.614416259765625,-1.3241624448925255,0.6523975944302975,0.3506711943663656
1783245562110427400,4.624427490234375,-1.337621645924449,0.6108867495208978,0.37321079682409763
1783245562120439300,4.634439208984375,-1.218904665607214,0.602288724784553,0.29716756771579383
1783245562130451200,4.644451171875,-1.0507698666483163,0.6598029022507369,0.24212613703869282
1783245562140463400,4.65446337890625,-0.7858738985925913,0.7089522792145609,0.1470348739154637
1783245562150474200,4.66447412109375,-0.4645183766901493,0.7361452604360879,0.04487644888497889
1783245562160486100,4.674486083984375,-0.12979308560490607,0.7370439628414809,0.010038140542060136
1783245562170498300,4.684498291015625,0.19601941570639608,0.7121452300369739,0.03295439429245889
1783245562180510200,4.69451025390625,0.48908407814800736,0.6910534882999956,0.05732632674388587
1783245562190521300,4.704521240234375,0.7016624144673347,0.6460057014361024,0.12752820941284299
1783245562200533500,4.714533447265625,0.8268214105308055,0.5771069372549653,0.1576933383129537
1783245562210545400,4.72454541015625,0.9707698627382516,0.5370477524586021,0.18514811227582395
1783245562220557300,4.734557373046875,0.9743260939151048,0.5240266505829989,0.19567272116057574
1783245562230568400,4.744568359375,0.9772387664914131,0.47259719985798,0.19957287040427327
1783245562240580400,4.754580322265625,1.0228262131899595,0.44400560388490556,0.1973682730320841
1783245562250592300,4.76459228515625,1.0479910495847462,0.4552753320485353,0.19301080847494304
1783245562260604400,4.7746044921875,1.0875906540453433,0.3876185307525098,0.15848638838678597
1783245562270615300,4.784615234375,1.1243880605667829,0.27574907824248074,0.10296543056443333
1783245562280627200,4.794627197265625,1.1334615938603878,0.16315364954546094,0.07717705544382333
1783245562290639400,4.804639404296875,1.1220073029100894,0.05564136933162808,0.10682079081833362
1783245562300651300,4.8146513671875,1.0446166047155856,-0.04121156970188022,0.1301456984348595
1783245562310662100,4.824662109375,0.9488783489257097,-0.1696376047372818,0.11933372397609054
1783245562320674300,4.83467431640625,0.8313982169270515,-0.31264673026800155,0.11524755064100027
1783245562330686200,4.844686279296875,0.6124205349594354,-0.4780972585789859,0.13122246082089842
1783245562340698400,4.854698486328125,0.41735155184566974,-0.6313515915311873,0.18742504423186182
1783245562350709200,4.864709228515625,0.24381810871362686,-0.7429189923547208,0.29945677463151515
1783245562360721400,4.874721435546875,0.19810849694013594,-0.7747238512858748,0.45410687279105183
1783245562370733300,4.8847333984375,0.35589433584213254,-0.8785108273662626,0.5883562802176923
1783245562380745500,4.894745361328125,0.48125090030431744,-1.0104900248385966,0.5915049535069614
1783245562390756400,4.90475634765625,0.5506856710582971,-1.1607665110237895,0.49360440511666237
1783245562400768300,4.914768310546875,0.5410597645789385,-1.289188746666908,0.30292832319959995
1783245562410780200,4.9247802734375,0.3563496783941984,-1.3331845402598381,0.13658384172357618
1783245562420792300,4.934792236328125,0.08027940537333488,-1.269842679553479,0.018936828725412486
1783245562430803200,4.94480322265625,-0.24505028085708616,-1.2237940450839697,-0.09085384474918246
1783245562440815000,4.954815185546875,-0.4585626831561327,-1.1585517575837672,-0.16224362202845513
1783245562450827300,4.9648271484375,-0.5868588082015515,-1.0548825626641511,-0.16023462029360233
1783245562460839200,4.974839111328125,-0.6631856765568256,-0.941288916710019,-0.11460771836750208
1783245562470850300,4.984850341796875,-0.6810065799295902,-0.8800010659240186,-0.11459420129880309
1783245562480862500,4.994862548828125,-0.6250894623965024,-0.8601059866257011,-0.168460377651453
1783245562490874400,5.004874267578125,-0.5997323183000087,-0.8453617142193018,-0.20352073124721645
1783245562500886300,5.01488623046875,-0.5823433766037225,-0.8148689608000218,-0.16673311546742914
1783245562510898400,5.0248984375,-0.5550777685374021,-0.7762257802814245,-0.1619227195110172
1783245562520909300,5.034909423828125,-0.5051870716869831,-0.7354328743830323,-0.14169395127892492
1783245562530921200,5.044921142578125,-0.5137842196404934,-0.6608952275320887,-0.12300956294462084
1783245562540933400,5.054933349609375,-0.44741468167603016,-0.5268237339556217,-0.018754677091538906
1783245562550944300,5.0649443359375,-0.32334640345871446,-0.31071590833589435,0.17006868963092564
1783245562560956200,5.0749560546875,-0.21916706705987452,-0.08872253180891275,0.28080285450071096
1783245562570968300,5.08496826171875,-0.08422200551927089,0.031401246566325425,0.3247626999974251
1783245562580980200,5.094980224609375,-0.010326748225092887,0.07825608285218477,0.3638658992432058
1783245562590992100,5.1049921875,-0.12717501206099988,0.15318842810913919,0.4725128825753927
1783245562601003500,5.11500341796875,-0.3005763532459736,0.2865523579381406,0.5872405009955167
1783245562611015400,5.125015380859375,-0.513400773280859,0.3970554905310273,0.6918548678107559
1783245562621027300,5.13502734375,-0.6609440351098775,0.46895022165775296,0.6779254189185798
1783245562631038200,5.1450380859375,-0.8049228824555873,0.48040217452049255,0.4826750878885388
1783245562641050400,5.15505029296875,-0.9744991123944521,0.47097529774457214,0.17061258724927902
1783245562651062300,5.165062255859375,-1.1382663637936115,0.5631514771386981,-0.06316445831283926
1783245562661074400,5.175074462890625,-1.2985025184571741,0.7183249415852129,-0.20206468722000717
1783245562671086300,5.18508642578125,-1.3994658154189585,0.6392563733063638,-0.4870613401487469
1783245562681097200,5.19509716796875,-1.431864110198617,0.4287359924301505,-0.6972180022791028
1783245562691109000,5.205109130859375,-1.4265999060600996,0.2807923331066966,-0.7749579523026943
1783245562701121300,5.215121337890625,-1.2612561991244553,0.25993381560370327,-0.8044172710210085
1783245562711133200,5.22513330078125,-1.0963573133468627,0.3523939265057444,-0.7906371674716473
1783245562721144300,5.235144287109375,-0.9283587079882621,0.5352363191224634,-0.714004301907122
1783245562731156200,5.24515625,-0.6732283471435309,0.6882096431761979,-0.728060153657943
1783245562741168400,5.25516845703125,-0.3848445359945297,0.7940060593828558,-0.6847476661540568
1783245562751180300,5.26518017578125,-0.04763736496567726,0.9077040424942969,-0.6605072511278093
1783245562761191400,5.27519140625,0.3199374717980623,1.0357723501332103,-0.6091451665505766
1783245562771203300,5.285203369140625,0.681616820782423,1.1586292067341506,-0.5227924326129257
1783245562781215200,5.29521533203125,0.964735843271017,1.2577036212094128,-0.31703707418143745
1783245562791227400,5.305227294921875,1.2016764674305915,1.1997761867672205,-0.1616973132573068
1783245562801238300,5.31523828125,1.405494574189186,1.1129958750672637,0.013937778329104185
1783245562811250200,5.325250244140625,1.474967923387885,0.9881192030765116,0.29190146388113497
1783245562821262800,5.335262939453125,1.3176216449469327,0.7706361435808241,0.5268870084501802
1783245562831274800,5.345274658203125,1.0006874466180802,0.5228456241048872,0.8918737284168601
1783245562841285600,5.35528564453125,0.6538508619785308,0.3646668403625488,1.300495884231478
1783245562851297800,5.3652978515625,0.43564533342719075,0.2133523894317448,1.5880394451640545
1783245562861309700,5.375309814453125,0.22062135752141473,0.12232698750793933,1.8303117857404052
1783245562871321600,5.385321533203125,-0.008642740660905838,0.09414192650914191,1.994799021977186
1783245562881333000,5.3953330078125,-0.19837386987805367,0.09949892349764704,1.9718331569314003
1783245562891345000,5.405344970703125,-0.31827099989056584,0.08366802489832043,1.7767954457387327
1783245562901356800,5.415356689453125,-0.4047001600652933,0.14575594002082942,1.444904209035635
1783245562911369000,5.425368896484375,-0.381126976776123,0.2331007537357509,0.9800953249663114
1783245562921379800,5.4353798828125,-0.06050152271389961,0.2995094546668231,0.4757831364177167
1783245562931391700,5.445391845703125,0.3693202191263437,0.3395470121532678,0.028251842624694108
1783245562941404000,5.45540380859375,0.7097936984747648,0.3181628633409738,-0.3604845862418413
1783245562951415800,5.465415771484375,0.9264625189781188,0.2770481781423092,-0.6968083985649048
1783245562961426700,5.4754267578125,1.0463760156035422,0.274763866597414,-0.9053859748102724
1783245562971438800,5.48543896484375,1.048470942056179,0.31101591419577596,-0.952701852736622
1783245562981450800,5.49545068359375,1.06853640948534,0.36735987883880733,-0.9342183938018978
1783245562991462700,5.505462646484375,1.174696106046438,0.4156292580977082,-0.863540783379972
1783245563001473800,5.515473876953125,1.2563140665471553,0.4342258220180869,-0.7948566848628222
1783245563011485700,5.525485595703125,1.3498545200318097,0.33661022804901003,-0.7513219329103827
1783245563021497600,5.53549755859375,1.488841550439596,0.2434996904142201,-0.6808968359448015
1783245563031509800,5.545509765625,1.491605754455924,0.12703195032849907,-0.6150795250356197
1783245563041521000,5.55552099609375,1.381178463578224,-0.01986059250682592,-0.4946273914888501
1783245563051532800,5.56553271484375,1.093723457711935,-0.13982830353751777,-0.363305927272886
1783245563061545000,5.575544921875,0.6692039139330387,-0.2700859379142523,-0.15618322601094842
1783245563071556900,5.585556884765625,0.11080313845276832,-0.38262861351072786,-0.04028904802948236
1783245563081567700,5.595567626953125,-0.328272753944993,-0.4533151378914714,-0.003565583527088165
1783245563091579600,5.60557958984375,-0.53229135171175,-0.4755637945786118,-0.06092983112856745
1783245563101591800,5.615591796875,-0.5613730692893266,-0.4812795418769121,-0.1245018473289907
1783245563111603700,5.625603759765625,-0.31902970930337904,-0.4643801372632384,-0.1423269154202193
1783245563121614600,5.635614501953125,-0.08197218076586722,-0.4871520871721208,-0.09434811660572887
1783245563131626800,5.645626708984375,0.09414660268425941,-0.572868276771903,-0.07626447064355016
1783245563141638700,5.655638671875,0.21344635132551193,-0.6540098519325256,-0.09274681888893246
1783245563151650800,5.66565087890625,0.1270294661104679,-0.6822440127700566,-0.1425861508782953
1783245563161662000,5.675661865234375,-0.020321488016843796,-0.7625298478841781,-0.18621048081032932
1783245563171673900,5.685673828125,-0.1572761358141899,-0.86721859510988,-0.17732129110768435
1783245563181685800,5.695685791015625,-0.33468379003107546,-0.8818436250507831,-0.14734050579853356
1783245563191698000,5.705697998046875,-0.39037762020230293,-0.8359281154416501,-0.09028905047327279
1783245563201708800,5.715708740234375,-0.45067806738615035,-0.8091786402039229,-0.15504333526082337
1783245563211720700,5.725720703125,-0.5138625455737114,-0.8018092804796993,-0.24899638813436029
1783245563221732900,5.73573291015625,-0.43557226819097994,-0.783481450498104,-0.2565426387954503
1783245563231744800,5.745744873046875,-0.37042145836651325,-0.7113226616077125,-0.17719897990226743
1783245563241755600,5.755755615234375,-0.3981926778674125,-0.6149678813546896,-0.09446553244031965
1783245563251767800,5.765767822265625,-0.5090490078121424,-0.6446107399463653,-0.010554638696834444
1783245563261779700,5.77577978515625,-0.5944868188619613,-0.6910192937694489,0.06699972562678158
1783245563271791600,5.78579150390625,-0.6256809985488653,-0.7281729663826525,0.10729235385283827
1783245563281803000,5.795802978515625,-0.658686611571908,-0.6872200476169585,0.18251337985806165
1783245563291815000,5.80581494140625,-0.7252081252276897,-0.6348255512520671,0.3346517143923789
1783245563301826800,5.815826904296875,-0.7853291241914033,-0.5754352046504616,0.5368957767672836
1783245563311839000,5.8258388671875,-0.7826502603709697,-0.4771374736361205,0.7812818946272134
1783245563321849900,5.835849853515625,-0.7810381489992141,-0.3419654714718461,1.0229526160486042
1783245563331861800,5.84586181640625,-0.6412234355956316,-0.19942031019106507,1.0799556291222572
1783245563341874000,5.8558740234375,-0.5546253485947847,-0.1766789015509188,1.03963099832274
1783245563351885800,5.8658857421875,-0.47954409638643264,-0.20953312340453265,0.9594250235117971
1783245563361896700,5.875896728515625,-0.45036184104382987,-0.220790576608479,0.6740443397015333
1783245563371908900,5.885908935546875,-0.6304828458726406,-0.24429464018419383,0.4542350292153656
1783245563381920800,5.895920654296875,-0.7592565253019332,-0.13518442325443028,0.1802723229330033
1783245563391932700,5.9059326171875,-1.0224603024870156,-0.12478855531588195,-0.19135843815803527
1783245563401943800,5.91594384765625,-1.2866589359283447,-0.21875191038772462,-0.6916610257390886
1783245563411955700,5.925955810546875,-1.3782166911631821,-0.2103974851489067,-0.8714578401148318
1783245563421968000,5.9359677734375,-1.5016624535679817,-0.15822817584201693,-0.7921100895684212
1783245563431979800,5.945979736328125,-1.5774954009264706,-0.13206585284247993,-0.5958205516837537
1783245563441991000,5.955990966796875,-1.6370716254889963,-0.24040888479202985,-0.3293425751335919
1783245563452002800,5.9660029296875,-1.651658369246125,-0.33711145556941624,0.007073299387097358
1783245563462014700,5.9760146484375,-1.5579431437164544,-0.24024478027150034,0.45304508877843613
1783245563472027000,5.98602685546875,-1.2067255675137043,0.01652355703860521,0.8380588438600302
1783245563482037800,5.996037841796875,-0.7160948444455861,0.35856428570374843,1.018496001965925
1783245563492049700,6.006049560546875,-0.1414648186981678,0.6138282098002732,1.030145669357851
1783245563502061800,6.016061767578125,0.4975006088376045,0.8856858335621655,0.9199228880763053
1783245563512073700,6.02607373046875,0.9542343230009078,1.094632827641815,0.6679713033981621
1783245563522084600,6.036084716796875,1.1297089633286,1.2255556479290126,0.34864589908383786
1783245563532096800,6.0460966796875,1.2103566174924374,1.3016769107095896,0.02346102815158665
1783245563542108700,6.056108642578125,1.3289987790077924,1.3947129218034446,-0.13307649118974804
1783245563552120600,6.06612060546875,1.2669447661548852,1.461719150236249,-0.20447178489435464
1783245563562132000,6.076132080078125,1.0910071844905613,1.4403614510394631,-0.18915037018712608
1783245563572143900,6.086143798828125,0.8192764019787311,1.332762369325012,-0.060764046107605094
1783245563582155800,6.09615576171875,0.38431495916247366,1.214720511790365,0.03363912515360862
1783245563592168000,6.10616796875,-0.0068646250724792475,1.0847947397165,0.11034896494448185
1783245563602178800,6.1161787109375,-0.33224750279486176,1.0466251680590213,0.19932236624192445
1783245563612190700,6.126190673828125,-0.516783985978365,1.0297025287002324,0.31880357239730656
1783245563622203000,6.136202880859375,-0.6664876407116651,0.9513799564830958,0.37833296214342116
1783245563632214800,6.14621484375,-0.7555886504441499,0.8140081061869859,0.4474417158134281
1783245563642225700,6.1562255859375,-0.8377648293495178,0.7132401856668293,0.39527576750740406
1783245563652237800,6.16623779296875,-0.9339514134287834,0.6371611545927822,0.34219686907492575
1783245563662249700,6.176249755859375,-1.0208020138859748,0.6258470027655363,0.32300928045883776
1783245563672261600,6.18626171875,-1.0780582710683344,0.6850654999315738,0.35926074353531
1783245563682273000,6.19627294921875,-1.043864325043559,0.7527997503779829,0.5364859538573772
1783245563692285000,6.206284912109375,-0.8361819440722466,0.855523919532448,0.5909625171933323
1783245563702296800,6.216296875,-0.4715969367742538,0.8650470962896942,0.5142063905753195
1783245563712309000,6.22630908203125,-0.044970191583037375,0.8114227658689022,0.3054067325444892
1783245563722320000,6.23631982421875,0.327530411145091,0.6650248746827244,0.1244694794293493
1783245563732331800,6.246331787109375,0.7534300111055374,0.5706330650657415,0.06299695625882595
1783245563742344000,6.256343994140625,1.0538006126463413,0.6122159522980452,0.1975182028967887
1783245563752355800,6.26635595703125,1.0901005910396575,0.5937487138457596,0.28911106597762554
1783245563762366700,6.27636669921875,1.0833826809614897,0.5619257347360253,0.338650830498524
1783245563772378600,6.286378662109375,1.0947814423322677,0.5552453801892697,0.39183322583809493
1783245563782390800,6.296390869140625,1.065610292905569,0.5357334549896419,0.26173414302393794
1783245563792402700,6.306402587890625,1.0552648399800062,0.46129546912088987,0.2287687158808112
1783245563802413800,6.316413818359375,1.0945581549704073,0.3887649243086576,0.14978227292746304
1783245563812425700,6.32642578125,1.1354928074270487,0.31885420660600067,0.1884105116052553
1783245563822438000,6.33643798828125,1.1477800420701503,0.2781109850682318,0.22311039785817263
1783245563832449800,6.34644970703125,1.1333178014755247,0.20072905470207333,0.2118334727687761
1783245563842460700,6.356460693359375,1.0640484504163266,0.07414221779257059,0.17156020683031528
1783245563852472800,6.366472900390625,0.9510948559314012,-0.05878361288011074,0.09195501092411577
1783245563862484700,6.376484619140625,0.7512959216862917,-0.14738076474368572,0.0688840780686587
1783245563872496600,6.38649658203125,0.5655845495045185,-0.18112594408765434,0.06451941658575087
1783245563882507500,6.396507568359375,0.3904097689062357,-0.16149389963969588,0.06520937161128967
1783245563892519700,6.406519775390625,0.19192776247859,-0.10239508333057165,0.06061784256994724
1783245563902531600,6.416531494140625,0.06439911467432975,-0.05088453019335866,0.0015612944999709724
1783245563912543700,6.426543701171875,0.04749707971215248,-0.0557940756753087,-0.1330762354614213
1783245563922554600,6.4365546875,-0.012080898416042327,-0.11659852685853839,-0.2658662378599867
1783245563932566500,6.44656640625,-0.07997720755636692,-0.19625892355069516,-0.2969176846079528
1783245563942578400,6.456578369140625,-0.10875555827319622,-0.20545842131152747,-0.24531400982718912
1783245563952590600,6.466590576171875,-0.142850135576725,-0.19792247284874318,-0.15776304254829882
1783245563962601700,6.476601806640625,-0.18845277984440326,-0.2136857130393386,-0.07831073564887046
1783245563972613600,6.486613525390625,-0.20179741458594797,-0.22230989513024688,-0.022798107263445853
1783245563982625800,6.496625732421875,-0.20326748713850973,-0.1837193215817213,0.03249992852322757
1783245563992637700,6.5066376953125,-0.23867490060627458,-0.11837255079373717,0.055123336806893346
1783245564002648600,6.516648681640625,-0.3003191636145115,-0.09539192657023668,0.08232267470397055
1783245564012660700,6.52666064453125,-0.335727161604166,-0.08886077123582363,0.053041562096774575
1783245564022672600,6.536672607421875,-0.3733738784313202,-0.12513926844969392,-0.017577523070946333
1783245564032684500,6.5466845703125,-0.3960942442834377,-0.1345991707123816,-0.044238662438094614
1783245564042695700,6.55669580078125,-0.43038931259512897,-0.09203165635690093,-0.10131919772736728
1783245564052707600,6.56670751953125,-0.42331893581748004,0.022965280523896216,-0.14624386966824532
1783245564062719500,6.576719482421875,-0.45270635834336276,0.10587693409696221,-0.21785744576603172
1783245564072731600,6.586731689453125,-0.4158008152723312,0.08518865859434008,-0.2818690954927355
1783245564082742800,6.59674267578125,-0.3315384777426719,0.08867313970923424,-0.22261041244678198
1783245564092754700,6.606754638671875,-0.2728156551390886,0.1580780998468399,-0.043284649648889895
1783245564102766800,6.616766845703125,-0.30280279712378977,0.2508933077968657,0.15740743404366075
1783245564112778800,6.62677880859375,-0.2855570632904768,0.3370902666509151,0.24094299166873095
1783245564122789600,6.63678955078125,-0.3730032915532589,0.3206454739369452,0.23347046383097766
1783245564132801800,6.6468017578125,-0.5015115980446339,0.2726416137464344,0.1648864646874368
1783245564142813700,6.656813720703125,-0.7060813999533653,0.20003610400184987,0.09922492886185645
1783245564152825600,6.66682568359375,-0.8932306959837675,0.0988242391064763,0.004871259298175573
1783245564162836500,6.67683642578125,-1.0220622430801392,0.04710471939370036,0.06171762050539255
1783245564172848600,6.6868486328125,-1.1155039123654364,0.04055003705322742,0.12613244420550762
1783245564182860500,6.696860595703125,-1.0260773239403962,0.1182316810183227,0.1522398952126503
1783245564192872700,6.706872802734375,-0.7971095783561468,0.26761574840843677,0.11239932160302996
1783245564202884600,6.716884521484375,-0.44645197412371634,0.3369469126574695,-0.036227570744231344
1783245564212895700,6.726895751953125,-0.10638824461996554,0.46661783318743105,-0.24526268149875102
1783245564222908000,6.736907958984375,-0.03707154728770256,0.5236056486919523,-0.35615700536631045
1783245564232919800,6.746919921875,0.11754735201597213,0.5821389400728046,-0.4925449957242235
1783245564242930700,6.7569306640625,0.161563603875041,0.5698104966364801,-0.5381086231557652
1783245564252942600,6.766942626953125,-0.1659551168322563,0.3739714059330523,-0.551789796375297
1783245564262954800,6.776954833984375,0.0348258141875267,-0.026807050643861293,-0.7703941515184939
1783245564272966700,6.786966552734375,0.5384300005972386,-0.20067995486333964,-0.9810241302490234
1783245564282978800,6.796978759765625,0.8179910383433103,0.1577177421018481,-0.5067517637204378
1783245564292989700,6.80698974609375,0.5880389578968286,0.9614218964174389,0.15869466084260492
1783245564303001600,6.817001708984375,-0.008583119428157806,1.2195657598644494,0.5518782418437301
