time,seconds_elapsed,z,y,x
1783245703767406300,0.05140625,0.21489138901233673,0.13567732274532318,-0.05925353989005089
1783245703777418500,0.06141845703125,0.18787094950675964,0.1735309660434723,-0.062413379549980164
1783245703787430400,0.071430419921875,0.17149552702903748,0.1991255283355713,-0.07102972269058228
1783245703797442300,0.0814423828125,0.16752208769321442,0.23112474381923676,-0.08975441008806229
1783245703807454500,0.091454345703125,0.17016088962554932,0.26345059275627136,-0.10763190686702728
1783245703817466400,0.10146630859375,0.18500348925590515,0.2680101990699768,-0.12115783244371414
1783245703827478300,0.111478271484375,0.20941290259361267,0.23333339393138885,-0.12959784269332886
1783245703837490400,0.121490478515625,0.2362903207540512,0.19837434589862823,-0.14000041782855988
1783245703847502300,0.13150244140625,0.26012393832206726,0.20045684278011322,-0.15668337047100067
1783245703857514500,0.141514404296875,0.27141520380973816,0.22631187736988068,-0.15871696174144745
1783245703867526400,0.1515263671875,0.27809077501296997,0.20680537819862366,-0.11902988702058792
1783245703877538300,0.161538330078125,0.2971496880054474,0.1349908411502838,-0.05199066549539566
1783245703887550500,0.171550537109375,0.3209163248538971,0.07124146819114685,0.0157302375882864
1783245703897562400,0.181562255859375,0.3195298910140991,0.06066525727510452,0.049880217760801315
1783245703907574300,0.19157421875,0.28414052724838257,0.08915302157402039,0.0457545630633831
1783245703917586400,0.20158642578125,0.22041720151901245,0.15417516231536865,0.017980191856622696
1783245703927598300,0.211598388671875,0.1588703989982605,0.23288185894489288,-0.013337631709873676
1783245703937610200,0.2216103515625,0.13165822625160217,0.26215478777885437,-0.039659515023231506
1783245703947622400,0.231622314453125,0.13154837489128113,0.2584839165210724,-0.06653723865747452
1783245703957634600,0.241634521484375,0.14961233735084534,0.26192498207092285,-0.10652033984661102
1783245703967646500,0.251646484375,0.16437777876853943,0.2680668532848358,-0.14853106439113617
1783245703977658400,0.261658447265625,0.17234356701374054,0.24991849064826965,-0.1729639619588852
1783245703987670500,0.27167041015625,0.1759846955537796,0.22309650480747223,-0.18481378257274628
1783245703997682400,0.281682373046875,0.17726381123065948,0.2116105556488037,-0.19577081501483917
1783245704007694600,0.291694580078125,0.18183793127536774,0.21747221052646637,-0.20648528635501862
1783245704017706500,0.30170654296875,0.19396942853927612,0.21956704556941986,-0.2071651965379715
1783245704027718400,0.311718505859375,0.21304789185523987,0.21654550731182098,-0.19446372985839844
1783245704037730600,0.32173046875,0.23687411844730377,0.23184296488761902,-0.17889463901519775
1783245704047742500,0.331742431640625,0.2661328911781311,0.2693382203578949,-0.15364639461040497
1783245704057754400,0.34175439453125,0.29294052720069885,0.30765098333358765,-0.112710140645504
1783245704067766500,0.3517666015625,0.3138400614261627,0.3307085931301117,-0.07575927674770355
1783245704077778400,0.3617783203125,0.3285399079322815,0.34296658635139465,-0.04660885035991669
1783245704087790600,0.37179052734375,0.33730924129486084,0.3651043176651001,-0.04881063476204872
1783245704097802500,0.381802490234375,0.3253473937511444,0.4021334648132324,-0.09220737963914871
1783245704107814400,0.391814453125,0.3043383061885834,0.4222439229488373,-0.1607941836118698
1783245704117826600,0.40182666015625,0.28339385986328125,0.4199048578739166,-0.23264598846435547
1783245704127838500,0.41183837890625,0.2761244773864746,0.41313326358795166,-0.29122194647789
1783245704137850400,0.421850341796875,0.2893475890159607,0.37638989090919495,-0.33512628078460693
1783245704147862500,0.431862548828125,0.3109704554080963,0.28774788975715637,-0.3548853099346161
1783245704157874400,0.44187451171875,0.3384409546852112,0.19445735216140747,-0.3520330786705017
1783245704167886600,0.451886474609375,0.3630497455596924,0.14391052722930908,-0.327217161655426
1783245704177898500,0.4618984375,0.3874392509460449,0.14443036913871765,-0.28795817494392395
1783245704187910400,0.471910400390625,0.41166478395462036,0.16097967326641083,-0.23680579662322998
1783245704197922600,0.481922607421875,0.44070708751678467,0.14678849279880524,-0.17251361906528473
1783245704207934500,0.4919345703125,0.4708547592163086,0.11665798723697662,-0.10941045731306076
1783245704217946400,0.5019462890625,0.48938262462615967,0.1060948297381401,-0.05804979428648949
1783245704227958500,0.51195849609375,0.49169763922691345,0.10572513937950134,-0.019146252423524857
1783245704237970400,0.521970458984375,0.4785943627357483,0.09862782061100006,-0.0016207892913371325
1783245704247983400,0.5319833984375,0.4558064639568329,0.09582094848155975,-0.004247197415679693
1783245704257995300,0.541995361328125,0.4354093074798584,0.1106070876121521,-0.02867104671895504
1783245704268007200,0.552007080078125,0.4181797206401825,0.13311730325222015,-0.06494563072919846
1783245704278019300,0.562019287109375,0.4063566327095032,0.1595529019832611,-0.09772461652755737
1783245704288031200,0.57203125,0.3956841826438904,0.16846837103366852,-0.11560486257076263
1783245704298043400,0.58204345703125,0.38977915048599243,0.1486472636461258,-0.10521373897790909
1783245704308055300,0.59205517578125,0.38925084471702576,0.1268603801727295,-0.07386194914579391
1783245704318067200,0.602067138671875,0.3924136161804199,0.11426734924316406,-0.038900766521692276
1783245704328079400,0.612079345703125,0.39860978722572327,0.11001303046941757,-0.008938567712903023
1783245704338091300,0.62209130859375,0.40656810998916626,0.10897599905729294,0.0021556285209953785
1783245704348103200,0.632103271484375,0.4167662560939789,0.10046930611133575,-0.006538746412843466
1783245704358115300,0.642115234375,0.43039605021476746,0.08337607234716415,-0.039092693477869034
1783245704368127200,0.652127197265625,0.44012996554374695,0.06780291348695755,-0.08449308574199677
1783245704378139400,0.662139404296875,0.4512856602668762,0.05996043235063553,-0.13055936992168427
1783245704388151300,0.6721513671875,0.4591783881187439,0.05742448568344116,-0.16155149042606354
1783245704398163200,0.6821630859375,0.45835521817207336,0.04098080098628998,-0.16172859072685242
1783245704408175400,0.69217529296875,0.45110848546028137,0.004236157983541489,-0.1333763599395752
1783245704418187300,0.702187255859375,0.4449576437473297,-0.034177277237176895,-0.09293254464864731
1783245704428199200,0.71219921875,0.44064977765083313,-0.05468842387199402,-0.06343638896942139
1783245704438211300,0.72221142578125,0.4369570314884186,-0.03364625573158264,-0.06678663939237595
1783245704448223200,0.73222314453125,0.43398866057395935,0.032125990837812424,-0.10845719277858734
1783245704458235400,0.7422353515625,0.4364449083805084,0.12321968376636505,-0.17635156214237213
1783245704468247300,0.752247314453125,0.44864383339881897,0.2138654738664627,-0.25432607531547546
1783245704478259200,0.76225927734375,0.46640312671661377,0.2819385528564453,-0.3241285979747772
1783245704488271400,0.772271240234375,0.482749879360199,0.2858583331108093,-0.3487043082714081
1783245704498283300,0.782283203125,0.48844051361083984,0.21799218654632568,-0.3044721186161041
1783245704508295400,0.79229541015625,0.4723224341869354,0.11509054899215698,-0.18649086356163025
1783245704518307300,0.802307373046875,0.43443310260772705,0.009063715115189552,-0.020017730072140694
1783245704528319200,0.8123193359375,0.38121163845062256,-0.11837977170944214,0.17343170940876007
1783245704538331400,0.822331298828125,0.33752140402793884,-0.24574729800224304,0.3485041856765747
1783245704548343300,0.83234326171875,0.3055824339389801,-0.3182092607021332,0.46945250034332275
1783245704558355500,0.84235546875,0.28464147448539734,-0.3322180211544037,0.5323135256767273
1783245704568367400,0.852367431640625,0.2599274814128876,-0.3233160972595215,0.5551194548606873
1783245704578379500,0.862379638671875,0.22945797443389893,-0.3033144176006317,0.5577719211578369
1783245704588391400,0.872391357421875,0.20138731598854065,-0.2598099708557129,0.5577713847160339
1783245704598403300,0.8824033203125,0.17827746272087097,-0.20005397498607635,0.5489246249198914
1783245704608415500,0.89241552734375,0.16332866251468658,-0.14498625695705414,0.5357138514518738
1783245704618427400,0.902427490234375,0.1459435522556305,-0.11223603785037994,0.5160485506057739
1783245704628439600,0.912439453125,0.12465078383684158,-0.0903283879160881,0.49043574929237366
1783245704638451500,0.922451416015625,0.10447201132774353,-0.058560606092214584,0.46448296308517456
1783245704648463400,0.93246337890625,0.07478560507297516,-0.02834984101355076,0.44906216859817505
1783245704658475500,0.9424755859375,0.052268318831920624,-0.007968668825924397,0.4391104578971863
1783245704668487400,0.9524873046875,0.03361056372523308,0.0195836890488863,0.4278251826763153
1783245704678499600,0.96249951171875,0.019744813442230225,0.057416290044784546,0.4060021638870239
1783245704688511500,0.972511474609375,0.012172698974609375,0.09960750490427017,0.37707069516181946
1783245704698523400,0.9825234375,0.016390880569815636,0.13148394227027893,0.3417598605155945
1783245704708535600,0.99253564453125,0.02940455451607704,0.16167134046554565,0.29983893036842346
1783245704718547500,1.00254736328125,0.050182268023490906,0.19369930028915405,0.2445831298828125
1783245704728559600,1.0125595703125,0.06599152088165283,0.22130203247070312,0.18560637533664703
1783245704738571500,1.022571533203125,0.0821707621216774,0.21800076961517334,0.13403213024139404
1783245704748583400,1.03258349609375,0.10270488262176514,0.1845705807209015,0.09151788055896759
1783245704758595600,1.042595703125,0.12435159087181091,0.14602984488010406,0.05720065161585808
1783245704768607500,1.052607421875,0.13446614146232605,0.12169172614812851,0.03508952260017395
1783245704778619400,1.062619384765625,0.1289781630039215,0.11356934905052185,0.028752531856298447
1783245704788631600,1.072631591796875,0.1095307320356369,0.09498952329158783,0.05002318322658539
1783245704798643500,1.0826435546875,0.09168915450572968,0.05060634762048721,0.0944678783416748
1783245704808655600,1.092655517578125,0.07838217169046402,0.0008907233132049441,0.14269033074378967
1783245704818667500,1.10266748046875,0.06284581869840622,-0.027914559468626976,0.18471474945545197
1783245704828679400,1.112679443359375,0.04696104675531387,-0.024363862350583076,0.2098170667886734
1783245704838691600,1.122691650390625,0.026203304529190063,0.011602661572396755,0.2195458561182022
1783245704848703500,1.132703369140625,0.00730521697551012,0.05483999103307724,0.21332497894763947
1783245704858715400,1.14271533203125,-0.00966337975114584,0.08204790949821472,0.1948825865983963
1783245704868727600,1.1527275390625,-0.019360393285751343,0.11408635973930359,0.1561446338891983
1783245704878739500,1.162739501953125,-0.035195283591747284,0.1653362363576889,0.10446491837501526
1783245704888751600,1.172751708984375,-0.0616995170712471,0.21066321432590485,0.053301382809877396
1783245704898763500,1.182763427734375,-0.09263452887535095,0.24456685781478882,0.017419280484318733
1783245704908775400,1.192775390625,-0.11650657653808594,0.26269569993019104,-0.00561206741258502
1783245704918787600,1.20278759765625,-0.1224326491355896,0.27771538496017456,-0.03233076632022858
1783245704928799500,1.212799560546875,-0.11750687658786774,0.2904462516307831,-0.06671596318483353
1783245704938811400,1.222811279296875,-0.12123796343803406,0.30109408497810364,-0.10146355628967285
1783245704948823600,1.232823486328125,-0.13135240972042084,0.29774680733680725,-0.13828440010547638
1783245704958835500,1.24283544921875,-0.1432785838842392,0.29068541526794434,-0.17677506804466248
1783245704968848100,1.25284814453125,-0.1577390879392624,0.29474881291389465,-0.21484088897705078
1783245704978860300,1.2628603515625,-0.1699395626783371,0.30522942543029785,-0.2400895208120346
1783245704988872200,1.2728720703125,-0.1818970888853073,0.30269479751586914,-0.2487567961215973
1783245704998884000,1.282884033203125,-0.18667666614055634,0.29075825214385986,-0.24961087107658386
1783245705008896300,1.292896240234375,-0.18213407695293427,0.2687687277793884,-0.24638865888118744
1783245705018908200,1.302908203125,-0.16989178955554962,0.22736161947250366,-0.23557142913341522
1783245705028920000,1.312920166015625,-0.15171198546886444,0.18008731305599213,-0.21576443314552307
1783245705038932200,1.32293212890625,-0.13456842303276062,0.13477681577205658,-0.18932536244392395
1783245705048944000,1.332944091796875,-0.11575537174940109,0.09088703244924545,-0.16157661378383636
1783245705058956000,1.3429560546875,-0.10219109058380127,0.05520093813538551,-0.13443021476268768
1783245705068968200,1.35296826171875,-0.10241664946079254,0.03529226779937744,-0.10792917013168335
1783245705078980000,1.36297998046875,-0.1115904375910759,0.022733861580491066,-0.08539776504039764
1783245705088992300,1.3729921875,-0.1285359412431717,0.02788086049258709,-0.05978625267744064
1783245705099004200,1.383004150390625,-0.15048570930957794,0.04900611937046051,-0.030692553147673607
1783245705109016000,1.39301611328125,-0.1824706345796585,0.0825476422905922,0.005867681931704283
1783245705119028200,1.4030283203125,-0.22659921646118164,0.14339713752269745,0.04072579741477966
1783245705129040100,1.4130400390625,-0.2783586084842682,0.23916101455688477,0.05821332335472107
1783245705139052000,1.423052001953125,-0.3344525098800659,0.34662091732025146,0.062215790152549744
1783245705149064200,1.433064208984375,-0.3911113142967224,0.43807509541511536,0.057320043444633484
1783245705159076000,1.443076171875,-0.43464842438697815,0.500694751739502,0.04771162569522858
1783245705169088300,1.453088134765625,-0.4630263149738312,0.5365126729011536,0.031462568789720535
1783245705179100200,1.46310009765625,-0.4822889566421509,0.5199779272079468,0.027261964976787567
1783245705189112000,1.473112060546875,-0.4969925880432129,0.46185436844825745,0.03741307184100151
1783245705199124200,1.483124267578125,-0.5032800436019897,0.37526780366897583,0.06454402953386307
1783245705209136000,1.49313623046875,-0.4920918345451355,0.26772984862327576,0.11031804233789444
1783245705219148000,1.50314794921875,-0.47520124912261963,0.12760762870311737,0.1709209382534027
1783245705229160200,1.51316015625,-0.4650166630744934,-0.027619708329439163,0.22512301802635193
1783245705239172000,1.523172119140625,-0.47460082173347473,-0.13318954408168793,0.250375896692276
1783245705249184300,1.533184326171875,-0.5004367828369141,-0.14639879763126373,0.21868903934955597
1783245705259196200,1.543196044921875,-0.5144181251525879,-0.06468582898378372,0.12876181304454803
1783245705269208300,1.553208251953125,-0.4973699748516083,0.06778621673583984,-0.010624881833791733
1783245705279220200,1.56322021484375,-0.4435824155807495,0.21762125194072723,-0.17917953431606293
1783245705289232100,1.573232177734375,-0.3600623905658722,0.374737411737442,-0.34787195920944214
1783245705299244300,1.583244384765625,-0.2576286792755127,0.5180021524429321,-0.48061853647232056
1783245705309256200,1.593256103515625,-0.15979227423667908,0.6127665042877197,-0.5521361827850342
1783245705319268400,1.603268310546875,-0.07189331203699112,0.619918167591095,-0.5501025915145874
1783245705329280300,1.6132802734375,0.00011736107990145683,0.5354832410812378,-0.47124096751213074
1783245705339292200,1.623292236328125,0.046269409358501434,0.35484635829925537,-0.32344645261764526
1783245705349304300,1.63330419921875,0.061789095401763916,0.09517870843410492,-0.11823660135269165
1783245705359316200,1.643316162109375,0.05240464583039284,-0.19401982426643372,0.10649877041578293
1783245705369328400,1.653328369140625,0.01434562262147665,-0.4431808292865753,0.3254382014274597
1783245705379340300,1.66334033203125,-0.052449386566877365,-0.6040506362915039,0.5057587027549744
1783245705389352400,1.6733525390625,-0.14335897564888,-0.666466236114502,0.6356692910194397
1783245705399364400,1.6833642578125,-0.260882169008255,-0.6666308641433716,0.7102638483047485
1783245705409376300,1.693376220703125,-0.39396169781684875,-0.6259357929229736,0.7332947850227356
1783245705419388400,1.703388427734375,-0.5313416719436646,-0.5493760704994202,0.7139319777488708
1783245705429400300,1.713400390625,-0.6676866412162781,-0.4383917450904846,0.6631897687911987
1783245705439412500,1.72341259765625,-0.7851336002349854,-0.29645565152168274,0.583806037902832
1783245705449424400,1.73342431640625,-0.8650801181793213,-0.11767668277025223,0.4759500324726105
1783245705459436300,1.743436279296875,-0.9005606174468994,0.06229361519217491,0.3551996350288391
1783245705469448400,1.753448486328125,-0.8943957090377808,0.19472378492355347,0.23294705152511597
1783245705479460400,1.76346044921875,-0.8461701273918152,0.2732827961444855,0.11958534270524979
1783245705489472300,1.77347216796875,-0.7614779472351074,0.2921997606754303,0.017401669174432755
1783245705499484400,1.783484375,-0.6409685611724854,0.2619273364543915,-0.0773959532380104
1783245705509496300,1.793496337890625,-0.49278855323791504,0.18054929375648499,-0.16400572657585144
1783245705519508500,1.803508544921875,-0.3251175284385681,0.02845696732401848,-0.24073512852191925
1783245705529520400,1.813520263671875,-0.1482526808977127,-0.17719340324401855,-0.2985907196998596
1783245705539532300,1.8235322265625,0.01631336845457554,-0.4019482135772705,-0.3421160578727722
1783245705549544400,1.83354443359375,0.14335522055625916,-0.6038308143615723,-0.3705174922943115
1783245705559556400,1.843556396484375,0.21789470314979553,-0.7651214599609375,-0.4029228389263153
1783245705569568300,1.853568359375,0.2373575121164322,-0.8743009567260742,-0.4378698766231537
1783245705579580400,1.863580322265625,0.20408344268798828,-0.9361374378204346,-0.47518154978752136
1783245705589592300,1.87359228515625,0.1391255110502243,-0.9563374519348145,-0.499872624874115
1783245705599604500,1.8836044921875,0.04722807556390762,-0.9328041672706604,-0.509592592716217
1783245705609616400,1.893616455078125,-0.06011733412742615,-0.8493074178695679,-0.5034130215644836
1783245705619628300,1.903628173828125,-0.1673780083656311,-0.7250866293907166,-0.48602601885795593
1783245705629640400,1.913640380859375,-0.2640106976032257,-0.5897884368896484,-0.4588634967803955
1783245705639652400,1.92365234375,-0.34277501702308655,-0.4588271975517273,-0.43234533071517944
1783245705649664300,1.933664306640625,-0.4043178856372833,-0.35275715589523315,-0.4081554412841797
1783245705659676400,1.943676513671875,-0.44583016633987427,-0.28789958357810974,-0.38760116696357727
1783245705669688300,1.953688232421875,-0.4628332555294037,-0.25555163621902466,-0.36838003993034363
1783245705679700500,1.963700439453125,-0.4600537121295929,-0.2507702112197876,-0.35477182269096375
1783245705689712400,1.97371240234375,-0.439368337392807,-0.2576879858970642,-0.35156306624412537
1783245705699724300,1.983724365234375,-0.4180033802986145,-0.2555800974369049,-0.3563929796218872
1783245705709736400,1.993736328125,-0.4113152325153351,-0.2578612267971039,-0.3717256188392639
1783245705719748400,2.003748291015625,-0.4151507318019867,-0.26085808873176575,-0.3942711651325226
1783245705729760300,2.01376025390625,-0.43577247858047485,-0.2416379302740097,-0.4313899874687195
1783245705739772400,2.0237724609375,-0.4642086327075958,-0.21363985538482666,-0.4676140546798706
1783245705749784300,2.033784423828125,-0.5017627477645874,-0.18525485694408417,-0.4818192422389984
1783245705759796500,2.04379638671875,-0.5360499024391174,-0.16018731892108917,-0.4548099935054779
1783245705769808400,2.053808349609375,-0.5625173449516296,-0.12447487562894821,-0.37711066007614136
1783245705779820300,2.0638203125,-0.5827618837356567,-0.08793365210294724,-0.24852603673934937
1783245705789832400,2.07383251953125,-0.598318338394165,-0.060938235372304916,-0.07939139008522034
1783245705799844400,2.08384423828125,-0.6160981059074402,-0.07375575602054596,0.10894523561000824
1783245705809856300,2.093856201171875,-0.6409220099449158,-0.11128448694944382,0.2893581688404083
1783245705819868400,2.103868408203125,-0.6748864054679871,-0.15349799394607544,0.43336379528045654
1783245705829880300,2.11388037109375,-0.7092231512069702,-0.1874241828918457,0.5177344679832458
1783245705839892200,2.123892333984375,-0.7421472668647766,-0.1967947781085968,0.5404046177864075
1783245705849904400,2.133904296875,-0.7760322093963623,-0.1836271733045578,0.5025421380996704
1783245705859916300,2.143916259765625,-0.8108596801757812,-0.1511366069316864,0.4257679879665375
1783245705869928400,2.153928466796875,-0.8433406949043274,-0.11584518849849701,0.3330724239349365
1783245705879940400,2.1639404296875,-0.865192711353302,-0.06573009490966797,0.25462502241134644
1783245705889952300,2.1739521484375,-0.8819001317024231,0.009641378186643124,0.1960783153772354
1783245705899964400,2.18396435546875,-0.8933373689651489,0.10841216146945953,0.17019344866275787
1783245705909976300,2.193976318359375,-0.9057877659797668,0.1971752941608429,0.17564471065998077
1783245705919988200,2.20398828125,-0.928705096244812,0.24548104405403137,0.2122964709997177
1783245705930000400,2.21400048828125,-0.9453782439231873,0.2630613446235657,0.27193453907966614
1783245705940012300,2.22401220703125,-0.9568021297454834,0.22178395092487335,0.3433173894882202
1783245705950024400,2.2340244140625,-0.9687532782554626,0.11328863352537155,0.4164826571941376
1783245705960035300,2.244035400390625,-0.9921675324440002,-0.08240842819213867,0.48830944299697876
1783245705970047500,2.254047607421875,-1.0188847780227661,-0.3869505822658539,0.5444165468215942
1783245705980059400,2.264059326171875,-1.0517939329147339,-0.7542494535446167,0.5713775753974915
1783245705990071300,2.2740712890625,-1.0859376192092896,-1.0465813875198364,0.5491494536399841
1783245706000083500,2.28408349609375,-1.112970232963562,-1.168398380279541,0.47426217794418335
1783245706010095400,2.294095458984375,-1.154650092124939,-1.0965285301208496,0.3395368456840515
1783245706020107500,2.304107421875,-1.23420250415802,-0.8807018399238586,0.15573400259017944
1783245706030119400,2.314119384765625,-1.3436617851257324,-0.6425141096115112,-0.038152631372213364
1783245706040131300,2.32413134765625,-1.4561665058135986,-0.49462053179740906,-0.17943279445171356
1783245706050143500,2.3341435546875,-1.5263025760650635,-0.4570639431476593,-0.21808840334415436
1783245706060155400,2.3441552734375,-1.5320749282836914,-0.5111676454544067,-0.1416357010602951
1783245706070167300,2.354167236328125,-1.496397852897644,-0.6115574240684509,0.029458003118634224
1783245706080179500,2.364179443359375,-1.4474694728851318,-0.7174148559570312,0.25126683712005615
1783245706090191400,2.37419140625,-1.41498601436615,-0.8187231421470642,0.46130964159965515
1783245706100203300,2.384203369140625,-1.404165267944336,-0.9296885132789612,0.6184065937995911
1783245706110215400,2.39421533203125,-1.406205654144287,-1.0476148128509521,0.7056364417076111
1783245706120227300,2.404227294921875,-1.4104396104812622,-1.1510728597640991,0.7397379875183105
1783245706130239500,2.414239501953125,-1.424627423286438,-1.2139455080032349,0.7398000955581665
1783245706140251400,2.42425146484375,-1.4604016542434692,-1.2334043979644775,0.7201534509658813
1783245706150263300,2.43426318359375,-1.5110100507736206,-1.2296112775802612,0.6922540664672852
1783245706160275500,2.444275390625,-1.5630711317062378,-1.2067233324050903,0.6451680660247803
1783245706170287400,2.454287353515625,-1.6197528839111328,-1.1486499309539795,0.5772441625595093
1783245706180299300,2.46429931640625,-1.6930944919586182,-1.0636391639709473,0.49811577796936035
1783245706190311400,2.4743115234375,-1.7840667963027954,-0.9692378640174866,0.425130158662796
1783245706200323300,2.4843232421875,-1.88092839717865,-0.8819684386253357,0.36466842889785767
1783245706210335500,2.49433544921875,-1.9630072116851807,-0.8151915073394775,0.3257134258747101
1783245706220347400,2.504347412109375,-2.013570785522461,-0.802611231803894,0.30724626779556274
1783245706230359300,2.514359375,-2.017430067062378,-0.8548961281776428,0.31021901965141296
1783245706240371500,2.524371337890625,-1.975968360900879,-0.9133407473564148,0.32626697421073914
1783245706250383400,2.53438330078125,-1.9053075313568115,-0.9279767274856567,0.33781856298446655
1783245706260395300,2.544395263671875,-1.810583472251892,-0.9184831380844116,0.35344573855400085
1783245706270407400,2.554407470703125,-1.6964343786239624,-0.900147557258606,0.3580174744129181
1783245706280419300,2.56441943359375,-1.578354835510254,-0.8670977354049683,0.33490070700645447
1783245706290431500,2.574431396484375,-1.4693392515182495,-0.8301425576210022,0.2851531505584717
1783245706300443400,2.584443359375,-1.3858933448791504,-0.811405599117279,0.2317730188369751
1783245706310455300,2.594455322265625,-1.3379710912704468,-0.7984080910682678,0.18798702955245972
1783245706320467500,2.604467529296875,-1.2995203733444214,-0.782764732837677,0.1682271808385849
1783245706330479400,2.614479248046875,-1.2476849555969238,-0.771407961845398,0.17778025567531586
1783245706340491300,2.6244912109375,-1.1721787452697754,-0.7686635255813599,0.218024343252182
1783245706350503400,2.63450341796875,-1.081667184829712,-0.7869267463684082,0.2902117669582367
1783245706360516400,2.644516357421875,-0.9900019764900208,-0.7948578596115112,0.3748326599597931
1783245706370528500,2.654528564453125,-0.9246029257774353,-0.7744870781898499,0.4634253680706024
1783245706380539400,2.664539306640625,-0.8948759436607361,-0.7277560830116272,0.533440113067627
1783245706390552300,2.67455224609375,-0.8911762237548828,-0.6519715189933777,0.5662403106689453
1783245706400564500,2.684564453125,-0.8987348079681396,-0.5728596448898315,0.5606029033660889
1783245706410576400,2.694576416015625,-0.8977455496788025,-0.5164746046066284,0.5188597440719604
1783245706420588500,2.704588623046875,-0.8801196813583374,-0.48946264386177063,0.4549800753593445
1783245706430600400,2.714600341796875,-0.8464601635932922,-0.4877857565879822,0.3756633400917053
1783245706440612400,2.7246123046875,-0.7887235879898071,-0.4715212881565094,0.28358587622642517
1783245706450624500,2.73462451171875,-0.707856297492981,-0.4467482566833496,0.17614662647247314
1783245706460636400,2.744636474609375,-0.6126911640167236,-0.4393822252750397,0.0634203553199768
1783245706470648300,2.7546484375,-0.5142619013786316,-0.44266417622566223,-0.0422075092792511
1783245706480660500,2.764660400390625,-0.4381923973560333,-0.4512885510921478,-0.11902053654193878
1783245706490672400,2.77467236328125,-0.38591766357421875,-0.4657718241214752,-0.1582798808813095
1783245706500684500,2.7846845703125,-0.3451622426509857,-0.46951544284820557,-0.16004130244255066
1783245706510696400,2.794696533203125,-0.3062235414981842,-0.46351322531700134,-0.1397721916437149
1783245706520708400,2.804708251953125,-0.27113986015319824,-0.425282746553421,-0.11786716431379318
1783245706530720500,2.814720458984375,-0.24440154433250427,-0.34476014971733093,-0.11493732035160065
1783245706540732400,2.824732421875,-0.228171706199646,-0.2575807571411133,-0.13048192858695984
1783245706550744300,2.834744384765625,-0.2343936413526535,-0.20673868060112,-0.15366782248020172
1783245706560756500,2.844756591796875,-0.2534483075141907,-0.18919138610363007,-0.1678811013698578
1783245706570768400,2.854768310546875,-0.27536138892173767,-0.17751096189022064,-0.16426998376846313
1783245706580780500,2.864780517578125,-0.2888103425502777,-0.18158453702926636,-0.1479266881942749
1783245706590792400,2.87479248046875,-0.29615262150764465,-0.21358048915863037,-0.12364119291305542
1783245706600804400,2.884804443359375,-0.3047455847263336,-0.27148371934890747,-0.10994108766317368
1783245706610816500,2.89481640625,-0.3201371729373932,-0.2894805073738098,-0.13051626086235046
1783245706620828400,2.904828369140625,-0.3325648009777069,-0.23291443288326263,-0.19953873753547668
1783245706630840300,2.91484033203125,-0.3444810211658478,-0.13264304399490356,-0.311797171831131
1783245706640852500,2.9248525390625,-0.3446349799633026,-0.03728748857975006,-0.45422250032424927
1783245706650864400,2.934864501953125,-0.32329505681991577,0.046331726014614105,-0.6040889024734497
1783245706660876300,2.944876220703125,-0.26647278666496277,0.09836775809526443,-0.7294803857803345
1783245706670888400,2.954888427734375,-0.14440269768238068,0.12008831650018692,-0.8187877535820007
1783245706680900400,2.964900390625,0.0274558886885643,0.1283571571111679,-0.8893445134162903
1783245706690912500,2.97491259765625,0.21013715863227844,0.18202564120292664,-0.946505606174469
1783245706700924400,2.98492431640625,0.36262547969818115,0.2706764042377472,-0.9746165871620178
1783245706710936300,2.994936279296875,0.47110915184020996,0.30207982659339905,-0.9357542991638184
1783245706720948500,3.004948486328125,0.5290806293487549,0.2504323422908783,-0.8034594058990479
1783245706730960400,3.01496044921875,0.5391910076141357,0.17214924097061157,-0.5877212285995483
1783245706740972300,3.02497216796875,0.5299096703529358,0.08008483052253723,-0.30418461561203003
1783245706750984400,3.034984375,0.5205934643745422,-0.009202818386256695,0.01184123381972313
1783245706760996400,3.044996337890625,0.4750550389289856,-0.07156579196453094,0.30600813031196594
1783245706771008500,3.055008544921875,0.43204426765441895,-0.1552494913339615,0.5193121433258057
1783245706781020400,3.0650205078125,0.39576536417007446,-0.2421702742576599,0.6349652409553528
1783245706791032300,3.0750322265625,0.3623306453227997,-0.31760045886039734,0.6610429286956787
1783245706801044500,3.08504443359375,0.32134780287742615,-0.3732762336730957,0.6232273578643799
1783245706811056400,3.095056396484375,0.2719648778438568,-0.42564091086387634,0.5480163097381592
1783245706821068300,3.105068359375,0.2153836339712143,-0.5066806674003601,0.4613295793533325
1783245706831080400,3.11508056640625,0.1672157347202301,-0.6225743889808655,0.379474401473999
1783245706841092400,3.12509228515625,0.13119754195213318,-0.7061033844947815,0.30375808477401733
1783245706851104500,3.1351044921875,0.11640795320272446,-0.7002924680709839,0.22679173946380615
1783245706861116400,3.145116455078125,0.11555201560258865,-0.5928893089294434,0.14484627544879913
1783245706871128300,3.15512841796875,0.13995768129825592,-0.39255934953689575,0.05424634367227554
1783245706881140500,3.165140380859375,0.18594995141029358,-0.11871179938316345,-0.031111164018511772
1783245706891152400,3.17515234375,0.2569142282009125,0.1915285885334015,-0.10519041121006012
1783245706901164300,3.185164306640625,0.3445594012737274,0.4689974784851074,-0.1487583965063095
1783245706911176400,3.195176513671875,0.42771944403648376,0.6525428891181946,-0.15346942842006683
1783245706921188400,3.205188232421875,0.5000972151756287,0.7225142121315002,-0.12181376665830612
1783245706931200500,3.215200439453125,0.555029571056366,0.6809867024421692,-0.06123174726963043
1783245706941212400,3.22521240234375,0.5833064913749695,0.5432677268981934,0.014526398852467537
1783245706951224300,3.235224365234375,0.5849481821060181,0.3477327227592468,0.08624663203954697
1783245706961237000,3.245237060546875,0.5586454272270203,0.1371283382177353,0.14271152019500732
1783245706971249200,3.255249267578125,0.4993942677974701,-0.04619740694761276,0.17375759780406952
1783245706981261000,3.265260986328125,0.41242048144340515,-0.1589849442243576,0.17156049609184265
1783245706991273200,3.275273193359375,0.3158903419971466,-0.18797406554222107,0.12784193456172943
1783245707001285000,3.28528515625,0.21072985231876373,-0.155009463429451,0.05853130668401718
1783245707011297000,3.295297119140625,0.10265584290027618,-0.08799660205841064,-0.007802444044500589
1783245707021309200,3.30530908203125,0.010150942020118237,-0.008550513535737991,-0.04570614919066429
1783245707031321000,3.315321044921875,-0.055308498442173004,0.10266432166099548,-0.05096009746193886
1783245707041333000,3.3253330078125,-0.08331722766160965,0.2310824692249298,-0.025491490960121155
1783245707051345200,3.33534521484375,-0.08160192519426346,0.32703444361686707,0.022155143320560455
1783245707061357000,3.345357177734375,-0.061731550842523575,0.36128029227256775,0.077545166015625
1783245707071369200,3.355369140625,-0.026760589331388474,0.34687963128089905,0.1247132271528244
1783245707081381000,3.365381103515625,0.02423841319978237,0.29349204897880554,0.1567947268486023
1783245707091393000,3.37539306640625,0.09651749581098557,0.21213281154632568,0.16439417004585266
1783245707101405200,3.3854052734375,0.17214222252368927,0.13203398883342743,0.14684021472930908
1783245707111417000,3.3954169921875,0.2423427700996399,0.04677817225456238,0.11943849921226501
1783245707121429000,3.405428955078125,0.30371055006980896,-0.07409178465604782,0.10009436309337616
1783245707131441200,3.415441162109375,0.3615361452102661,-0.20954567193984985,0.10410171747207642
1783245707141453000,3.425453125,0.40121111273765564,-0.3032974600791931,0.11629527062177658
1783245707151465000,3.43546484375,0.40784335136413574,-0.3432183265686035,0.12826527655124664
1783245707161477000,3.44547705078125,0.38114356994628906,-0.3176615536212921,0.11609329283237457
1783245707171489000,3.455489013671875,0.3234736919403076,-0.21883226931095123,0.06509552896022797
1783245707181501200,3.465501220703125,0.245358407497406,-0.08758290857076645,-0.024737155064940453
1783245707191513000,3.47551318359375,0.1614079773426056,0.027271585538983345,-0.12290676683187485
1783245707201525000,3.48552490234375,0.0824069008231163,0.08987105637788773,-0.17612284421920776
1783245707211537200,3.495537109375,0.02416478469967842,0.06485690921545029,-0.14024871587753296
1783245707221549000,3.505549072265625,-0.0021957168355584145,-0.07280082255601883,0.0008876435458660126
1783245707231561000,3.51556103515625,-0.0016398571897298098,-0.3040226697921753,0.22158579528331757
1783245707241573000,3.525572998046875,0.012066367082297802,-0.549206018447876,0.4588281512260437
1783245707251585000,3.5355849609375,0.029577039182186127,-0.6998245716094971,0.6525129675865173
1783245707261597200,3.54559716796875,0.04034419730305672,-0.7225253582000732,0.7658891081809998
1783245707271609000,3.555609130859375,0.03951878845691681,-0.6622675657272339,0.7950398325920105
1783245707281621000,3.56562109375,0.031540755182504654,-0.5529077649116516,0.7625479698181152
1783245707291633200,3.575633056640625,0.03442605957388878,-0.4171953499317169,0.6840776205062866
1783245707301645000,3.58564501953125,0.05971037596464157,-0.26007577776908875,0.5732472538948059
1783245707311657000,3.595656982421875,0.10625079274177551,-0.08330793678760529,0.42618224024772644
1783245707321669000,3.605669189453125,0.15639838576316833,0.08720201998949051,0.25396865606307983
1783245707331681000,3.615680908203125,0.19681546092033386,0.2070326805114746,0.08840975165367126
1783245707341693200,3.625693115234375,0.22125954926013947,0.2386918067932129,-0.03512469679117203
1783245707351705000,3.635705078125,0.23973782360553741,0.1713026612997055,-0.08384295552968979
1783245707361717000,3.645717041015625,0.24477225542068481,0.03292107954621315,-0.04487265273928642
1783245707371729200,3.655729248046875,0.23430581390857697,-0.13488933444023132,0.06539998948574066
1783245707381741000,3.665740966796875,0.22121983766555786,-0.3141200840473175,0.22838197648525238
1783245707391753000,3.6757529296875,0.22150863707065582,-0.469107985496521,0.3941263258457184
1783245707401765000,3.68576513671875,0.24604354798793793,-0.5383501648902893,0.5024037957191467
1783245707411777000,3.695777099609375,0.2694697082042694,-0.5014563798904419,0.5288999080657959
1783245707421789200,3.7057890625,0.27740007638931274,-0.38484349846839905,0.48110443353652954
1783245707431801000,3.715801025390625,0.26343369483947754,-0.24497009813785553,0.3950027823448181
1783245707441813000,3.72581298828125,0.23053058981895447,-0.12215069681406021,0.29910609126091003
1783245707451825200,3.7358251953125,0.1876976639032364,-0.04027826711535454,0.22446630895137787
1783245707461837000,3.745837158203125,0.15087467432022095,-0.013506043702363968,0.19592520594596863
1783245707471849000,3.755848876953125,0.12980857491493225,-0.04510483518242836,0.22248782217502594
1783245707481861000,3.765861083984375,0.12305133044719696,-0.09388142824172974,0.2935684025287628
1783245707491873000,3.775873046875,0.12547194957733154,-0.11549337208271027,0.38160741329193115
1783245707501885000,3.785885009765625,0.12367191910743713,-0.08051488548517227,0.4780426323413849
1783245707511897000,3.79589697265625,0.13065733015537262,-0.0014470439637079835,0.5554955005645752
1783245707521909000,3.805908935546875,0.15835127234458923,0.12646058201789856,0.5796250700950623
1783245707531921200,3.815921142578125,0.19413629174232483,0.28379762172698975,0.5547962188720703
1783245707541933000,3.82593310546875,0.2119152992963791,0.43404412269592285,0.5104143619537354
1783245707551945000,3.835945068359375,0.22282002866268158,0.5393577218055725,0.467998206615448
1783245707561957000,3.84595703125,0.2530232071876526,0.5605553984642029,0.4329698979854584
1783245707571969000,3.855968994140625,0.3057783842086792,0.5038588643074036,0.40792039036750793
1783245707581981000,3.86598095703125,0.3707387149333954,0.37853240966796875,0.3727184534072876
1783245707591993000,3.8759931640625,0.4193180799484253,0.23988953232765198,0.30761298537254333
1783245707602005000,3.8860048828125,0.44476059079170227,0.17101752758026123,0.18816490471363068
1783245707612017200,3.89601708984375,0.43909770250320435,0.1996220499277115,-0.0009430467616766691
1783245707622029000,3.906029052734375,0.41563844680786133,0.2836439907550812,-0.21237699687480927
1783245707632041000,3.916041015625,0.37824004888534546,0.34785738587379456,-0.3753860592842102
1783245707642053000,3.92605322265625,0.33228054642677307,0.373229056596756,-0.43592530488967896
1783245707652065000,3.93606494140625,0.2871371805667877,0.38331368565559387,-0.3841252326965332
1783245707662077000,3.946076904296875,0.2509586811065674,0.3952728807926178,-0.24177424609661102
1783245707672089000,3.956089111328125,0.22149185836315155,0.4039985239505768,-0.041469499468803406
1783245707682101000,3.96610107421875,0.1864936500787735,0.4408630430698395,0.17091387510299683
1783245707692113200,3.976113037109375,0.13834135234355927,0.47619304060935974,0.35538849234580994
1783245707702125000,3.986125,0.09145214408636093,0.4830898344516754,0.4825001060962677
1783245707712137000,3.996136962890625,0.04552431404590607,0.4967767894268036,0.531412661075592
1783245707722149000,4.006149169921875,-0.006480563431978226,0.5232387781143188,0.5134696364402771
1783245707732161000,4.0161611328125,-0.060617465525865555,0.5215452909469604,0.4606803357601166
1783245707742173000,4.0261728515625,-0.1015944629907608,0.4751306474208832,0.40082234144210815
1783245707752185000,4.03618505859375,-0.12754563987255096,0.38382837176322937,0.3413996994495392
1783245707762197000,4.046197021484375,-0.1455845683813095,0.26007527112960815,0.2963371276855469
1783245707772209200,4.056209228515625,-0.16122545301914215,0.1308789998292923,0.26131775975227356
1783245707782221000,4.066220947265625,-0.18441759049892426,0.05137697979807854,0.21375714242458344
1783245707792233000,4.07623291015625,-0.21993465721607208,0.037664055824279785,0.14511212706565857
1783245707802245000,4.0862451171875,-0.262921005487442,0.05743642896413803,0.057221949100494385
1783245707812257000,4.096257080078125,-0.31734776496887207,0.08339755982160568,-0.02936427854001522
1783245707822269000,4.10626904296875,-0.3864448070526123,0.10090438276529312,-0.10899705439805984
1783245707832281000,4.116281005859375,-0.4656645953655243,0.11636974662542343,-0.15800584852695465
1783245707842293000,4.12629296875,-0.543795108795166,0.13652001321315765,-0.16926436126232147
1783245707852305200,4.13630517578125,-0.6092966198921204,0.0992438793182373,-0.12730145454406738
1783245707862317000,4.146317138671875,-0.6559738516807556,-0.036982398480176926,-0.04406861960887909
1783245707872329000,4.156328857421875,-0.6721450686454773,-0.23281189799308777,0.02225087396800518
1783245707882341000,4.166341064453125,-0.660808265209198,-0.417426735162735,0.020767759531736374
1783245707892353000,4.17635302734375,-0.6427847743034363,-0.5941731929779053,-0.05652555450797081
1783245707902365000,4.186364990234375,-0.6307384967803955,-0.7860901951789856,-0.1976030468940735
1783245707912377000,4.196377197265625,-0.6211099028587341,-0.975797712802887,-0.38959771394729614
1783245707922389000,4.206388916015625,-0.6013897061347961,-1.0929276943206787,-0.615318775177002
1783245707932401000,4.21640087890625,-0.5591649413108826,-1.0773274898529053,-0.8584084510803223
1783245707942413000,4.2264130859375,-0.4902673363685608,-0.9086524844169617,-1.0854442119598389
1783245707952425200,4.23642529296875,-0.4198296070098877,-0.611757755279541,-1.253505825996399
1783245707962437000,4.24643701171875,-0.34800922870635986,-0.2432665377855301,-1.3203959465026855
1783245707972449000,4.256448974609375,-0.2575056552886963,0.1423308551311493,-1.2651950120925903
1783245707982461200,4.266461181640625,-0.13592088222503662,0.47185227274894714,-1.1012073755264282
1783245707992473000,4.27647314453125,0.0026074168272316456,0.6422901153564453,-0.8559159636497498
1783245708002485000,4.286485107421875,0.13165195286273956,0.6184897422790527,-0.5815134048461914
1783245708012497200,4.2964970703125,0.2155674248933792,0.4285348653793335,-0.32489314675331116
1783245708022509000,4.306509033203125,0.23779897391796112,0.1452360451221466,-0.13458579778671265
1783245708032521200,4.316521240234375,0.18438710272312164,-0.15178382396697998,-0.04153941199183464
1783245708042533000,4.326533203125,0.09078338742256165,-0.4095122814178467,-0.04492375627160072
1783245708052545000,4.336544921875,0.015807755291461945,-0.6301186084747314,-0.12693928182125092
1783245708062557200,4.34655712890625,-0.011026788502931595,-0.8033332228660583,-0.24676156044006348
1783245708072569000,4.356569091796875,0.023895425722002983,-0.8543367385864258,-0.3694337010383606
1783245708082581000,4.3665810546875,0.11166495829820633,-0.7966891527175903,-0.45946159958839417
1783245708092593200,4.37659326171875,0.2200576364994049,-0.6670886874198914,-0.4892176389694214
1783245708102605000,4.38660498046875,0.3198705017566681,-0.46889224648475647,-0.46861568093299866
1783245708112617200,4.3966171875,0.38753536343574524,-0.21195435523986816,-0.40878424048423767
1783245708122629000,4.406629150390625,0.41767117381095886,0.035287655889987946,-0.33091557025909424
1783245708132641000,4.41664111328125,0.40725356340408325,0.21905624866485596,-0.2548089623451233
1783245708142653200,4.426653076171875,0.37526369094848633,0.34668102860450745,-0.19869962334632874
1783245708152665000,4.4366650390625,0.34540855884552,0.40558570623397827,-0.16027188301086426
1783245708162677000,4.446677001953125,0.31230175495147705,0.42251354455947876,-0.12423530966043472
1783245708172689200,4.456689208984375,0.2655697464942932,0.4015510082244873,-0.06667935103178024
1783245708182701000,4.466701171875,0.19814728200435638,0.3507842421531677,0.0307148490101099
1783245708192713000,4.476712890625,0.10960885882377625,0.2764303386211395,0.17450636625289917
1783245708202725000,4.48672509765625,0.015507129952311516,0.12828269600868225,0.35536110401153564
1783245708212737000,4.496737060546875,-0.04923871532082558,-0.10532491654157639,0.5460635423660278
1783245708222749200,4.506749267578125,-0.07860245555639267,-0.34844914078712463,0.6974554657936096
1783245708232761000,4.516760986328125,-0.10687197744846344,-0.5323992371559143,0.7690110206604004
1783245708242773000,4.52677294921875,-0.14548595249652863,-0.6142786741256714,0.756339430809021
1783245708252785200,4.53678515625,-0.19862674176692963,-0.588540256023407,0.6589084267616272
1783245708262797000,4.546797119140625,-0.25757262110710144,-0.4766530990600586,0.5006535053253174
1783245708272809000,4.55680908203125,-0.309329628944397,-0.2968757450580597,0.3099653720855713
1783245708282821000,4.566821044921875,-0.3117251396179199,-0.07902119308710098,0.11973389238119125
1783245708292833000,4.5768330078125,-0.25835272669792175,0.1685531735420227,-0.0058088479563593864
1783245708302845200,4.58684521484375,-0.15723951160907745,0.4269108772277832,-0.04302151873707771
1783245708312857000,4.596857177734375,-0.03952425718307495,0.664820671081543,-0.000017599202692508698
1783245708322869000,4.606868896484375,0.09338133037090302,0.7347701787948608,0.09505618363618851
1783245708332881200,4.616881103515625,0.21548685431480408,0.650719404220581,0.2031201720237732
1783245708342893000,4.62689306640625,0.3153354227542877,0.48829910159111023,0.2715069353580475
1783245708352905000,4.636905029296875,0.37108397483825684,0.30788567662239075,0.24564512073993683
1783245708362917000,4.646917236328125,0.39538106322288513,0.13340337574481964,0.08890397846698761
1783245708372929000,4.656928955078125,0.4189887046813965,-0.0027398462407290936,-0.18610651791095734
1783245708382941200,4.666941162109375,0.449584424495697,-0.05260806903243065,-0.5014641880989075
1783245708392953000,4.676953125,0.47852209210395813,-0.053604088723659515,-0.7623927593231201
1783245708402965000,4.686965087890625,0.5030210614204407,-0.07083900272846222,-0.9157588481903076
1783245708412977200,4.69697705078125,0.5136479139328003,-0.059094853699207306,-0.9376575350761414
1783245708422989000,4.706989013671875,0.4886642396450043,-0.04349405691027641,-0.8421802520751953
1783245708433001000,4.7170009765625,0.42536547780036926,-0.04309527948498726,-0.6672568321228027
1783245708443013000,4.72701318359375,0.33289414644241333,-0.009446504525840282,-0.4666425287723541
1783245708453025000,4.73702490234375,0.23964306712150574,0.0942578986287117,-0.2716261148452759
1783245708463037200,4.747037109375,0.14687184989452362,0.2045135498046875,-0.09216153621673584
1783245708473049000,4.757049072265625,0.05935761705040932,0.34957626461982727,0.01818295568227768
1783245708483061000,4.76706103515625,-0.01949591562151909,0.5019665956497192,-0.0030147398356348276
1783245708493073200,4.7770732421875,-0.08170457184314728,0.5756656527519226,-0.17759309709072113
1783245708503085000,4.7870849609375,-0.21794043481349945,0.835054337978363,-0.4621228575706482
1783245708513097000,4.797096923828125,-0.4237859547138214,1.1347635984420776,-0.7472147345542908
1783245708523109000,4.807109130859375,-0.5868294835090637,1.1728185415267944,-0.9228347539901733
1783245708533121000,4.81712109375,-0.6226686239242554,1.1396396160125732,-0.9975067973136902
1783245708543133000,4.8271328125,-0.5577399730682373,1.2249785661697388,-1.005802035331726
1783245708553145000,4.83714501953125,-0.4417312741279602,1.3401602506637573,-0.9692789316177368
1783245708563157000,4.847156982421875,-0.32441556453704834,1.305951476097107,-0.9003270268440247
1783245708573169200,4.857169189453125,-0.2422986924648285,1.1819736957550049,-0.8340023756027222
1783245708583181000,4.86718115234375,-0.189606711268425,1.0589097738265991,-0.8157716989517212
1783245708593193000,4.87719287109375,-0.13215219974517822,0.9413766264915466,-0.8570945262908936
1783245708603205000,4.887205078125,-0.044863373041152954,0.8177766799926758,-0.9578536152839661
1783245708613217000,4.897217041015625,0.0828237384557724,0.7280579805374146,-1.115497350692749
1783245708623229000,4.90722900390625,0.25520801544189453,0.8045610189437866,-1.2976160049438477
1783245708633241000,4.917240966796875,0.4695484936237335,0.9338812232017517,-1.423209547996521
1783245708643253000,4.9272529296875,0.617942214012146,0.8694964051246643,-1.4348042011260986
1783245708653265200,4.93726513671875,0.6771953701972961,0.6894954442977905,-1.3583120107650757
1783245708663277000,4.947277099609375,0.7112305760383606,-1.4756412506103516,-0.45291396975517273
1783245708673289000,4.9572890625,0.7673941254615784,-2.1403419971466064,1.2402960062026978
1783245708683301000,4.967301025390625,0.6445749998092651,-0.4797804057598114,1.3035296201705933
1783245708693313000,4.97731298828125,0.8352572917938232,-0.37535715103149414,0.7649955153465271
1783245708703325000,4.987324951171875,0.9365043044090271,-0.4574781358242035,0.16551344096660614
1783245708713337000,4.997337158203125,0.8403705954551697,-0.19839826226234436,-0.43651270866394043
1783245708723349000,5.007348876953125,0.6450865864753723,0.39422112703323364,-0.8947127461433411
1783245708733361200,5.017361083984375,0.4723752439022064,0.8608851432800293,-1.21604323387146
1783245708743373000,5.027373046875,0.2940225303173065,1.195716381072998,-1.4886188507080078
1783245708753385000,5.037385009765625,0.25506237149238586,1.6410510540008545,-1.6431804895401
1783245708763397000,5.047397216796875,0.1509769856929779,1.5359426736831665,-1.8206144571304321
1783245708773409000,5.057408935546875,-0.3379761576652527,0.9863151907920837,-2.283620595932007
1783245708783421000,5.0674208984375,-0.6186381578445435,0.7066358327865601,-2.9207093715667725
1783245708793433000,5.07743310546875,-0.33686918020248413,1.0918407440185547,-3.025277853012085
1783245708803445000,5.087445068359375,-0.15332119166851044,1.3302549123764038,-2.6618752479553223
1783245708813457200,5.09745703125,-0.7120950818061829,1.3475539684295654,-1.9927819967269897
1783245708823469000,5.107468994140625,-1.2780450582504272,1.528250813484192,-1.6124567985534668
1783245708833481000,5.11748095703125,-1.5184109210968018,1.885113000869751,-1.4957375526428223
1783245708843493000,5.1274931640625,-1.5097695589065552,2.0528717041015625,-1.3242552280426025
1783245708853505000,5.137505126953125,-1.4229141473770142,1.6153590679168701,-1.0468806028366089
1783245708863517000,5.147516845703125,-1.4144319295883179,0.9605854153633118,-0.6834967732429504
1783245708873529000,5.157529052734375,-1.323064923286438,0.4277729392051697,-0.31131184101104736
1783245708883541000,5.167541015625,-1.0500102043151855,-0.07168242335319519,-0.12383754551410675
1783245708893553200,5.17755322265625,-0.6468662619590759,-0.44183847308158875,-0.11649371683597565
1783245708903565000,5.18756494140625,-0.20273518562316895,-0.5779792666435242,-0.17070342600345612
1783245708913577000,5.197576904296875,0.13462717831134796,-0.653747022151947,-0.21921901404857635
1783245708923589000,5.207589111328125,0.3356497585773468,-0.7153446078300476,-0.23988674581050873
1783245708933601000,5.21760107421875,0.5708827972412109,-0.013925634324550629,-0.4476337730884552
1783245708943613000,5.227613037109375,0.7091429233551025,0.007636649999767542,-0.545198380947113
1783245708953625000,5.237625,0.9099174737930298,0.16035541892051697,-0.5125631093978882
1783245708963637000,5.247636962890625,1.1020174026489258,0.13394218683242798,-0.45156070590019226
1783245708973649200,5.257649169921875,1.31965970993042,-0.005569311324506998,-0.38620978593826294
1783245708983661000,5.2676611328125,1.5069081783294678,-0.31431302428245544,-0.366405189037323
1783245708993673000,5.2776728515625,1.6155740022659302,-0.6778223514556885,-0.3832699656486511
1783245709003685000,5.28768505859375,1.6450085639953613,-1.0130598545074463,-0.3436722159385681
1783245709013697000,5.297697021484375,1.595565676689148,-1.330554723739624,-0.25224754214286804
1783245709023709200,5.307709228515625,1.4984036684036255,-1.4695712327957153,-0.21679794788360596
1783245709033721000,5.31772119140625,1.403192400932312,-1.4068840742111206,-0.16449394822120667
1783245709043733000,5.32773291015625,1.3213809728622437,-1.2552287578582764,-0.1049904152750969
1783245709053745200,5.3377451171875,1.2621079683303833,-1.0661592483520508,-0.11101140826940536
1783245709063757000,5.347757080078125,1.249961256980896,-0.8630498051643372,-0.1957521289587021
1783245709073769200,5.357769287109375,1.283490538597107,-0.6648451685905457,-0.32173532247543335
1783245709083781000,5.367781005859375,1.3441588878631592,-0.5329592823982239,-0.4497353732585907
1783245709093793000,5.37779296875,1.4069576263427734,-0.4729034900665283,-0.5537276864051819
1783245709103805200,5.38780517578125,1.4603971242904663,-0.41245824098587036,-0.5862172245979309
1783245709113817000,5.397817138671875,1.524652123451233,-0.35973459482192993,-0.5399646162986755
1783245709123829200,5.407829345703125,1.5934288501739502,-0.3474518358707428,-0.4524763524532318
1783245709133841200,5.417841064453125,1.6467220783233643,-0.34559041261672974,-0.3522685468196869
1783245709143853000,5.42785302734375,1.6520841121673584,-0.3163164258003235,-0.2514772117137909
1783245709153865200,5.437865234375,1.591829538345337,-0.2702581286430359,-0.16310656070709229
1783245709163877000,5.447877197265625,1.4681981801986694,-0.22321712970733643,-0.13009695708751678
1783245709173889000,5.457888916015625,1.3185114860534668,-0.19588318467140198,-0.1565702259540558
1783245709183901200,5.467901123046875,1.1972332000732422,-0.15191705524921417,-0.20470499992370605
1783245709193913000,5.4779130859375,1.1368707418441772,-0.04859980195760727,-0.23948918282985687
1783245709203925200,5.48792529296875,1.1244760751724243,0.07156149297952652,-0.2626488208770752
1783245709213937200,5.497937255859375,1.13656485080719,0.17676053941249847,-0.28328096866607666
1783245709223949000,5.507948974609375,1.1440019607543945,0.21808241307735443,-0.32382333278656006
1783245709233961200,5.517961181640625,1.127300500869751,0.24233928322792053,-0.38104456663131714
1783245709243973000,5.52797314453125,1.088463544845581,0.23808221518993378,-0.44152361154556274
1783245709253985000,5.537985107421875,1.0277010202407837,0.17508655786514282,-0.46580299735069275
1783245709263997200,5.5479970703125,0.9621760845184326,0.10216573625802994,-0.4626564681529999
1783245709274009000,5.558009033203125,0.9081628322601318,0.06860986351966858,-0.4549010396003723
1783245709284021000,5.56802099609375,0.8655224442481995,0.06479168683290482,-0.4381851553916931
1783245709294033200,5.578033203125,0.8303642272949219,0.03453076630830765,-0.38706451654434204
1783245709304045000,5.588045166015625,0.8240951895713806,-0.007017741911113262,-0.3175123333930969
1783245709314057200,5.59805712890625,0.8452088832855225,-0.0241074301302433,-0.25182032585144043
1783245709324069000,5.608069091796875,0.8696641325950623,-0.03693534806370735,-0.20107324421405792
1783245709334081000,5.6180810546875,0.8872360587120056,-0.026666216552257538,-0.15695208311080933
1783245709344093200,5.62809326171875,0.8792101144790649,0.009549843147397041,-0.10474667698144913
1783245709354105000,5.63810498046875,0.8619348406791687,0.04886088892817497,-0.07845938205718994
1783245709364117000,5.648116943359375,0.8907198905944824,0.04253028705716133,-0.08848192542791367
1783245709374129200,5.658129150390625,0.9605396389961243,-0.021499643102288246,-0.09970326721668243
1783245709384141000,5.66814111328125,1.0228339433670044,-0.10495032370090485,-0.08460313826799393
1783245709394153200,5.6781533203125,1.049376368522644,-0.14932569861412048,-0.05391249433159828
1783245709404165000,5.6881650390625,1.0534765720367432,-0.17862632870674133,-0.02177666500210762
1783245709414177000,5.698177001953125,1.0631972551345825,-0.23707477748394012,0.03205765411257744
1783245709424189200,5.708189208984375,1.1193907260894775,-0.33738887310028076,0.10858012735843658
1783245709434201000,5.718201171875,1.1695278882980347,-0.43413016200065613,0.2023329734802246
1783245709444213000,5.728212890625,1.1845707893371582,-0.5000559687614441,0.28770700097084045
1783245709454225200,5.73822509765625,1.1462842226028442,-0.5236095190048218,0.35373327136039734
1783245709464237000,5.748237060546875,1.053810954093933,-0.5137771368026733,0.3875895142555237
1783245709474249200,5.758249267578125,0.949325442314148,-0.499685674905777,0.37541794776916504
1783245709484261000,5.76826123046875,0.8557760715484619,-0.45418766140937805,0.3251529037952423
1783245709494273000,5.77827294921875,0.784688413143158,-0.3898751139640808,0.2546592950820923
1783245709504285200,5.78828515625,0.7366316914558411,-0.2828565239906311,0.18294116854667664
1783245709514297000,5.798297119140625,0.7200924158096313,-0.19589461386203766,0.12329918891191483
1783245709524309000,5.80830908203125,0.7355605959892273,-0.17391155660152435,0.08800564706325531
1783245709534321200,5.818321044921875,0.7657088041305542,-0.19942201673984528,0.08150335401296616
1783245709544333000,5.8283330078125,0.7709888219833374,-0.24238039553165436,0.10376232117414474
1783245709554345200,5.83834521484375,0.7343694567680359,-0.2945433259010315,0.14494463801383972
1783245709564357000,5.848357177734375,0.6590299606323242,-0.35744160413742065,0.19811704754829407
1783245709574369000,5.858369140625,0.5618912577629089,-0.4064965844154358,0.2556721568107605
1783245709584381200,5.868381103515625,0.4613074064254761,-0.4132940471172333,0.30083751678466797
1783245709594393000,5.87839306640625,0.36946597695350647,-0.3541005551815033,0.3084883391857147
1783245709604405000,5.888405029296875,0.3038075864315033,-0.2630806267261505,0.2593594193458557
1783245709614417200,5.898417236328125,0.26132217049598694,-0.17285092175006866,0.1556597352027893
1783245709624429000,5.908428955078125,0.2364886999130249,-0.09928721934556961,0.018761804327368736
1783245709634441000,5.91844091796875,0.25306159257888794,-0.026588408276438713,-0.12202854454517365
1783245709644453000,5.928453125,0.28585711121559143,0.023583680391311646,-0.23739907145500183
1783245709654465000,5.938465087890625,0.314558744430542,0.008697775192558765,-0.30930382013320923
1783245709664477200,5.948477294921875,0.33676019310951233,-0.0543522983789444,-0.3102838695049286
1783245709674489000,5.958489013671875,0.35107043385505676,-0.13531218469142914,-0.2524327039718628
1783245709684501000,5.9685009765625,0.35967618227005005,-0.172496035695076,-0.1729956567287445
1783245709694513200,5.97851318359375,0.3532198369503021,-0.1855517327785492,-0.11093825846910477
1783245709704525000,5.988525146484375,0.34520211815834045,-0.22404426336288452,-0.08056250959634781
1783245709714537000,5.998536865234375,0.3367416262626648,-0.27083146572113037,-0.06496920436620712
1783245709724549000,6.008549072265625,0.3271406888961792,-0.2946246862411499,-0.051279760897159576
1783245709734561000,6.01856103515625,0.3226376473903656,-0.2833600640296936,-0.02702285163104534
1783245709744572000,6.028572021484375,0.3171904385089874,-0.26670971512794495,-0.013681212440133095
1783245709754585000,6.038585205078125,0.32691898941993713,-0.29160961508750916,-0.038812872022390366
1783245709764597000,6.048596923828125,0.36057496070861816,-0.32837560772895813,-0.10500174760818481
1783245709774609200,6.058609130859375,0.38308021426200867,-0.35091349482536316,-0.18092972040176392
1783245709784621000,6.06862109375,0.5222269296646118,-0.16726374626159668,-0.16171953082084656
1783245709794633000,6.078633056640625,0.5908070802688599,-0.16671232879161835,-0.11116637289524078
1783245709804645000,6.08864501953125,0.5515960454940796,-0.2971976399421692,-0.08168970048427582
1783245709814657000,6.098656982421875,0.5223756432533264,-0.33905819058418274,-0.05039026588201523
1783245709824669200,6.108669189453125,0.5140032172203064,-0.3124995529651642,-0.012479100376367569
1783245709834680000,6.11868017578125,0.4914059042930603,-0.32012835144996643,0.02614855393767357
1783245709844693000,6.12869287109375,0.47728583216667175,-0.3463972210884094,0.05954752489924431
1783245709854705200,6.138705078125,0.46067988872528076,-0.32378697395324707,0.12357120215892792
1783245709864716000,6.148716064453125,0.44433286786079407,-0.2704337537288666,0.18276847898960114
1783245709874729000,6.15872900390625,0.4508119225502014,-0.17933467030525208,0.21469812095165253
1783245709884740000,6.168739990234375,0.4969533085823059,-0.13267049193382263,0.22713375091552734
1783245709894753000,6.1787529296875,0.5066660642623901,-0.15306872129440308,0.2064332515001297
1783245709904765200,6.18876513671875,0.48566359281539917,-0.18892845511436462,0.18689683079719543
1783245709914777000,6.198777099609375,0.43337327241897583,-0.22936633229255676,0.19903531670570374
1783245709924789000,6.2087890625,0.35578420758247375,-0.2610238492488861,0.2850101590156555
1783245709934800000,6.2187998046875,0.28037235140800476,-0.30141913890838623,0.43978971242904663
1783245709944813000,6.22881298828125,0.22463397681713104,-0.3740989565849304,0.6091753244400024
1783245709954824400,6.238824462890625,0.20822285115718842,-0.4921117126941681,0.7524722218513489
1783245709964837600,6.248837646484375,0.20800873637199402,-0.6195693016052246,0.8691506385803223
1783245709974848500,6.2588486328125,0.16594162583351135,-0.7523590326309204,0.968104898929596
1783245709984860400,6.2688603515625,0.11277934908866882,-0.8726974129676819,1.056267499923706
1783245709994873600,6.27887353515625,0.06706267595291138,-0.9129929542541504,1.1714688539505005
1783245710004884500,6.288884521484375,0.03816072270274162,-0.8647615313529968,1.3109673261642456
1783245710014896600,6.298896728515625,0.0460469014942646,-0.7736804485321045,1.4121509790420532
1783245710024908500,6.308908447265625,0.09289057552814484,-0.6447879672050476,1.4465200901031494
1783245710034920400,6.31892041015625,0.18497386574745178,-0.49424082040786743,1.4129562377929688
1783245710044933600,6.32893359375,0.3056374192237854,-0.35152122378349304,1.3058865070343018
1783245710054944500,6.338944580078125,0.41405752301216125,-0.20272177457809448,1.1405556201934814
1783245710064957700,6.348957763671875,0.5364491939544678,0.011239517480134964,0.9408017992973328
1783245710074968600,6.358968505859375,0.6680256128311157,0.24945710599422455,0.7471855282783508
1783245710084980500,6.36898046875,0.7992193102836609,0.4418758153915405,0.5767695903778076
1783245710094992400,6.378992431640625,0.8943594098091125,0.6304568648338318,0.5252581238746643
1783245710105004500,6.389004638671875,0.9575732350349426,0.6819162964820862,0.5358609557151794
1783245710115016400,6.399016357421875,0.9903562068939209,0.5670515894889832,0.5165061950683594
1783245710125028600,6.409028564453125,1.0050674676895142,0.4768274426460266,0.4858177900314331
1783245710135040500,6.41904052734375,0.9846823811531067,0.4211384952068329,0.4279178977012634
1783245710145052400,6.429052490234375,0.9373454451560974,0.34033554792404175,0.32721632719039917
1783245710155064600,6.439064697265625,0.8876816630363464,0.2510412633419037,0.1858132928609848
1783245710165076500,6.449076416015625,0.8487755656242371,0.1745038777589798,0.01949089765548706
1783245710175088400,6.45908837890625,0.8269344568252563,0.15574510395526886,-0.1412082463502884
1783245710185101600,6.4691015625,0.8006663918495178,0.2430477887392044,-0.2551342844963074
1783245710195112400,6.479112548828125,0.7371907234191895,0.36293482780456543,-0.3421795070171356
1783245710205124600,6.48912451171875,0.7099969387054443,0.4606691002845764,-0.44324326515197754
1783245710215136500,6.499136474609375,0.7064855694770813,0.5828593373298645,-0.5166753530502319
1783245710225148400,6.5091484375,0.6799026727676392,0.7426289916038513,-0.5037883520126343
1783245710235160600,6.51916064453125,0.6382191777229309,0.8824494481086731,-0.40708938241004944
1783245710245172500,6.52917236328125,0.6111401319503784,0.9667659401893616,-0.2764245867729187
1783245710255184400,6.539184326171875,0.5973827242851257,0.9492052793502808,-0.14163415133953094
1783245710265196500,6.549196533203125,0.6089456677436829,0.8663391470909119,-0.03852640837430954
1783245710275208400,6.55920849609375,0.6573832631111145,0.7908915281295776,0.029489079490303993
1783245710285220600,6.569220703125,0.7369755506515503,0.7403373122215271,0.06178203597664833
1783245710295232500,6.579232421875,0.8333765864372253,0.7093005180358887,0.0748395174741745
1783245710305244400,6.589244384765625,0.9259070754051208,0.6250264048576355,0.07490609586238861
1783245710315256600,6.599256591796875,0.9866695404052734,0.5082541108131409,0.07836472988128662
1783245710325268500,6.6092685546875,1.024135947227478,0.43195587396621704,0.10371749103069305
1783245710335280400,6.6192802734375,1.0547995567321777,0.3165588974952698,0.1522609442472458
1783245710345292500,6.62929248046875,1.0426576137542725,0.6002407073974609,0.34246763586997986
1783245710355304400,6.639304443359375,1.0410692691802979,0.7487237453460693,0.4933798611164093
1783245710365316600,6.649316650390625,1.0936517715454102,0.5043518543243408,0.46536341309547424
1783245710375328500,6.65932861328125,1.0765719413757324,0.587626576423645,0.4553234577178955
1783245710385340400,6.66934033203125,0.9992583990097046,0.5983788371086121,0.35354354977607727
1783245710395352600,6.6793525390625,0.9194265007972717,0.5364708304405212,0.21096187829971313
1783245710405364500,6.689364501953125,0.8545466065406799,0.48707932233810425,0.08860480040311813
1783245710415376400,6.69937646484375,0.793950617313385,0.47842442989349365,0.03275810927152634
1783245710425388500,6.709388427734375,0.7436022758483887,0.4271122217178345,0.04440091550350189
1783245710435400400,6.719400390625,0.7878714203834534,0.3860847055912018,0.09432973712682724
1783245710445412400,6.729412353515625,0.8890302777290344,0.2944386899471283,0.10458450019359589
1783245710455424500,6.739424560546875,1.0011088848114014,0.4456026256084442,0.06751143932342529
1783245710465436400,6.7494365234375,1.0359668731689453,0.48940685391426086,0.024143727496266365
1783245710475448600,6.759448486328125,1.0139460563659668,0.5203167200088501,0.05514099448919296
1783245710485460500,6.76946044921875,0.9842060804367065,0.5206432342529297,0.17780166864395142
1783245710495472400,6.779472412109375,0.9755030870437622,0.4743574857711792,0.32631203532218933
1783245710505484500,6.789484619140625,0.9833248257637024,0.45785412192344666,0.42527511715888977
1783245710515496400,6.799496337890625,1.0120394229888916,0.5120772123336792,0.43548792600631714
1783245710525508400,6.80950830078125,1.0438368320465088,0.570587694644928,0.3649900555610657
1783245710535520500,6.8195205078125,1.0747374296188354,0.6023363471031189,0.24825109541416168
1783245710545532400,6.829532470703125,1.1006337404251099,0.5984683632850647,0.11965315788984299
1783245710555544600,6.839544677734375,1.1297487020492554,0.559022068977356,-0.003457109909504652
1783245710565556500,6.849556396484375,1.1704676151275635,0.449375718832016,-0.09148150682449341
1783245710575568400,6.859568359375,1.1842361688613892,0.3723827600479126,-0.08266051858663559
1783245710585580500,6.86958056640625,1.1563246250152588,0.34198543429374695,0.027640951797366142
1783245710595592400,6.879592529296875,1.0630886554718018,0.3747279942035675,0.21230463683605194
1783245710605604400,6.889604248046875,0.9413632154464722,0.4601507782936096,0.3935844302177429
1783245710615616500,6.899616455078125,0.8499078154563904,0.5407166481018066,0.47636741399765015
1783245710625628400,6.90962841796875,0.799362301826477,0.5823309421539307,0.4294845759868622
1783245710635640600,6.919640625,0.7988099455833435,0.6312994360923767,0.28082066774368286
1783245710645652500,6.929652587890625,0.8611284494400024,0.6845735907554626,0.10242457687854767
1783245710655664400,6.939664306640625,0.9737648963928223,0.7514626979827881,-0.022512726485729218
1783245710665676500,6.949676513671875,1.075628399848938,0.820739209651947,-0.06465538591146469
1783245710675688400,6.9596884765625,1.1375072002410889,0.8238577246665955,-0.030855221673846245
1783245710685700400,6.969700439453125,1.1086993217468262,0.8805369734764099,0.07856607437133789
1783245710695712500,6.97971240234375,1.08948814868927,0.8186063170433044,0.18421781063079834
1783245710705724400,6.989724365234375,1.093642234802246,0.7825010418891907,0.19107651710510254
1783245710715736600,6.999736572265625,1.1035021543502808,0.8894298076629639,-0.13062389194965363
1783245710725748500,7.00974853515625,1.039462685585022,0.9953789114952087,-0.1714373677968979
1783245710735760400,7.019760498046875,0.9419077634811401,0.9113330841064453,-0.047218237072229385
1783245710745772500,7.0297724609375,0.9242587089538574,0.7115616798400879,-0.01336759515106678
1783245710755784400,7.039784423828125,0.9264463782310486,0.5308082699775696,0.0017847465351223946
1783245710765796400,7.04979638671875,0.9220638871192932,0.40922752022743225,0.015516538172960281
1783245710775808500,7.05980859375,0.9336205124855042,0.3325834572315216,-0.008060669526457787
1783245710785820400,7.0698203125,0.9712004065513611,0.2854015529155731,-0.0478522926568985
1783245710795832300,7.079832275390625,1.0184210538864136,0.25400179624557495,-0.08575835824012756
1783245710805844500,7.089844482421875,1.041546106338501,0.2517346441745758,-0.10235863924026489
1783245710815856400,7.0998564453125,1.029944658279419,0.280077189207077,-0.09529241174459457
1783245710825868500,7.10986865234375,0.998206615447998,0.331892192363739,-0.07566651701927185
1783245710835880400,7.11988037109375,0.9554444551467896,0.3859441876411438,-0.03945330157876015
1783245710845892400,7.129892333984375,0.8986021876335144,0.4286077618598938,-0.011704226024448872
1783245710855904500,7.139904541015625,0.9090146422386169,0.4373868703842163,-0.00021295249462127686
1783245710865916400,7.14991650390625,0.9630054831504822,0.4352010190486908,-0.005773261189460754
1783245710875928300,7.15992822265625,0.9901052713394165,0.4524766504764557,-0.029756011441349983
1783245710885940500,7.1699404296875,0.9724149703979492,0.48790842294692993,-0.061788782477378845
1783245710895952400,7.179952392578125,0.9413779377937317,0.4988285005092621,-0.09400489926338196
1783245710905964500,7.189964599609375,0.9157857894897461,0.5049034357070923,-0.13852976262569427
1783245710915976400,7.1999765625,0.897462785243988,0.5087227821350098,-0.1706557422876358
1783245710925988400,7.20998828125,0.8734498620033264,0.5133817195892334,-0.16744104027748108
1783245710936000500,7.22000048828125,0.8450024724006653,0.5052627325057983,-0.13745884597301483
1783245710946012400,7.230012451171875,0.8237006664276123,0.5008820295333862,-0.1072346419095993
1783245710956024300,7.2400244140625,0.8129094243049622,0.5093342065811157,-0.09270353615283966
1783245710966036200,7.2500361328125,0.8007185459136963,0.5188574194908142,-0.0878525897860527
1783245710976048400,7.26004833984375,0.7921820878982544,0.5240584015846252,-0.08638253808021545
1783245710986060300,7.270060302734375,0.7769548892974854,0.5053718090057373,-0.08722329884767532
1783245710996072400,7.280072509765625,0.7762969136238098,0.46305209398269653,-0.0839410349726677
1783245711006084400,7.29008447265625,0.7812650203704834,0.4144321084022522,-0.07855559140443802
1783245711016096300,7.30009619140625,0.7927975058555603,0.3663054406642914,-0.0679577887058258
1783245711026108400,7.3101083984375,0.8034139275550842,0.3168121874332428,-0.05720740184187889
1783245711036120300,7.320120361328125,0.8128852248191833,0.27362290024757385,-0.04699870944023132
1783245711046132200,7.33013232421875,0.80924391746521,0.2541293799877167,-0.014944104477763176
1783245711056144400,7.340144287109375,0.7760252356529236,0.26047274470329285,0.02816634811460972
1783245711066156300,7.35015625,0.7385985255241394,0.26620787382125854,0.06959767639636993
1783245711076168400,7.36016845703125,0.7076054811477661,0.26097267866134644,0.10076110810041428
1783245711086180400,7.370180419921875,0.6774012446403503,0.24052226543426514,0.11169923841953278
1783245711096192300,7.380192138671875,0.6363619565963745,0.21641233563423157,0.10961677134037018
1783245711106204400,7.390204345703125,0.5954725742340088,0.1782391220331192,0.11327089369297028
1783245711116216300,7.40021630859375,0.5638977885246277,0.13381627202033997,0.11514279246330261
1783245711126228200,7.410228271484375,0.5408702492713928,0.08287560194730759,0.12217539548873901
1783245711136240400,7.420240478515625,0.5160213112831116,0.03099719062447548,0.13364678621292114
1783245711146252300,7.430252197265625,0.4896794557571411,-0.005052157212048769,0.14633168280124664
1783245711156264400,7.440264404296875,0.46908316016197205,-0.02483867108821869,0.15948934853076935
1783245711166276400,7.4502763671875,0.4404754936695099,-0.039252497255802155,0.17642119526863098
1783245711176288300,7.460288330078125,0.4789077043533325,-0.13318932056427002,0.3988988995552063
1783245711186300400,7.470300537109375,0.47744429111480713,-0.08019880205392838,0.25987547636032104
1783245711196312300,7.480312255859375,0.45892974734306335,0.04302162304520607,0.06196700036525726
1783245711206324200,7.49032421875,0.36078187823295593,0.21463997662067413,-0.12569397687911987
1783245711216336400,7.50033642578125,0.25681617856025696,0.35620683431625366,-0.2568509578704834
1783245711226348300,7.510348388671875,0.17403900623321533,0.4667852818965912,-0.33206290006637573
1783245711236360200,7.520360107421875,0.0980532243847847,0.561637818813324,-0.34497129917144775
1783245711246372400,7.530372314453125,0.07626590877771378,0.5861711502075195,-0.27381402254104614
1783245711256384300,7.54038427734375,0.09057946503162384,0.47949841618537903,-0.13459134101867676
1783245711266396400,7.550396484375,0.11782866716384888,0.2623448073863983,0.020906900987029076
