time,seconds_elapsed,z,y,x
1783245516573547300,0.05554736328125,1.4894003533661364,0.6865690363623201,0.051642582019045945
1783245516583559200,0.06555908203125,1.654105762398243,0.5805826505415141,0.02994330284297466
1783245516593571300,0.0755712890625,1.6918407420307398,0.6101268710643053,0.15976152288913725
1783245516603583200,0.085583251953125,1.5859212839663028,0.6097342184849083,0.3083964524123817
1783245516613594400,0.095594482421875,1.4729975000977515,0.538113774254918,0.40298583042807873
1783245516623606500,0.1056064453125,1.3710826014995574,0.4697634377367794,0.42576311409920453
1783245516633618400,0.115618408203125,1.2471657144516706,0.37289705469980833,0.42025078041851516
1783245516643629300,0.12562939453125,1.1974725859999655,0.25470848217085,0.36326354943588374
1783245516653641200,0.13564111328125,1.1423808133751154,0.19269626263305545,0.2983154225766659
1783245516663653400,0.1456533203125,1.1859522440761328,0.16434680485278366,0.2880536293465644
1783245516673664300,0.155664306640625,1.2834499107539652,0.16019669943600892,0.3180143217157572
1783245516683676200,0.16567626953125,1.370296419557929,0.12257950096428394,0.29245222963169215
1783245516693688300,0.175688232421875,1.4490794488936662,0.019309680625796317,0.18597440703213214
1783245516703699500,0.185699462890625,1.5175111800849437,-0.11962065115869044,0.12235899008139967
1783245516713711400,0.19571142578125,1.486156256878376,-0.2195719945989549,0.07422675427086652
1783245516723723500,0.2057236328125,1.2888169907450675,-0.34811171914190053,0.07306633218936621
1783245516733734400,0.215734375,1.1260638848245144,-0.4166021947830915,0.07111169099025427
1783245516743746300,0.225746337890625,0.9068377810537814,-0.47276773411929607,0.060364452330768106
1783245516753758500,0.235758544921875,0.7176829904198646,-0.5866355208396912,-0.028907603119686244
1783245516763769300,0.245769287109375,0.6837099936693907,-0.6717334324106574,-0.06701163526028395
1783245516773781200,0.25578125,0.6637655222713947,-0.7310951374396681,-0.059490299844741815
1783245516783793000,0.26579296875,0.5908721354961395,-0.8457961601138114,-0.006912701997905969
1783245516793804300,0.27580419921875,0.4213303923487663,-1.0447013603895903,0.037359789644554255
1783245516803816200,0.285816162109375,0.22423662540912626,-1.2745178317576646,0.05298785914815962
1783245516813828000,0.295828125,-0.0537614008039236,-1.427616243495792,0.1708366052635014
1783245516823839200,0.305839111328125,-0.41533378228247164,-1.5076438660651446,0.2821849565088749
1783245516833851100,0.31585107421875,-0.8804343427747487,-1.5678975514978168,0.36404264404959974
1783245516843863000,0.325863037109375,-1.4059633607447146,-1.6822189272046089,0.39040348529592156
1783245516853874000,0.3358740234375,-1.9793068538129328,-1.8209107740581034,0.36089755095690484
1783245516863886000,0.345885986328125,-2.498347094285488,-1.926073568536341,0.362224269516021
1783245516873898000,0.35589794921875,-2.803486809924245,-1.85805860145241,0.5348765458993613
1783245516883908900,0.365908935546875,-2.8648218608528375,-1.6460443287566304,0.8201295116767287
1783245516893921000,0.375921142578125,-2.6314438976109025,-1.256984220893681,1.2226754163175821
1783245516903933000,0.385932861328125,-2.2045494413942097,-0.8403899902213364,1.5939138901554046
1783245516913944000,0.395944091796875,-1.6333523127049208,-0.4819384441770613,1.670722550678253
1783245516923956200,0.405956298828125,-1.0600035589396952,-0.3197074624344706,1.3979654938586055
1783245516933968100,0.415968017578125,-0.62082303712368,-0.21103768274858592,0.9135030110966413
1783245516943980000,0.42597998046875,-0.3456009053647518,-0.14356062193363905,0.4594770215220749
1783245516953991200,0.4359912109375,-0.15723580380380153,-0.08515577923804521,0.02108458134382963
1783245516964003000,0.446003173828125,-0.2217524073779583,-0.05953121637701988,-0.3689063776284456
1783245516974015000,0.456014892578125,-0.43306291571855543,-0.036467443914711475,-0.6128842069484293
1783245516984026000,0.466026123046875,-0.7523509836971759,0.045943128268420695,-0.6468690402671694
1783245516994038000,0.4760380859375,-1.007991047629714,0.19789470805898307,-0.4855490358896553
1783245517004050000,0.4860498046875,-1.0572896238058804,0.340490430483222,-0.2757264280192554
1783245517014061000,0.49606103515625,-0.9562059153348207,0.3876189691439271,-0.08682984993010759
1783245517024073200,0.5060732421875,-0.8252677513480186,0.2802799996703863,-0.0224757434412837
1783245517034085000,0.516085205078125,-0.6500678363084793,0.018083061440289018,-0.09747180158421397
1783245517044096000,0.526095947265625,-0.36328853774666786,-0.1381529176712036,-0.13962562057226896
1783245517054108200,0.536108154296875,-0.08984510609805584,-0.12840557676926254,0.02334741170927882
1783245517064120000,0.5461201171875,0.21579963645339012,0.023846447272598742,0.2221178066242486
1783245517074131000,0.556130859375,0.5753723685473203,0.20883008970171213,0.3059334232997149
1783245517084143000,0.56614306640625,0.8615683142632246,0.32602833601906894,0.2648507406745106
1783245517094155000,0.576155029296875,1.049153663623333,0.4453812761522829,0.15535678512416778
1783245517104166100,0.586166259765625,1.085239707005024,0.5601680774137378,0.0401502240806818
1783245517114178300,0.59617822265625,0.9194640383929014,0.7324430449172854,-0.05489208533428609
1783245517124190200,0.606190185546875,0.6167068339765072,0.8662908127404749,-0.1312203419290483
1783245517134201000,0.616201171875,0.3129401602566242,0.9025700406067073,-0.2080401814330369
1783245517144213000,0.626212890625,-0.0295277077794075,0.86109192892313,-0.3525392532605678
1783245517154225200,0.63622509765625,-0.39692075823545453,0.7724725652277469,-0.39778080913089214
1783245517164236000,0.646236083984375,-0.7057260106444359,0.6786705381974577,-0.30481589051187036
1783245517174248000,0.656248046875,-0.926201237693429,0.6184523624695837,-0.09338197498731314
1783245517184260000,0.666260009765625,-1.0134095655471085,0.571602933011204,0.11823138875737786
1783245517194272000,0.67627197265625,-1.0265256522297859,0.5013315653026104,0.28726737433969973
1783245517204283000,0.686282958984375,-0.9383552013456821,0.4359646285094321,0.45302331533804535
1783245517214295000,0.696294921875,-0.7686071219712496,0.36414486231505866,0.5662066269256174
1783245517224307000,0.706306884765625,-0.5726414822787046,0.31125819851905107,0.5624820534445345
1783245517234318000,0.716318115234375,-0.43006314938068385,0.21568024785742163,0.5126361455839127
1783245517244330200,0.726330322265625,-0.27176059312820433,0.1690868389867246,0.527368654487282
1783245517254342100,0.736342041015625,-0.048989364096522325,0.17056714067235587,0.5727697848334908
1783245517264353000,0.74635302734375,0.18615794690549373,0.1949263597726822,0.5753595090657472
1783245517274365200,0.756365234375,0.3480406997323036,0.19639906267374752,0.4751284719012677
1783245517284377000,0.766377197265625,0.45748716287910934,0.18323562971800564,0.35336525575593114
1783245517294388000,0.776387939453125,0.6084814419448376,0.2558925773888826,0.28534298214837905
1783245517304400000,0.78639990234375,0.7635024923086166,0.3449083930559456,0.24350487804599105
1783245517314412000,0.796412109375,0.9559212531745434,0.34799627606868744,0.17290077125169337
1783245517324423200,0.806423095703125,1.029399161839485,0.2773138433411717,0.10801102351620792
1783245517334435000,0.81643505859375,1.0215110389381648,0.1961443572603166,0.02654050866216421
1783245517344447200,0.826447265625,1.1283125405341385,0.16305661891177295,0.07901924924440681
1783245517354458000,0.8364580078125,1.2273626973509788,0.17910963582918046,0.17612061008103191
1783245517364470000,0.846469970703125,1.3154121522039175,0.08181494437754154,0.1996649326018989
1783245517374482200,0.856482177734375,1.37560972353518,-0.08164411785528063,0.27868498556390403
1783245517384493000,0.8664931640625,1.3684288721203803,-0.2056375772707164,0.36987281150780615
1783245517394505000,0.8765048828125,1.3429612533867359,-0.2805556017413735,0.425023693908751
1783245517404517000,0.88651708984375,1.30348965921998,-0.35275501490309835,0.5221657520819455
1783245517414528300,0.8965283203125,1.2486685202300547,-0.4519774595469236,0.5408149960376322
1783245517424540200,0.9065400390625,1.0996271287977695,-0.6050207800969482,0.500376967991516
1783245517434552300,0.91655224609375,0.8504127139985561,-0.7142218901805579,0.4543437502868473
1783245517444563200,0.926563232421875,0.5126747970938682,-0.8182385102983564,0.4090997101984918
1783245517454575000,0.9365751953125,0.11143383757174015,-0.9036416153609752,0.32501236390955746
1783245517464587000,0.9465869140625,-0.18316753291785717,-0.8838293920405208,0.2962856703147292
1783245517474598100,0.95659814453125,-0.41649172014594077,-0.8347652091421186,0.24778723154030738
1783245517484610000,0.966610107421875,-0.5923012915164232,-0.7696798657692968,0.16673296933695672
1783245517494622000,0.9766220703125,-0.6774696379750966,-0.7100441661044955,0.028467969593405723
1783245517504634000,0.986634033203125,-0.7414882288992405,-0.7159577009972184,-0.10049662929810584
1783245517514645000,0.99664501953125,-0.8314099073648452,-0.7628989734575152,-0.18188801450133324
1783245517524657000,1.006656982421875,-0.9392460127055644,-0.783573951087147,-0.15261435454823075
1783245517534669000,1.0166689453125,-1.0921171915590762,-0.7561125281877815,0.03301635361276567
1783245517544680200,1.02668017578125,-1.3074860353797673,-0.7415815332058817,0.2848595825456083
1783245517554692000,1.036692138671875,-1.4610709154605865,-0.7388060771431774,0.48428968347832557
1783245517564704300,1.046704345703125,-1.5754086577802895,-0.7245245999429375,0.5878198352534324
1783245517574715100,1.056715087890625,-1.7264613890349865,-0.726155050688982,0.6782919872086495
1783245517584727000,1.06672705078125,-1.6642232517868278,-0.630454934952408,0.7708145688876509
1783245517594739000,1.076739013671875,-1.4977350509911775,-0.4505825711224228,0.8809187652908265
1783245517604750000,1.08675,-1.27335112606585,-0.1628920759998262,0.9813842687983065
1783245517614762000,1.096761962890625,-1.065918335941434,0.08249700835756957,1.0256281188681722
1783245517624774000,1.10677392578125,-0.9251151960223912,0.19500527022778988,0.9536270778227597
1783245517634785300,1.116785400390625,-0.8477759357541799,0.23315862140282986,0.9366148604843765
1783245517644797200,1.126797119140625,-0.8664251066446303,0.33230347076579925,0.934085415071994
1783245517654809000,1.13680908203125,-0.8764180928707123,0.3733854227386415,0.9819197639144956
1783245517664820200,1.1468203125,-1.0186357757627964,0.2852856259379536,1.0323593268193303
1783245517674832100,1.15683203125,-1.0090993011325597,0.18473631660453974,0.8826188472069799
1783245517684844000,1.166843994140625,-0.9004068712234496,-0.0191367352116853,0.6015335225030779
1783245517694856200,1.176856201171875,-0.8769961850196123,-0.16757490005381404,0.3707087508752942
1783245517704867000,1.1868671875,-0.7874287268191575,-0.1810541940256953,0.2105905235029757
1783245517714879000,1.19687890625,-0.5817156000941991,-0.14420133098997176,0.08423661856651306
1783245517724891100,1.20689111328125,-0.38093057742118835,-0.07664506745897233,-0.12432342202216386
1783245517734902000,1.216902099609375,-0.1849175914555788,0.005246449286118149,-0.3859314544484019
1783245517744914200,1.2269140625,0.04054594539999962,0.04665770627856254,-0.573034280988574
1783245517754926000,1.236926025390625,0.4503992504447698,0.23318726297542453,-0.6270715761244297
1783245517764937200,1.246937255859375,0.9668050507605075,0.22987068577334283,-0.6520457122527062
1783245517774949000,1.25694921875,1.2548667903482913,0.19476897725388406,-0.6387085301652551
1783245517784961000,1.2669609375,1.3859259503662584,0.3695550507955253,-0.4939476655963808
1783245517794972000,1.276971923828125,1.3992553875386715,0.5893161382257938,-0.3297462605636567
1783245517804983800,1.28698388671875,1.2885112857967613,0.820856364646554,-0.14203509286679328
1783245517814996000,1.296995849609375,1.0736071368783713,0.9857457519434392,0.14785890364944934
1783245517825006800,1.3070068359375,0.7745955487310886,1.0869354050070046,0.4413100081253797
1783245517835018800,1.317018798828125,0.42611645758152006,1.1581089822523296,0.7935619688771665
1783245517845031000,1.327031005859375,0.10905015730559825,1.1490456780917941,1.1167948289588092
1783245517855042000,1.3370419921875,-0.2614192318558693,1.1155549119003116,1.42675743470937
1783245517865054000,1.347053955078125,-0.5545318250924348,1.038437039297819,1.6836001524299382
1783245517875066000,1.357066162109375,-0.7667945195913315,0.8602662917539476,1.8395416786395011
1783245517885077000,1.367076904296875,-0.8574462658971548,0.6955876245982945,1.8876937151290476
1783245517895089000,1.3770888671875,-0.7920961341083049,0.5978365676812827,1.8809720056585966
1783245517905101000,1.38710107421875,-0.7657873883754015,0.5971574993759393,1.7228078349635003
1783245517915112000,1.39711181640625,-0.7723270192772149,0.6143382051490247,1.5002240913279354
1783245517925123800,1.407123779296875,-0.5832546462297439,0.6612167145714163,1.3175867197640239
1783245517935135700,1.4171357421875,-0.40193829413652415,0.8045521494470537,1.228760143058747
1783245517945147100,1.427147216796875,-0.22252572983801364,0.9645311144791543,1.1485917968444526
1783245517955159000,1.437158935546875,0.09005728754401207,0.9676607908070087,0.9649489014998078
1783245517965171000,1.4471708984375,0.5790016649603843,0.914579335091263,0.7397019300043582
1783245517975183000,1.45718310546875,1.0516595089644194,0.9082777507290244,0.5916657700918615
1783245517985194000,1.467194091796875,1.3743120849400758,0.8552658531181514,0.456283047786355
1783245517995206000,1.477205810546875,1.6728069557368754,0.7624278488144278,0.2632701204195618
1783245518005218000,1.487218017578125,1.9354133515506982,0.6650827423498034,0.08376074468307197
1783245518015229000,1.49722900390625,2.041795166429877,0.6214765325963497,-0.04593136476539075
1783245518025240800,1.50724072265625,2.0438287180840966,0.6196316353820264,-0.13204765959866344
1783245518035253000,1.5172529296875,1.9862825380444527,0.5827655475385487,-0.1282823887810111
1783245518045264100,1.52726416015625,1.824457068362832,0.5601812291562557,-0.06937025415040553
1783245518055276000,1.537276123046875,1.6081342848181723,0.479885603300482,-0.0188153943028301
1783245518065288200,1.5472880859375,1.4144687387615442,0.3743634739905596,0.0838939426086843
1783245518075299000,1.557299072265625,1.3020400449335574,0.25425898483768106,0.19681860326007009
1783245518085311000,1.56731103515625,1.2173270410269499,0.09678981066942215,0.275798031950742
1783245518095323000,1.577322998046875,1.193016191112995,-0.04950082074999809,0.3592087941523641
1783245518105334000,1.587333984375,1.1803279744535684,-0.18534648439213633,0.395563060016185
1783245518115346000,1.597345947265625,1.1141659417599439,-0.2982575549095869,0.4180027092307806
1783245518125357800,1.60735791015625,1.0129349337726832,-0.37219577456265684,0.4121249763038009
1783245518135369000,1.617368896484375,0.9427613273501395,-0.4660300964273512,0.3584885170537978
1783245518145380900,1.627380859375,0.8099661373198032,-0.6317474589809775,0.17037461377494037
1783245518155392800,1.637392822265625,0.5190191976845264,-0.8501607850641012,-0.0699959117680788
1783245518165404000,1.64740380859375,0.24108780696690083,-1.0023951273187994,-0.24968583170324563
1783245518175416000,1.657416015625,-0.0530336710512638,-1.1310717761144042,-0.36556999974735077
1783245518185428000,1.667427978515625,-0.3348644072949886,-1.237751258765906,-0.46657319032810624
1783245518195440000,1.677440185546875,-0.6677402711212634,-1.3382020761609077,-0.4726774254873395
1783245518205451000,1.687450927734375,-0.9405044883340596,-1.3943394123159347,-0.3843327140148729
1783245518215463000,1.697462890625,-1.057769516277313,-1.3619295732289551,-0.23933402210213242
1783245518225475000,1.70747509765625,-1.1147031173765658,-1.2847566094383596,-0.0940337899595499
1783245518235486000,1.71748583984375,-1.1040578047215939,-1.2433940869584679,-0.03523461418412625
1783245518245497900,1.727497802734375,-1.1090706644475459,-1.2543015576809644,-0.06835742384605109
1783245518255509800,1.737509765625,-1.2010101124763488,-1.330871879403293,-0.13106390925832093
1783245518265521200,1.747521240234375,-1.2452134113401174,-1.307624859328568,-0.08835552512742578
1783245518275533000,1.757532958984375,-1.2376128732085228,-1.1721274246022104,0.023435528384149074
1783245518285545000,1.767544921875,-1.2694494424521923,-0.9521522560298442,0.13323635792657731
1783245518295556000,1.77755615234375,-1.2946680548608303,-0.7944229696206748,0.20459676298089324
1783245518305568000,1.787568115234375,-1.1517775872737168,-0.6447559936359525,0.2879706272382289
1783245518315580000,1.797579833984375,-0.9732155023247003,-0.4286205493569374,0.5259583492979407
1783245518325590800,1.8075908203125,-0.860435510841012,-0.16441022547781467,0.796819217107445
1783245518335603000,1.81760302734375,-0.7000625780552625,0.09470160621851682,0.9764538266588002
1783245518345614800,1.82761474609375,-0.4827244799882173,0.21352701534628868,0.9248512113239615
1783245518355626000,1.8376259765625,-0.25028058272600173,0.23018618146330116,0.7011210741322487
1783245518365638100,1.84763818359375,-0.10418576613962649,0.2570037535011768,0.4742679095491767
1783245518375650000,1.857650146484375,-0.07595160530209541,0.2976243715725839,0.20588483003005384
1783245518385661000,1.867660888671875,-0.09606266543865204,0.29289222848415375,-0.05484751554019749
1783245518395673000,1.877673095703125,-0.21649814011156557,0.19878508102744816,-0.30686522425711155
1783245518405685000,1.88768505859375,-0.34393910963237284,0.1445696528457105,-0.4384559338685125
1783245518415697000,1.89769677734375,-0.3821943137466907,0.20368162089735267,-0.43628933041915297
1783245518425708000,1.9077080078125,-0.44003743090629577,0.30799685863554477,-0.31595563562028106
1783245518435720000,1.917719970703125,-0.4963935243785381,0.32729382591024037,-0.14815605996511877
1783245518445731800,1.92773193359375,-0.636002486076951,0.22903189686164258,0.006744432758912444
1783245518455742700,1.93774267578125,-0.6312269422382116,0.10164294978901743,0.1285053108166903
1783245518465755000,1.9477548828125,-0.5362304447263478,0.025643998213857412,0.2037079974476248
1783245518475766800,1.957766845703125,-0.466809117975831,-0.029705694694817063,0.23378362143337725
1783245518485778000,1.96777783203125,-0.3734253163576126,-0.0032652854062616824,0.1834042642831802
1783245518495790000,1.9777900390625,-0.1604138493180275,-0.013868220224231481,0.13940766697265206
1783245518505802000,1.987802001953125,0.10709025540947914,0.030783699189871547,0.17373524931445716
1783245518515812900,1.997812744140625,0.34091888502836226,0.18904358534440396,0.28791071374453603
1783245518525825000,2.007824951171875,0.5333236173689365,0.4079521475985646,0.354850964269042
1783245518535837000,2.0178369140625,0.6084072076648473,0.6140332308530807,0.37951091988161206
1783245518545847800,2.027847900390625,0.7481926949739456,0.7539682096354663,0.3189412273023277
1783245518555860000,2.03785986328125,0.8236661613702774,0.867543735411018,0.19880721979402005
1783245518565871900,2.047871826171875,0.706708591940999,0.926963015846163,0.09011376697160303
1783245518575883000,2.057883056640625,0.4507984788954258,0.9854787715703248,-0.01680398141518235
1783245518585895200,2.067895263671875,0.16499766997694967,1.0569606841124595,-0.14456599958389996
1783245518595907000,2.077906982421875,-0.20842297020554543,1.0606805814184248,-0.2839099536705762
1783245518605918000,2.08791796875,-0.623197365039587,0.948661491304636,-0.42275940223857755
1783245518615929900,2.097929931640625,-1.0945721834957598,0.7307258657358586,-0.5538068718187511
1783245518625942000,2.10794189453125,-1.5424223339796066,0.49801148096919057,-0.5878136977735906
1783245518635954000,2.117953857421875,-1.9038187743693589,0.3134380267761647,-0.5650257465779781
1783245518645964800,2.12796484375,-2.1692413966476916,0.149717098736763,-0.4802941841013729
1783245518655977000,2.13797705078125,-2.2142454905003306,0.15036007281541824,-0.33185704217255113
1783245518665988900,2.14798876953125,-1.9768442630916834,0.25696020662039515,-0.11394041356518864
1783245518676000000,2.158,-1.5845511646568775,0.32423458447009323,-0.03239975608438253
1783245518686012000,2.168011962890625,-0.98397713483572,0.28999314604178067,-0.13143939150720835
1783245518696024000,2.178024169921875,-0.3112532300829887,0.22157982729002831,-0.35236214312799274
1783245518706035000,2.188034912109375,0.3062871321082115,0.2594954241864383,-0.5489401425652206
1783245518716047000,2.198047119140625,0.7622749963402747,0.3626267128370702,-0.6248359260268509
1783245518726059000,2.20805908203125,1.077486608660221,0.51445262042135,-0.6291110460627823
1783245518736070000,2.21806982421875,1.2184879014998673,0.5749059200793505,-0.6587038549676537
1783245518746082000,2.22808203125,1.3219248950988054,0.6082840196765958,-0.7191688450634479
1783245518756094000,2.238093994140625,1.3485586350023746,0.6264243642620742,-0.6922017084870487
1783245518766104800,2.248104736328125,1.2664391547203062,0.614873042678088,-0.5987864888172596
1783245518776116700,2.25811669921875,1.1465952161997557,0.5580914172701538,-0.4485394479222595
1783245518786129700,2.268129638671875,1.02308632543087,0.4447276345491409,-0.3055391632851213
1783245518796140500,2.278140625,0.8959791179090738,0.31535540470480916,-0.16659962528087197
1783245518806152700,2.288152587890625,0.8349024256557226,0.2299697622336447,-0.06953318962715566
1783245518816164600,2.29816455078125,0.7981289845317602,0.08980082856491207,-0.009730389767140149
1783245518826176800,2.3081767578125,0.7875117289274931,-0.05925619882792234,-0.026319120996445417
1783245518836187600,2.318187744140625,0.798493141669035,-0.22995105753317474,-0.06539397093057632
1783245518846199800,2.32819970703125,0.8571785548716783,-0.3562342353209853,-0.08163739585354923
1783245518856211700,2.338211669921875,0.8504325877428054,-0.43050913958251474,-0.04430295984596014
1783245518866222600,2.34822265625,0.7869096713811159,-0.4505426044382155,0.02058138106204569
1783245518876234800,2.35823486328125,0.6782108117312192,-0.4194907558314502,0.060728828663751476
1783245518886246700,2.36824658203125,0.5205635045170783,-0.46970220906883475,0.09822335060387849
1783245518896257500,2.378257568359375,0.42746787219047544,-0.5482445615164935,0.14487258131504058
1783245518906269700,2.388269775390625,0.31860709997713565,-0.6036638125300408,0.1802731266506016
1783245518916281600,2.398281494140625,0.22963702314794063,-0.6587354191496968,0.1769333877686411
1783245518926292700,2.408292724609375,0.13429565772116184,-0.6812650847353041,0.19365429401025175
1783245518936305000,2.418304931640625,0.011019406664371489,-0.6771586723297834,0.21260697789192198
1783245518946316800,2.42831689453125,-0.15837620601058006,-0.6818959299847484,0.1594607863768935
1783245518956327700,2.43832763671875,-0.36183716989457604,-0.7811252427607774,0.06196122000291943
1783245518966339600,2.448339599609375,-0.6334072088867425,-0.8445476213574409,-0.010379501325637102
1783245518976351700,2.458351806640625,-0.8351870878159999,-0.8497444593481719,-0.042408232140541076
1783245518986362600,2.468362548828125,-1.0005126745730637,-0.7767192628867924,-0.03266615193560719
1783245518996374500,2.47837451171875,-1.1434691931337118,-0.64927858562693,0.0007879355072975159
1783245519006386700,2.48838671875,-1.18584527657032,-0.5313306899860502,-0.03654270110800862
1783245519016397800,2.498397705078125,-1.1486129857629537,-0.4845652855493128,-0.16048559937998652
1783245519026409700,2.50840966796875,-1.072184410598874,-0.4722312891550362,-0.3347020563401282
1783245519036422000,2.518421875,-0.9971522582292556,-0.44103184877112506,-0.3850497031778097
1783245519046433800,2.528433837890625,-0.8946353020846843,-0.2739094417251646,-0.24440613773465156
1783245519056444700,2.538444580078125,-0.7890905225515366,-0.03992386797890067,-0.06842895471230148
1783245519066456800,2.548456787109375,-0.6658622022897005,0.09526771566867828,0.023687457318603992
1783245519076468700,2.55846875,-0.5642243670672178,0.10634455160871148,-0.001075228016078472
1783245519086479600,2.568479736328125,-0.5436304918497801,0.09077727238163351,-0.049509004056453705
1783245519096491800,2.57849169921875,-0.5393880319744349,0.11486790367364882,-0.10533318260908127
1783245519106503700,2.588503662109375,-0.5722480990469455,0.10211787382438778,-0.22771204643473028
1783245519116514600,2.5985146484375,-0.6937637701719999,-0.05888999586403369,-0.47645577498227354
1783245519126526700,2.608526611328125,-0.8939724542617797,-0.31888182526528835,-0.7751768557503819
1783245519136538600,2.61853857421875,-1.0701076043248177,-0.4863010233007371,-1.0086968578115105
1783245519146549800,2.6285498046875,-1.2660925332397222,-0.5110029183588922,-1.1358365062981843
1783245519156561700,2.638561767578125,-1.3214035015732049,-0.4248552054740488,-1.240964960115403
1783245519166573800,2.64857373046875,-1.2602449762552976,-0.3045756520152092,-1.3928947664655744
1783245519176584700,2.658584716796875,-1.050386420288682,-0.1640055901996791,-1.4792233888752757
1783245519186596600,2.6685966796875,-0.7098357840508223,-0.07826996524706482,-1.5546028933778404
1783245519196608800,2.67860888671875,-0.3129273007750511,-0.05684226955398917,-1.6767065935239194
1783245519206619600,2.68861962890625,0.08448270228207111,-0.05193608507290482,-1.7664811186037956
1783245519216631600,2.698631591796875,0.46332127586007116,-0.029172026209533214,-1.808939327365905
1783245519226643700,2.708643798828125,0.686693393394351,0.032303894494473934,-1.799878215162456
1783245519236654800,2.71865478515625,0.8130284474998712,0.09343056336939334,-1.7488873019851743
1783245519246666800,2.728666748046875,0.9441372918784617,0.21580548167228697,-1.7060767726540564
1783245519256679000,2.738678955078125,1.0174579641550778,0.3930076764449477,-1.5787429167695342
1783245519266690800,2.74869091796875,1.1195166551381348,0.6020037703633309,-1.4314737957067787
1783245519276701700,2.75870166015625,1.2273662044823168,0.789637927301228,-1.2618262540973721
1783245519286713600,2.768713623046875,1.3137491874277591,0.8947562981158494,-1.1629008927039801
1783245519296725800,2.778725830078125,1.3387912742257118,0.9124705262437462,-1.1571347303926944
1783245519306736600,2.788736572265625,1.3459703720748424,0.9549600069269537,-1.1448662004500627
1783245519316748500,2.79874853515625,1.2261848857432602,0.9512170210063456,-1.1063877089738845
1783245519326760700,2.8087607421875,0.9799287362277507,0.8571174723342061,-1.0920752521134913
1783245519336771800,2.818771728515625,0.6562567540764809,0.6724255063280463,-1.0142715892039238
1783245519346783700,2.82878369140625,0.23813655594587324,0.4992275787606835,-0.8711270007252693
1783245519356796000,2.8387958984375,-0.1782768382668495,0.36863662077635523,-0.7366692843101919
1783245519366806800,2.848806884765625,-0.5122954423874616,0.26439620184004303,-0.6824757756993174
1783245519376818700,2.858818603515625,-0.7711328410565853,0.16249766985476016,-0.6527635051332413
1783245519386830800,2.868830810546875,-0.9015005116790532,0.21653321142494678,-0.5990300152495504
1783245519396841700,2.878841796875,-0.9857920753031969,0.38850831919908524,-0.5647109815403819
1783245519406853600,2.888853515625,-0.8561486273020505,0.594272883850336,-0.6302060747578739
1783245519416865500,2.898865478515625,-0.7022931135863065,0.7269163904502988,-0.8496962362922728
1783245519426876700,2.908876708984375,-0.3993582145154476,0.7964604667976498,-1.1494641957648097
1783245519436888600,2.918888671875,-0.12555588642656804,0.8594047064885496,-1.4431740242421627
1783245519446900500,2.928900390625,0.13942016112804412,0.8677680456861853,-1.70045177237913
1783245519456912600,2.93891259765625,0.34778117201328274,0.8488552554234862,-1.838563919648528
1783245519466923800,2.948923828125,0.4601028983354568,0.9503934296637773,-1.8965927686385808
1783245519476935700,2.958935791015625,0.4278238460212946,1.0306292881563306,-1.9194756315760313
1783245519486947800,2.96894775390625,0.4218190526485443,1.1259160007864235,-1.9547019893884658
1783245519496958700,2.978958740234375,0.32607904329299925,1.1309577943459153,-1.9420954596631228
1783245519506970600,2.988970703125,0.21094401311576366,1.094635311859846,-1.823786767885834
1783245519516982800,2.998982666015625,0.12096271341741084,1.1030153099313378,-1.6918911570437252
1783245519526993700,3.00899365234375,0.07049275537431239,1.1341853780902922,-1.5255585852012037
1783245519537005600,3.019005615234375,0.04857084642350673,1.126366667163372,-1.3860653588369487
1783245519547017700,3.029017822265625,0.05502221451997757,1.1352813566334545,-1.2625824792921543
1783245519557028900,3.03902880859375,0.11554945619702338,1.1589021784566342,-1.130883560065925
1783245519567040800,3.049040771484375,0.20123568904995917,1.1332489740230143,-1.0891270698323845
1783245519577052700,3.059052734375,0.33732349088490005,1.095938065021485,-1.0010422514051198
1783245519587063800,3.069063720703125,0.45262569432258604,1.0602538804389536,-0.9002106179989874
1783245519597075700,3.07907568359375,0.4957569800406694,0.9921469972878694,-0.7551726169891655
1783245519607087600,3.089087646484375,0.4822773207426071,0.8860963140591979,-0.5962985444590448
1783245519617098800,3.0990986328125,0.4854863459169864,0.797748753042519,-0.4762988308548927
1783245519627110700,3.109110595703125,0.44827626694142814,0.7263090722069144,-0.36961890981197354
1783245519637122600,3.11912255859375,0.2811825014680624,0.6387970852315425,-0.3073905633054673
1783245519647134700,3.129134765625,0.1444143161535263,0.5207254170805216,-0.26581965877190233
1783245519657145900,3.139145751953125,0.10902034668922424,0.45741073664203286,-0.2159671019747853
1783245519667157800,3.14915771484375,0.03496609944105148,0.4592082875832915,-0.22710282849520444
1783245519677170000,3.159169921875,-0.1456248609870672,0.4378929662235081,-0.2983953559450805
1783245519687180800,3.169180908203125,-0.2639361831128597,0.3625901802189648,-0.42802477542087436
1783245519697192700,3.179192626953125,-0.3837964882463217,0.36125644739717244,-0.5790703462824225
1783245519707204900,3.189204833984375,-0.5017009831368923,0.49688656859248875,-0.6680411537639797
1783245519717215700,3.1992158203125,-0.5632862094342709,0.667631988441199,-0.7174060731746256
1783245519727227600,3.2092275390625,-0.4656260456711054,0.7662989911593496,-0.764327106564492
1783245519737239600,3.219239501953125,-0.3234621387928724,0.8238422485895455,-0.7612145275019109
1783245519747250700,3.229250732421875,-0.2633627671390772,0.8478864103913306,-0.6900586320437491
1783245519757262600,3.2392626953125,-0.20352759937942028,0.904414061038196,-0.565822449913621
1783245519767274500,3.2492744140625,-0.20001637638807296,1.0427264070548117,-0.4075023580044508
1783245519777286000,3.259285888671875,-0.3152887692093849,1.1864106553681195,-0.35352015405669807
1783245519787297800,3.2692978515625,-0.5365583615064621,1.2677531599283218,-0.457615611564368
1783245519797310000,3.27931005859375,-0.9201011672526598,1.2300364466048777,-0.7570799119152128
1783245519807320800,3.28932080078125,-1.3035370054930449,1.0560536522701383,-1.1529720577552913
1783245519817332700,3.299332763671875,-1.7366548662692307,0.7986834035441279,-1.5682751526385545
1783245519827345000,3.309344970703125,-2.2038246342509984,0.6421348513521253,-1.7086435544021428
1783245519837355800,3.319355712890625,-2.5667735647797585,0.7015446333065629,-1.5786407715693116
1783245519847367700,3.32936767578125,-2.834689757439494,0.811374542813003,-1.3405059691891072
1783245519857379800,3.3393798828125,-2.8900632696151733,0.945556218765676,-0.9946341379284858
1783245519867391700,3.349391845703125,-2.585247379103303,1.0617676460027694,-0.6286870484970509
1783245519877403000,3.35940283203125,-1.9880635762423275,1.151395017696917,-0.3934403687737882
1783245519887415000,3.3694150390625,-1.2694079413980244,1.162818328987062,-0.4271186203613877
1783245519897427000,3.379427001953125,-0.4699696278333664,1.0584199430100618,-0.613004033935815
1783245519907437800,3.389437744140625,0.15649813717901706,0.8848547895655036,-0.7270685122720897
1783245519917449700,3.39944970703125,0.5195487745165824,0.7869697310052811,-0.8660632875949144
1783245519927462000,3.4094619140625,0.6321615927398204,0.6493246167257428,-1.0928116035640238
1783245519937472800,3.41947265625,0.5363882656365633,0.5238822736762464,-1.318645873428136
1783245519947484700,3.429484619140625,0.26440847679972646,0.4816806700237095,-1.4655987681485712
1783245519957496800,3.439496826171875,-0.05742343044281006,0.5602751910500228,-1.505644655071944
1783245519967507700,3.4495078125,-0.33912031117379665,0.7796575082957744,-1.4334540097385644
1783245519977519900,3.459519775390625,-0.4845347442805767,0.9443832294635474,-1.3966473969973623
1783245519987531800,3.46953173828125,-0.5315273816019296,0.9827560686081648,-1.4532180100031196
1783245519997543000,3.47954296875,-0.5419342093259096,0.9456434586577117,-1.5228705151610076
1783245520007554800,3.489554931640625,-0.5206815779387951,0.9156884653769433,-1.554246481155604
1783245520017567000,3.49956689453125,-0.5367483311206102,0.9344241455070674,-1.578616367780417
1783245520027577900,3.509577880859375,-0.6047556994199752,0.9906601197309791,-1.5991797017291187
1783245520037589800,3.51958984375,-0.7127619006305933,1.0014071391947568,-1.6180265871487558
1783245520047602000,3.529601806640625,-0.6642120969951152,1.0488817148141563,-1.5594466801472007
1783245520057613800,3.53961376953125,-0.5961550443351269,1.1838183007873595,-1.3940921595565974
1783245520067624700,3.549624755859375,-0.5227344188153743,1.2564353548392653,-1.2244548470802605
1783245520077636600,3.55963671875,-0.3517582589507103,1.1828649455852807,-1.165016277422756
1783245520087648800,3.569648681640625,-0.2825876920908689,1.018829398638755,-1.1769177276186644
1783245520097660000,3.579659912109375,-0.3666536302655935,0.8566311501219868,-1.1541133367449044
1783245520107671800,3.589671875,-0.47114860848486423,0.7831503188475966,-1.0717404662236572
1783245520117684000,3.59968408203125,-0.6501409015446901,0.7066336270086467,-0.9967221962489187
1783245520127694800,3.60969482421875,-0.8485591950863599,0.5956744212113321,-0.8999500673666596
1783245520137706800,3.619706787109375,-0.9485369881421327,0.4583940485909581,-0.749293934214115
1783245520147719000,3.629718994140625,-1.0485592048615218,0.37391762991920113,-0.6346062094129622
1783245520157729800,3.639729736328125,-1.121118245115876,0.2723041984856129,-0.57624491359815
1783245520167741700,3.64974169921875,-1.0853443364232778,0.18994258001074193,-0.5274905273012817
1783245520177753900,3.65975390625,-0.9708376672774552,0.15695377199202776,-0.5180865930095314
1783245520187765000,3.669764892578125,-0.8068167333781718,0.1278800915904343,-0.5363204610973596
1783245520197777000,3.67977685546875,-0.6471428887724876,0.10006035677269101,-0.5732239583417773
1783245520207789000,3.6897890625,-0.5093856924206018,0.037188743926584715,-0.6252908301874995
1783245520217800000,3.699800048828125,-0.33684652102291585,0.00694207422286272,-0.6778761729493736
1783245520227811800,3.709811767578125,-0.10898878250718116,0.04392302061766386,-0.6893006532832979
1783245520237823700,3.71982373046875,0.10226035103499889,0.06920885304361582,-0.7386765324793756
1783245520247836000,3.7298359375,0.25294600254297256,0.0354185193836689,-0.8422317456305026
1783245520257846800,3.7398466796875,0.16712065348029137,-0.11321268381252884,-0.9258547623433172
1783245520267858700,3.749858642578125,0.17356792992353437,-0.13790186551958322,-0.9582353753358125
1783245520277870800,3.759870849609375,0.07017769807577133,-0.1129606087476015,-0.8598553728654981
1783245520287881700,3.7698818359375,-0.14557400758266448,-0.11852116548418998,-0.7738458994075655
1783245520297894000,3.779893798828125,-0.3100608054280281,-0.1531917891100049,-0.7383949390590191
1783245520307905800,3.78990576171875,-0.42710137696564193,-0.14458265845775603,-0.7005429089181124
1783245520317917000,3.7999169921875,-0.4696580776661634,-0.08093202406316995,-0.6381130484901368
1783245520327928800,3.8099287109375,-0.39175241568684577,-0.026036796923726794,-0.5870483394242823
1783245520337941000,3.81994091796875,-0.31639000844955445,-0.03043678544834256,-0.647970279507339
1783245520347951900,3.829951904296875,-0.199225518271327,-0.10958002639859914,-0.7234741410419344
1783245520357963800,3.8399638671875,-0.16640695225298405,-0.1375134507238865,-0.762583185506612
1783245520367975700,3.8499755859375,-0.16874620885550976,-0.10320435388684272,-0.728666302857548
1783245520377986800,3.85998681640625,-0.17244155624210833,-0.03674085402861237,-0.6286465703561902
1783245520387998700,3.869998779296875,-0.10506547158360481,-0.011228811631351709,-0.5315903638355434
1783245520398010600,3.8800107421875,-0.0067798693984746925,-0.040715310617536304,-0.44873862375617024
1783245520408022000,3.89002197265625,0.07897299894988537,-0.06417845766097306,-0.3355354384243488
1783245520418034000,3.900033935546875,0.18404022409915924,-0.08185600704029201,-0.21548034137114883
1783245520428045800,3.9100458984375,0.26467092712819573,-0.15279197613745926,-0.12773308433517813
1783245520438058000,3.92005810546875,0.35669571535289285,-0.24646160895973443,-0.05418576369583607
1783245520448068900,3.93006884765625,0.39388533606231213,-0.3689804657779634,-0.020770546958595513
1783245520458080800,3.940080810546875,0.28603227958679195,-0.45793110725432634,0.013075900802761315
1783245520468093000,3.950093017578125,0.15098551123738288,-0.5402494711093604,0.05662950358614325
1783245520478103800,3.960103759765625,0.1216921967357397,-0.5433643882595003,0.1609250137105584
1783245520488115700,3.97011572265625,0.1026566568762064,-0.47918841481655833,0.25616744880750775
1783245520498128000,3.9801279296875,0.04987900641262531,-0.4747440026283264,0.2694070157393813
1783245520508139000,3.990138916015625,0.045371758121252055,-0.5355801641240716,0.2041387170150876
1783245520518151000,4.00015087890625,0.011816694521903991,-0.6010439854204654,0.10298837304860353
1783245520528162800,4.010162841796875,-0.04512508988380432,-0.6562472555957735,-0.0033892040468752383
1783245520538174000,4.020174072265625,-0.24867373205125332,-0.7400327693939208,-0.13637626338750122
1783245520548185900,4.030185791015625,-0.5036433493763208,-0.7689715713694691,-0.26041590003222226
1783245520558197800,4.04019775390625,-0.7377595637649297,-0.7437041513830422,-0.31831323159709574
1783245520568209000,4.050208984375,-0.9395721759200095,-0.6515732724353671,-0.27508535363674164
1783245520578220800,4.060220703125,-1.0700251867383719,-0.43015813418775795,-0.07994593563526868
1783245520588232700,4.070232666015625,-1.1098533392578362,-0.21288068026676774,0.14860168484076858
1783245520598243800,4.080243896484375,-1.047829137021303,-0.12369754520878196,0.2912542520187795
1783245520608255700,4.090255859375,-0.9737573541164397,-0.168626381868124,0.2738761239774525
1783245520618267600,4.100267578125,-0.9962462493002414,-0.292497237817198,0.18519728517979384
1783245520628279800,4.11027978515625,-1.202827975553274,-0.39371012562587854,0.03906082140877842
1783245520638291000,4.120291015625,-1.5753367615878582,-0.6180988728567958,-0.17222776736095546
1783245520648302800,4.130302734375,-1.9989894594043491,-0.9010250031217932,-0.44907004766762254
1783245520658315000,4.14031494140625,-2.330746548333764,-1.0690449435293674,-0.7298696872979402
1783245520668326000,4.150325927734375,-2.550259067830443,-1.106711241839826,-1.0174582564160226
1783245520678337800,4.160337890625,-2.6353648704469204,-1.0666842057473958,-1.2915892319373785
1783245520688349700,4.170349609375,-2.564957455268502,-0.9852866099990903,-1.4433692545533179
1783245520698360800,4.18036083984375,-2.235922484779358,-0.8410989422082901,-1.5377875137858092
1783245520708372700,4.190372802734375,-1.6300620389878748,-0.6624629152402282,-1.5542973345600068
1783245520718384600,4.200384521484375,-0.8340268118649721,-0.48237625107243653,-1.4938482726857065
1783245520728396000,4.21039599609375,0.007371990072727203,-0.2998163286589086,-1.4653168824672698
1783245520738408000,4.220407958984375,0.7533131067276001,0.029118104065209625,-1.398614020895213
1783245520748419800,4.230419921875,1.261939505213499,0.28665874092206356,-1.403023507900536
1783245520758430700,4.2404306640625,1.6245102500796318,0.43076355273500083,-1.543563759099692
1783245520768443000,4.25044287109375,1.8601894760012625,0.6815868640355766,-1.6499765536390243
1783245520778454300,4.260454345703125,1.9797364774018524,0.9733248079180717,-1.6348079183407127
1783245520788465200,4.270465087890625,2.097760799279809,1.2478944671176373,-1.6272525345250963
1783245520798477000,4.28047705078125,2.0599860721588135,1.4915220216952263,-1.622545672008395
1783245520808489200,4.2904892578125,1.9031758002907038,1.663540822480619,-1.5392464804224668
1783245520818501000,4.300501220703125,1.663805318635702,1.7687071240901946,-1.3748343552485107
1783245520828512300,4.31051220703125,1.2971516883701086,1.7474141606926916,-1.150644345460087
1783245520838524200,4.320524169921875,0.8309002042770385,1.5654013507679103,-0.9550251811176538
1783245520848536300,4.330536376953125,0.33552082537710665,1.2490101732745766,-0.7806552871614694
1783245520858547200,4.340547119140625,-0.18836510156095027,0.9563888706862926,-0.5921925704449414
1783245520868559000,4.35055908203125,-0.7291618312895297,0.8091033830106258,-0.2056463450990617
1783245520878571300,4.3605712890625,-1.1492431003600359,0.7880155867964029,0.24447774166613817
1783245520888582100,4.37058203125,-1.3906594086289406,0.9114858991205692,0.6505548891730606
1783245520898594000,4.380593994140625,-1.3857190296173094,1.0819333589360118,0.8057144712246954
1783245520908606200,4.390606201171875,-0.9383540323019027,1.2851844794616103,0.824725168903917
1783245520918617300,4.400617431640625,-0.3093418435037136,1.3267571375608442,0.5823515599101782
1783245520928629200,4.410629150390625,0.46217035225927827,1.3585992597624659,0.05062997091040015
1783245520938641400,4.420641357421875,1.0686790328264235,1.3951169725596904,-0.4129303744025528
1783245520948652300,4.43065234375,1.4533008659809827,1.4243933359265326,-0.800779499040544
1783245520958664200,4.440664306640625,1.678292693671584,1.4388693127855658,-1.1512516637034713
1783245520968676000,4.450676025390625,1.5671370885193348,1.460778946776688,-1.4649559402003884
1783245520978687200,4.460687255859375,1.3779460575282574,1.5461705805972217,-1.7268585716590283
1783245520988699100,4.47069921875,1.1531921302467585,1.6658891391724346,-1.8840851692430673
1783245520998711000,4.4807109375,0.8859358628004789,1.7746695396259426,-1.91185054352507
1783245521008722400,4.490722412109375,0.6632207478702068,1.8692255998939276,-1.8750113436885176
1783245521018734300,4.500734375,0.4321002081662416,1.8779475432708859,-1.8282962081342935
1783245521028746200,4.510746337890625,0.2312853748768568,1.8139654849648474,-1.8202520178884267
1783245521038758400,4.52075830078125,0.05508534288406372,1.6594108830690384,-1.8209622119843958
1783245521048769300,4.530769287109375,-0.1254091714322567,1.4850537024639545,-1.7248074843481183
1783245521058781200,4.54078125,-0.30420564965903757,1.3149706920467317,-1.4887667316377162
1783245521068793300,4.55079345703125,-0.38387130704820155,1.107915210802108,-1.142492603186518
1783245521078804200,4.56080419921875,-0.36296003644466396,0.9104984955184161,-0.7517898426830768
1783245521088816000,4.570816162109375,-0.26537995218038557,0.6923541956350207,-0.42776451704949137
1783245521098828300,4.580828369140625,-0.06944821475744246,0.3997817006245255,-0.2149355669699609
1783245521108839200,4.590839111328125,0.0893716433674097,0.1078987953133881,-0.10027516856715082
1783245521118851000,4.60085107421875,0.19410452199578285,-0.13818915802836418,-0.03420432128831744
1783245521128863000,4.610863037109375,0.23444120855927467,-0.29080650825127957,-0.003388327264040708
1783245521138874400,4.620874267578125,0.09528466680347919,-0.43290027250275015,-0.03601473171114921
1783245521148886300,4.63088623046875,-0.13695230970978736,-0.6330309229202569,-0.10694368654564022
1783245521158898200,4.640898193359375,-0.3858446529477835,-0.7661087292842567,-0.23563728647604584
1783245521168909300,4.650909423828125,-0.7033060900211334,-0.8820742189362645,-0.34490547044649716
1783245521178921200,4.660921142578125,-0.9606441900432109,-0.9148450002901256,-0.4771060555845499
1783245521188933000,4.67093310546875,-1.1383990502625703,-0.9322704746045172,-0.5874209721289575
1783245521198944000,4.680944091796875,-1.2171037536650895,-0.8574132404103875,-0.6250010534606874
1783245521208956200,4.6909560546875,-1.066774075987935,-0.6692080055862665,-0.5802012500084937
1783245521218968000,4.700968017578125,-0.7739467294335365,-0.4991957223176956,-0.5216382941417396
1783245521228980200,4.710980224609375,-0.44607671107053753,-0.6007970249220729,-0.5157923445925117
1783245521238991400,4.720991455078125,-0.16669921319782732,-0.7604203083842992,-0.4712782262139022
1783245521249003300,4.731003173828125,0.018522914162278175,-0.78452876759395,-0.36590339642018077
1783245521259015400,4.741015380859375,0.07281681440770625,-0.774884740936011,-0.17968670506477355
1783245521269026300,4.7510263671875,0.15720014796853066,-0.7377975576877593,0.05592661601379514
1783245521279038200,4.7610380859375,0.1736883414328098,-0.6812739986941218,0.32670345880165697
1783245521289050000,4.771050048828125,0.10534779565632342,-0.662659022334218,0.5049032863095403
1783245521299061200,4.781061279296875,0.03400982162952423,-0.7043656820766627,0.6215374690033495
1783245521309073200,4.7910732421875,-0.09717267250716685,-0.7755461274541914,0.7485648892872035
1783245521319085000,4.8010849609375,-0.24356033456027507,-0.7954339002288877,0.8395534663319587
1783245521329096200,4.81109619140625,-0.426467170715332,-0.8027398393280804,0.8744923855051397
1783245521339108400,4.8211083984375,-0.6335428179651499,-0.8109373204395175,0.8459875910326838
1783245521349120300,4.831120361328125,-0.8421616030037402,-0.8322251692704856,0.7757265985876322
1783245521359131100,4.841131103515625,-0.9443453816711902,-0.7725751488193869,0.7267340196207165
1783245521369143300,4.851143310546875,-1.0491998408526182,-0.6563925092853605,0.7052241986021399
1783245521379155200,4.8611552734375,-1.1252566600948573,-0.5773157577000558,0.6901363734550774
1783245521389166000,4.871166015625,-1.0896779817134141,-0.4619530562467873,0.6657476359993219
1783245521399178200,4.88117822265625,-0.9822878665745258,-0.26938699586465953,0.6515329404249787
1783245521409190100,4.891190185546875,-0.8521516666203737,-0.02692030175998807,0.6732489515401423
1783245521419201000,4.901200927734375,-0.672314154908061,0.21684914550632237,0.6797637402616441
1783245521429213200,4.911213134765625,-0.47402854783535003,0.37796047556921836,0.6523039247974753
1783245521439225000,4.92122509765625,-0.24884616600871085,0.4101280303329229,0.581670153517276
1783245521449237000,4.931237060546875,-0.1328688397884369,0.41601986485049125,0.5478774817697704
1783245521459248400,4.941248291015625,-0.19579905095398425,0.46467342112138865,0.5655383722752332
1783245521469260300,4.95126025390625,-0.3131231156080961,0.5669827258646488,0.634356618566066
1783245521479272200,4.961272216796875,-0.40198622493147845,0.7463106806196272,0.6674763594880699
1783245521489283300,4.971283447265625,-0.5218897846847772,0.7653380371727049,0.4805686171285808
1783245521499295200,4.981295166015625,-0.5129939460456371,0.7777759323328733,0.25100246725976466
1783245521509307100,4.99130712890625,-0.4287894761830568,0.8550178697064519,0.05100976400822401
1783245521519318000,5.001318115234375,-0.27948446537852284,0.9397663833178579,-0.1160227727971971
1783245521529330200,5.011330078125,-0.006018237376213074,0.9891631591714918,-0.21262071415632963
1783245521539342000,5.021342041015625,0.32513620948493477,1.0097668251305818,-0.26408815880417824
1783245521549353200,5.031353271484375,0.6109960551142692,0.9844666719183325,-0.30598098876848817
1783245521559365400,5.041365478515625,0.8264747890502214,0.9462313415482639,-0.33396278228014703
1783245521569377300,5.051377197265625,1.0264888273507355,0.9499519695065916,-0.3587676993213594
1783245521579388200,5.06138818359375,1.1778905181735753,0.9852030233688652,-0.3516017532147467
1783245521589400300,5.071400390625,1.1296908431500197,1.0384218417286872,-0.3622195933409035
1783245521599412200,5.081412109375,0.9555664483875036,1.0055413163900375,-0.40962256502881644
1783245521609423000,5.091423095703125,0.6799339822620153,0.9602423312440515,-0.4555485960319638
1783245521619435300,5.101435302734375,0.38820845946967597,0.9235970465444028,-0.47504079361781476
1783245521629447200,5.111447265625,0.13427812206447123,1.0030623590558767,-0.3726971482135355
1783245521639458300,5.121458251953125,-0.08350362811684608,1.0797852409914135,-0.2954031883917749
1783245521649470200,5.13147021484375,-0.2765104180037975,1.0851152038425207,-0.3693946726020425
1783245521659482400,5.141482421875,-0.4764040447950363,1.0025830511063336,-0.5419551059834659
1783245521669494300,5.151494384765625,-0.6946165876090526,0.8119283773034811,-0.7570486399941146
1783245521679505200,5.161505126953125,-0.8643868788152933,0.6196570620842278,-0.9057359572917223
1783245521689517300,5.171517333984375,-1.0493845497697591,0.4391656165078282,-0.9181065593693405
1783245521699529200,5.181529296875,-1.257411214134097,0.30894451474919915,-0.7847705404605716
1783245521709540000,5.1915400390625,-1.4433762688159941,0.18568024639114736,-0.5839467201471329
1783245521719552300,5.20155224609375,-1.552988736179471,0.05972907703667879,-0.32786315023079515
1783245521729564200,5.211564208984375,-1.4888637622714043,-0.039151422301679846,-0.12760573162846267
1783245521739575000,5.221574951171875,-1.3177724515944718,-0.06019216450378299,0.02757182447127998
1783245521749587200,5.231587158203125,-1.0376000039517879,-0.022854367495328185,0.15324622271098196
1783245521759599000,5.24159912109375,-0.6729530373334884,0.007190349895507097,0.24037732060998676
1783245521769610200,5.2516103515625,-0.2605857036411762,0.03753507314622402,0.3707669838685542
1783245521779622400,5.261622314453125,0.13028291494846342,-0.016913579269498585,0.4569202497113496
1783245521789634600,5.271634521484375,0.4683990175157785,-0.13218743339553474,0.42178222776949403
1783245521799645400,5.2816455078125,0.7347288177669048,-0.21060981272533535,0.36002734399363395
1783245521809657300,5.2916572265625,0.9494593636840581,-0.25867680127993226,0.28543869760781526
1783245521819669500,5.30166943359375,1.0716092410594225,-0.25164792555645105,0.20184607603326438
1783245521829680400,5.311680419921875,1.0749006838202475,-0.2334235559493303,0.0963514192521572
1783245521839692300,5.3216923828125,1.1474164694547653,-0.18100377901270984,0.08323365206904709
1783245521849704200,5.3317041015625,1.2046405779331921,-0.0966410498484969,0.05734663887955248
1783245521859716400,5.34171630859375,1.1262105998188257,-0.12613543988019227,-0.07499795783907175
1783245521869727500,5.3517275390625,1.1287211213350294,-0.19112243744507432,-0.19425335588194428
1783245521879739400,5.361739501953125,1.0149760842114686,-0.22920228499248624,-0.15300795697569847
1783245521889751600,5.37175146484375,0.9128004888504743,-0.1936025638230145,-0.1274548519156873
1783245521899762400,5.381762451171875,0.8310667930155992,-0.18951602516174315,-0.136153341351822
1783245521909774300,5.3917744140625,0.7678045734167098,-0.1924799895338714,-0.16301606770567595
1783245521919786500,5.401786376953125,0.7108247950881719,-0.24676088416725395,-0.19871428081355988
1783245521929797400,5.41179736328125,0.6184773507803678,-0.3264182121194899,-0.26455336516313255
1783245521939809300,5.421809326171875,0.5695031842529773,-0.39759515036568044,-0.3022453093715012
1783245521949821400,5.431821533203125,0.4756564412981271,-0.4452988585658371,-0.30064013919718563
1783245521959832300,5.441832275390625,0.31916941003501414,-0.5207537663921713,-0.21546017536595463
1783245521969844200,5.45184423828125,0.1760977406620979,-0.564655598091334,-0.06765453627370298
1783245521979856100,5.461856201171875,-0.003416530445218086,-0.6532549419119954,0.08020429431051015
1783245521989867500,5.471867431640625,-0.1295218674480915,-0.7990861391261219,0.08625438812971115
1783245521999879400,5.48187939453125,-0.2084323225557804,-0.9557507189132273,0.05134104178920388
1783245522009891300,5.491891357421875,-0.16389701525866984,-0.9773755446135998,0.11242898608893155
1783245522019902500,5.50190234375,-0.10616203464865684,-0.9023156274542212,0.15088468121141194
1783245522029914400,5.511914306640625,-0.09745441205799579,-0.8641225287906825,0.1366851832062006
1783245522039926300,5.52192626953125,-0.049589083555340766,-0.8395638415955007,0.01297434012442827
1783245522049937400,5.5319375,-0.052830257433652876,-0.8561609022617339,-0.16457593743354082
1783245522059949300,5.54194921875,-0.2247755545914173,-0.9123185505524277,-0.41158407436013217
1783245522069961200,5.551961181640625,-0.3890864113479852,-0.8886863305523991,-0.5963992283545434
1783245522079973400,5.561973388671875,-0.4803250176310539,-0.7926062755875289,-0.6523262827597558
1783245522089984500,5.571984619140625,-0.5808008233368397,-0.7418756207816303,-0.6479438298918306
1783245522099996400,5.581996337890625,-0.5561854375183582,-0.7694260371387004,-0.6616114129774272
1783245522110008600,5.592008544921875,-0.5765583634614944,-0.8476273210637271,-0.7363968971095979
1783245522120019500,5.60201953125,-0.6692939303040504,-0.9173495304569601,-0.840426595904678
1783245522130031400,5.61203125,-0.7370277423590421,-0.9125456373065709,-0.8863622715190053
1783245522140043300,5.622043212890625,-0.7631167078614235,-0.8294836154773831,-0.7890918377257883
1783245522150054400,5.632054443359375,-0.7887187666296959,-0.6572369972854852,-0.6497193151317536
1783245522160066300,5.64206640625,-0.8376426642745732,-0.5038894330918788,-0.5102313494645059
1783245522170078200,5.652078125,-0.8350877190947532,-0.48660439016148443,-0.489805524290353
1783245522180089600,5.662089599609375,-0.7800614129215478,-0.5193992830432951,-0.47836555412635207
1783245522190101500,5.6721015625,-0.8679600611269473,-0.5122521877676248,-0.3818579213991761
1783245522200113400,5.682113525390625,-1.0643559089303016,-0.43124709846824405,-0.26587723417803644
1783245522210124300,5.692124267578125,-1.1196031643778086,-0.21937091906890271,-0.10573518753871321
1783245522220136400,5.702136474609375,-1.0507026466310023,0.021876170112937687,-0.007807312750071287
1783245522230148400,5.7121484375,-0.8697340850621461,0.25133754443302747,-0.007909896341711282
1783245522240159200,5.7221591796875,-0.6258844121664762,0.4000020653769374,-0.19274696990698575
1783245522250171400,5.73217138671875,-0.27182956671118735,0.5237925495661795,-0.42826662135273214
1783245522260183300,5.742183349609375,-0.12342998031377792,0.571288606365025,-0.6485204607360064
1783245522270194200,5.752194091796875,-0.09216156634688377,0.5201506859324873,-0.7451261470101773
1783245522280206300,5.762206298828125,0.07951368169784545,0.4532695451840758,-0.6701591688312589
1783245522290218200,5.77221826171875,0.23399814096689223,0.36797245777919885,-0.5601267224900424
1783245522300230100,5.782230224609375,0.41586569720208644,0.2185005659751594,-0.47918037764057514
1783245522310241500,5.792241455078125,0.681969287481904,-0.02371054593324661,-0.43908232213854786
1783245522320253400,5.80225341796875,0.7981389214038849,-0.23716508056521415,-0.3250733733817935
1783245522330265300,5.812265380859375,0.7762649432480335,-0.20381021571308372,-0.25222557931393386
1783245522340276500,5.8222763671875,0.6009457857429981,-0.24313202614560722,-0.2988476297572255
1783245522350288400,5.832288330078125,0.2246013670682907,-0.3298030322521925,-0.4501674875155091
1783245522360300300,5.84230029296875,-0.24576632017195224,-0.20428630879223345,-0.5484982440166175
1783245522370311200,5.852311279296875,-0.5768529624938965,0.20053747765272856,-0.4774038694873452
1783245522380323300,5.8623232421875,-0.7653191863417625,0.7342252521589397,-0.2942382362656295
1783245522390335200,5.872335205078125,-0.8865420120000839,1.2055695293463766,-0.029476708244532347
1783245522400346400,5.882346435546875,-1.063458083307743,1.440745774181932,0.16488661081790923
1783245522410358500,5.892358642578125,-1.241875791350007,1.4299942246735096,0.19581877856776117
1783245522420370400,5.902370361328125,-1.3157032441049814,1.2210456231586635,0.2084950125284493
1783245522430381300,5.91238134765625,-1.4262731583237647,0.843135708732903,0.2981288139633834
1783245522440393500,5.9223935546875,-1.5594816053301095,0.5832455861404537,0.30256036667004227
1783245522450405400,5.9324052734375,-1.7024918999046086,0.42973084868639705,0.330261735805124
1783245522460416300,5.942416259765625,-1.82962657995522,0.3016203093409538,0.38155221645087
1783245522470428400,5.952428466796875,-1.7085060456275938,0.285145413749665,0.538239884852618
1783245522480440300,5.9624404296875,-1.3116840715914964,0.3492532903924584,0.5929146011091768
1783245522490451500,5.972451416015625,-0.7676151883244514,0.4999332428120076,0.48584714205339546
1783245522500463400,5.98246337890625,-0.18855857830643652,0.6759624482825398,0.25243571493327616
1783245522510475500,5.9924755859375,0.39122576146423815,0.8117083048120141,-0.07212780923023819
1783245522520487400,6.0024873046875,0.8553221133500337,0.7915816087149083,-0.4334408091202378
1783245522530498300,6.012498291015625,1.2271335647702217,0.6710580173671246,-0.7225140638381242
1783245522540510500,6.022510498046875,1.5154782129526136,0.6065631872333586,-0.91012279407382
1783245522550522400,6.0325224609375,1.5545903261572123,0.5599124952174723,-1.1312057777576148
1783245522560533200,6.042533203125,1.4892249967992306,0.5870549152955412,-1.2127762458547948
1783245522570545400,6.05254541015625,1.254395665705204,0.5655474323645234,-1.3059623329438268
1783245522580557300,6.062557373046875,1.096688737258315,0.551110180080682,-1.291877693489939
1783245522590568200,6.072568115234375,1.0071896681189536,0.5637016583673655,-1.2158387752305715
1783245522600580400,6.082580322265625,0.8404998072713613,0.5322963201478124,-1.0749615471620113
1783245522610592300,6.09259228515625,0.7195832710832357,0.41252369329780336,-0.960856006162986
1783245522620603400,6.102603271484375,0.6426572677910327,0.31595410125032064,-0.859299127222225
1783245522630615600,6.112615478515625,0.5613327372789383,0.28303689716309305,-0.7614563734337687
1783245522640627500,6.12262744140625,0.5469681118398905,0.301088394421339,-0.7254276862625032
1783245522650638300,6.132638427734375,0.6240899299651383,0.3107408966466784,-0.7253546940915286
1783245522660650200,6.142650146484375,0.7557464713543653,0.3271365895219147,-0.6807873842209577
1783245522670662400,6.152662353515625,0.8680530001074075,0.35917861820980906,-0.5928225389115512
1783245522680673300,6.16267333984375,1.0439438200205564,0.3946294324278831,-0.450189991608262
1783245522690685200,6.172685302734375,1.2767828540802002,0.4187530892066657,-0.33870676193684335
1783245522700697300,6.182697265625,1.4856559061408041,0.34377339767664666,-0.2566189919672906
1783245522710708500,6.19270849609375,1.657885865458846,0.21086218005120752,-0.1858735770061612
1783245522720720400,6.202720458984375,1.7226164040446281,0.03218406750708818,-0.1353316497053951
1783245522730732500,6.212732666015625,1.6902824066728352,-0.1712652059391141,-0.052482539974525566
1783245522740744400,6.222744384765625,1.6078174739539621,-0.33198344503119587,0.09482077561877668
1783245522750755300,6.23275537109375,1.4843389783233403,-0.48605318601951,0.2648351777791977
1783245522760767500,6.242767578125,1.3241437401920557,-0.5914822302184999,0.4221203006174415
1783245522770779400,6.252779296875,1.0736720188081263,-0.698467125557363,0.6276829129558056
1783245522780791000,6.262791015625,0.7722907789200544,-0.8590022631675004,0.719107543330267
1783245522790803200,6.27280322265625,0.4771966564774513,-1.054184205136448,0.6919346550486981
1783245522800815000,6.282815185546875,0.20739421167969702,-1.2683083095930516,0.6182495333738625
1783245522810826000,6.292825927734375,-0.05929565405547618,-1.3382308638639748,0.5182424411583691
1783245522820838000,6.302837890625,-0.32967502195835113,-1.3651076187431812,0.4241678077317774
1783245522830850000,6.31285009765625,-0.6204933667778968,-1.3910266345061362,0.33082229229733345
1783245522840861200,6.322861083984375,-0.8909481380045413,-1.4766205129005014,0.2446797670442611
1783245522850873000,6.332873046875,-1.0776894377559423,-1.5233981922969222,0.14308189850598574
1783245522860885200,6.34288525390625,-1.2429811222434044,-1.522897695428878,0.163324183806777
1783245522870896000,6.352896240234375,-1.37465870642066,-1.426491623380035,0.20530008894465862
1783245522880908000,6.362907958984375,-1.5752654499173164,-1.335417852269858,0.1487545373149216
1783245522890920200,6.372920166015625,-1.7519670016914606,-1.2059174660012126,0.01311097211614251
1783245522900931000,6.38293115234375,-1.7494015351176262,-1.0788751404091714,-0.07462780935242772
1783245522910943000,6.39294287109375,-1.576782284221053,-0.8565678756274282,-0.13287855746485291
1783245522920955100,6.402955078125,-1.3215817807495593,-0.5880034481920302,-0.17310674215257166
1783245522930966000,6.412966064453125,-1.0069044214367866,-0.31823578244671225,-0.18051124625541268
1783245522940978200,6.422978271484375,-0.7979735017091035,-0.0529891012571752,-0.2891890631172806
1783245522950990000,6.432989990234375,-0.7563058588027953,0.05370557896345853,-0.5113588921897113
1783245522961001200,6.443001220703125,-0.8663912043750286,0.12560147913396358,-0.8222273607388139
1783245522971013000,6.45301318359375,-1.048890628772974,0.20454072194471953,-1.038884783065319
1783245522981025000,6.46302490234375,-1.1883674885243176,0.33750513106212016,-1.0732589079625905
1783245522991037200,6.473037109375,-1.3338625856518744,0.3928808351948857,-1.0126021216217427
1783245523001048000,6.483048095703125,-1.0788017829120158,0.21984730440899727,-0.8862233014397323
1783245523011060000,6.49306005859375,-0.6952455331623554,-0.02095321004912257,-0.7823368105076253
1783245523021072100,6.503072021484375,-0.5226239441782236,-0.0017835224159061908,-0.5953318548513576
1783245523031083000,6.5130830078125,-0.4519517405837774,0.1584615462064743,-0.4878353201959282
1783245523041095000,6.523094970703125,-0.5555915632784366,0.5055043209426104,-0.5149399655468762
1783245523051107000,6.533107177734375,-0.7474702259182929,0.9068031481318175,-0.480176366407983
1783245523061118200,6.5431181640625,-0.48952013147771356,1.1721893839225173,-0.49259219586681574
1783245523071130000,6.553130126953125,0.12473872482478618,1.2851209127061067,-0.5127576165391132
1783245523081142300,6.563142333984375,0.5553922413140535,1.27545891200006,-0.5737468862373382
1783245523091153200,6.573153076171875,0.7694488334923982,1.1405796091720461,-0.5914516889497637
1783245523101165000,6.5831650390625,0.9252911371111869,1.003795495636016,-0.5166637936647981
1783245523111177000,6.593177001953125,1.06579500182271,0.9957672336116432,-0.21877467020880428
1783245523121188000,6.60318798828125,1.2579103958278894,1.0309012369655073,0.10782532821837812
1783245523131200000,6.613199951171875,1.2860475260317326,1.0460188727289437,0.3208885985104367
1783245523141212000,6.6232119140625,1.0582803884088992,1.0633610526740551,0.47905412091240285
1783245523151223300,6.633223388671875,0.7154606381952762,1.0040424561344086,0.5030350082196295
1783245523161235200,6.643235107421875,0.36519466362893577,0.9009458004057407,0.47391076667457815
1783245523171247000,6.6532470703125,-0.08335866668820381,0.7704200166121125,0.4652419417243451
1783245523181258000,6.663258056640625,-0.6335737976253032,0.587880698595196,0.5565533940479159
1783245523191270100,6.673270263671875,-1.0467167918652296,0.4581267759568989,0.7973037857539952
1783245523201282000,6.683281982421875,-1.263992930611968,0.4192429185502231,1.1691137028042227
1783245523211294200,6.693294189453125,-1.2986030562222004,0.37766938366815445,1.516216902490705
1783245523221305000,6.70330517578125,-1.122511745300889,0.3138765643239021,1.5797864344730972
1783245523231317000,6.71331689453125,-0.9099614660322666,0.25845804396271704,1.408601600293815
1783245523241329200,6.7233291015625,-0.8136322586119175,0.21522665887102482,1.2102897628013043
1783245523251340000,6.733340087890625,-0.8414280280321836,0.1913242436274886,0.9370566859677434
1783245523261352000,6.74335205078125,-0.7091448791772127,0.23116744758561253,0.6704717419117688
1783245523271364000,6.753364013671875,-0.41879122925996776,0.32412659405097366,0.3937717926852405
1783245523281375200,6.763375244140625,-0.18517711917459964,0.3024202275469899,0.17631423295699059
1783245523291387100,6.77338720703125,0.02560848850905895,0.2689749809976667,0.012526048367656766
1783245523301399000,6.78339892578125,0.30288872184157367,0.29418131844662126,-0.14113821709230542
1783245523311410200,6.79341015625,0.5621715261906385,0.3478382359627634,-0.2648486583152786
1783245523321422000,6.803422119140625,0.6666688424974679,0.3390442502629012,-0.3274465687865391
1783245523331434000,6.81343408203125,0.5444786331117153,0.3397492567270994,-0.23130733098033815
1783245523341444900,6.82344482421875,0.4928068980634212,0.4592042689952999,0.020636910641565916
1783245523351457000,6.83345703125,0.5388403349637985,0.48728879222907123,0.2644458131354302
1783245523361469000,6.843468994140625,0.5294792169004678,0.3815283971838653,0.4143553291717544
1783245523371480000,6.85347998046875,0.5520867700278759,0.13213000411987305,0.41947767715416845
1783245523381492200,6.8634921875,0.6136515380591153,-0.17869805935360492,0.33187523541636765
1783245523391504100,6.873504150390625,0.75911331743896,-0.4002607893783599,0.2788077716933563
1783245523401515000,6.883514892578125,0.8432277709305286,-0.4953430654775351,0.32524715904612095
1783245523411527200,6.893527099609375,0.8264134142518043,-0.4838012423742562,0.35533074714262036
1783245523421539000,6.9035390625,0.7892097650170325,-0.4717684939488768,0.3210465290185064
1783245523431551000,6.913551025390625,0.6655149962872267,-0.5202176136888563,0.24904176164604722
1783245523441562000,6.92356201171875,0.5168915380060672,-0.5897711885169148,0.21475611874982714
1783245523451574000,6.933573974609375,0.3959726637303829,-0.6145102737803012,0.2565142894838005
1783245523461586000,6.9435859375,0.21396365319788455,-0.6827640911214053,0.31573359036743637
1783245523471597300,6.953597412109375,0.018486673805117607,-0.7830483197778463,0.4387790283430367
1783245523481609200,6.963609130859375,-0.06084931323826313,-0.9074312169022858,0.5637540461417287
1783245523491621000,6.97362109375,-0.09388649044334887,-1.0181894933000206,0.7340881817758083
1783245523501632000,6.983632080078125,-0.05088964475989342,-1.0773699965432286,0.8883568063370882
1783245523511644200,6.99364404296875,0.10420447084009647,-1.0993812642779202,0.9277914294943213
1783245523521656000,7.003656005859375,0.22409458658993242,-1.0628277495149523,0.8192357777073979
1783245523531667000,7.0136669921875,0.4133078294128179,-0.8583684953086078,0.6835158593367785
1783245523541679000,7.02367919921875,0.6693377694457769,-0.5869738128833473,0.6094955874234438
1783245523551691000,7.03369091796875,0.8553519239664077,-0.31417496274858714,0.5323136366087943
1783245523561702000,7.043701904296875,0.8937813156038522,-0.21278036169745027,0.4135789014391601
1783245523571714000,7.053714111328125,0.826689893105626,-0.1896721655715257,0.2744485170379281
1783245523581726000,7.063725830078125,0.5695628054857254,-0.18024981884025038,0.2687798237517476
1783245523591737000,7.073737060546875,0.2856505867928266,-0.1280022566653788,0.32494821263216433
1783245523601749200,7.083749267578125,-0.08863456126451492,-0.08722235637903213,0.38949031597375866
1783245523611761200,7.09376123046875,-0.4895610480099916,-0.10222213791646063,0.42971199785545466
1783245523621772000,7.10377197265625,-0.8038783418387174,-0.12212386615127324,0.4035647993598133
1783245523631784000,7.113783935546875,-0.8911731789320707,0.025955986772477624,0.5384802694797516
1783245523641796000,7.123796142578125,-0.9254548032402992,0.38679114001765846,0.87039810192883
1783245523651807000,7.133806884765625,-0.9794687175005674,0.5712850992336869,1.1153857658784836
1783245523661819000,7.14381884765625,-1.0134294392913579,0.565324802589789,1.1474941378008574
1783245523671831000,7.1538310546875,-1.0130740499824284,0.44550037248730656,1.0848851214136928
1783245523681842200,7.16384228515625,-1.177441605362296,0.3189760794200003,1.0902434335764497
1783245523691854000,7.17385400390625,-1.466116508412361,0.29008937295787035,1.1587504950262606
1783245523701866200,7.1838662109375,-1.7004834826916455,0.33901655853837726,1.2220784733377397
1783245523711878100,7.193878173828125,-1.735233309033513,0.33896460915543136,1.2340338456779718
1783245523721889000,7.203888916015625,-1.710551872241497,0.32206016304045915,1.1793670204669235
1783245523731901200,7.213901123046875,-1.678576186788082,0.28481939666569234,0.9995235904704779
1783245523741913000,7.2239130859375,-1.5150935975492,0.19099924945682287,0.6368957816548645
1783245523751924000,7.233924072265625,-1.3037147001475096,0.06254172330461442,0.285888121875748
1783245523761936100,7.24393603515625,-1.1292875230461359,-0.0741551503393799,-0.027534415070340035
1783245523771948000,7.253947998046875,-0.9783458509504794,-0.25425153218358754,-0.27998795792125164
1783245523781958400,7.26395849609375,-0.8579705820322037,-0.41973355161137876,-0.5532539141111076
1783245523791970300,7.27397021484375,-0.6575777735471725,-0.4242770402599126,-0.7310369044464081
1783245523801982200,7.283982177734375,-0.5006026665061712,-0.2381768148910254,-0.664904463173449
1783245523811993300,7.293993408203125,-0.41138241430819034,-0.056572293506190176,-0.9056959175422787
1783245523822005200,7.304005126953125,-0.11098141762912273,0.20942418313734232,-1.154650073970109
1783245523832017200,7.31401708984375,0.1904588589698076,0.5471894995056092,-1.1525237294659019
1783245523842028000,7.324028076171875,0.43778526806533336,0.9191590640969574,-0.9120472593303769
1783245523852040200,7.334040283203125,0.641577071338892,1.1912488161142916,-0.5280872510854154
1783245523862052000,7.344052001953125,0.9047223963350057,1.3454871186025439,-0.036654783180356025
1783245523872063200,7.354063232421875,1.206492927801609,1.5339901673294603,0.5833208068011329
1783245523882075400,7.364075439453125,1.4593173497915266,1.5258625365838407,1.2341501655340195
1783245523892087300,7.37408740234375,1.3210714931398628,1.23912371616289,1.6882858260281384
1783245523902098200,7.38409814453125,0.9796002349257469,0.9733489925112575,1.9469453839123247
1783245523912110300,7.3941103515625,0.5283423218250274,0.837095697916299,2.0391797232344744
1783245523922122200,7.404122314453125,-0.15640110654532907,0.7021045322116464,1.8593620852664112
1783245523932133000,7.414133056640625,-0.7585194431990384,0.5863407756768166,1.5409458316862583
1783245523942145300,7.424145263671875,-0.9227718477666378,0.5124120545044542,1.2114460201643407
1783245523952157200,7.4341572265625,-0.8535007431417703,0.5138807388175278,0.9570900046929717
1783245523962169000,7.444169189453125,-0.7410942611455917,0.5870337994422763,0.8219868299812078
1783245523972180200,7.45418017578125,-0.37602819233238693,0.7337970168095082,0.7970720228247344
1783245523982192400,7.4641923828125,0.0395575188845396,0.7438024241257458,0.6665458006396889
1783245523992204300,7.474204345703125,0.2916378445088863,0.5769687708932906,0.3257010768260807
1783245524002215200,7.484215087890625,0.5061678994178772,0.39747181624695654,-0.03411236868854612
1783245524012227300,7.494227294921875,0.7314426357030868,0.25850524410530923,-0.18894129401370882
1783245524022239200,7.5042392578125,0.9374673125952482,0.23529161484353242,-0.1984518304850906
1783245524032250000,7.51425,1.0733733281224966,0.2225045409195125,-0.16147150514479724
1783245524042262300,7.52426220703125,1.1638006180226803,0.20843049592487511,-0.15377707818467168
1783245524052274200,7.534274169921875,1.2064105102151632,0.16860921153761446,-0.12261274564675986
1783245524062285300,7.544285400390625,1.2368150008291006,0.15028028557747602,-0.09379121337532996
1783245524072297200,7.554297119140625,1.105303420868516,0.08165770798921584,-0.09764039961677044
1783245524082309000,7.56430908203125,1.0544242975026368,0.035081469449028374,0.06895904300101101
1783245524092320300,7.5743203125,1.0383598824083804,0.06272577463462949,0.2694562251759693
1783245524102332400,7.58433251953125,1.0345838710010051,0.0233587368208915,0.459866934155114
1783245524112344300,7.59434423828125,0.9901151991993188,-0.10602686396166681,0.5588168454678729
1783245524122355200,7.604355224609375,0.9402303475677967,-0.27959574373327195,0.5706906039392575
1783245524132367000,7.6143671875,0.9729653269559144,-0.3650171151049435,0.5788497623343021
1783245524142379300,7.624379150390625,1.015788569638133,-0.3409112131785601,0.5618121182937175
1783245524152390100,7.63439013671875,0.997172131973505,-0.31182408877350387,0.4627701447833329
1783245524162402000,7.644402099609375,1.0228162763178348,-0.32090244437269866,0.32092757881395517
1783245524172414200,7.654414306640625,1.0566758758217096,-0.29383396631367503,0.25704587560985237
1783245524182425300,7.66442529296875,0.9138596425145864,-0.3622215661022812,0.23760953639708457
1783245524192437200,7.674437255859375,0.8938403523147106,-0.4009034711960703,0.2099311828114092
1783245524202449400,7.684449462890625,0.8551438341736793,-0.4940650814309716,0.18740721631422638
1783245524212461300,7.69446142578125,0.8127180663764476,-0.597927095508948,0.2189239059537649
1783245524222472200,7.70447216796875,0.8528945939421654,-0.6725778473455458,0.23565555278509853
1783245524232484400,7.714484375,0.9071025694698095,-0.6850754368036985,0.21727378239287062
1783245524242496300,7.724496337890625,0.8725643400520086,-0.7011320339176803,0.14714098290475083
1783245524252507100,7.734507080078125,0.7010679557055235,-0.7412473328154534,0.0879742707248777
1783245524262519300,7.744519287109375,0.4274304627895355,-0.7414739081129431,0.08194483610121533
1783245524272531200,7.75453125,0.15559212825000285,-0.7286021515801548,0.11419267129320651
1783245524282542300,7.764542236328125,-0.195282918125391,-0.6787712220929563,0.19751011092187837
1783245524292554200,7.77455419921875,-0.4735065697878599,-0.6615799218606203,0.3402989630317315
1783245524302566400,7.78456640625,-0.6374205361813307,-0.7261986706349999,0.4039858743160963
1783245524312577300,7.794577392578125,-0.6702537152469158,-0.8357766512069851,0.43023328178320075
1783245524322589200,7.804589111328125,-0.6918371860235929,-0.9599607378236948,0.4186540858116001
1783245524332601300,7.814601318359375,-0.7758440874874591,-1.0040546580288559,0.39039994163196534
1783245524342612200,7.8246123046875,-0.9708762457221746,-1.0258789518240838,0.3827274707753211
1783245524352624000,7.8346240234375,-1.3589935197770595,-1.0737482258494944,0.37197175654843445
1783245524362636300,7.84463623046875,-1.849556438305974,-1.0759652443118393,0.40637393849641085
1783245524372647200,7.854647216796875,-2.290510399535298,-0.9709938076872378,0.579797601111047
1783245524382659000,7.8646591796875,-2.7236411197930575,-0.8210887120977044,0.7240009413950145
1783245524392671200,7.874671142578125,-3.017037206146121,-0.6794839734721928,0.8202019923910499
1783245524402682400,7.884682373046875,-3.003245996680856,-0.5284037696886807,0.8810716908302157
1783245524412694300,7.8946943359375,-2.759808411717415,-0.4244906099453568,0.9071916359927504
1783245524422706200,7.9047060546875,-2.40852420001924,-0.36914924647361036,0.7822248745657503
1783245524432717300,7.91471728515625,-1.9579940166711807,-0.3772659174337983,0.5165617580624297
1783245524442729200,7.924729248046875,-1.4934639495432376,-0.3315609087701887,0.3495930072082206
1783245524452741000,7.9347412109375,-1.3187854280292988,-0.24927367070578038,0.14974362141750752
1783245524462752300,7.944752197265625,-1.201626783069968,-0.2149590939760208,-0.017060403861664235
1783245524472764200,7.95476416015625,-0.8899474365293979,-0.059533627529814837,0.018860329423099755
1783245524482776000,7.964776123046875,-0.6613011779844761,0.13124123858660458,0.167719057764858
1783245524492788200,7.974788330078125,-0.29634090763330456,0.18802147575505077,0.2605559660900384
1783245524502799400,7.98479931640625,0.20663491774499415,0.207391435200721,0.37519864617306736
1783245524512811300,7.994811279296875,0.7062631862610578,0.28051746168807146,0.5213049340015277
1783245524522823400,8.004823486328124,1.0766197626978158,0.41407501439303157,0.5003369647746906
1783245524532834300,8.014834228515625,1.3485849384874105,0.44583223479017614,0.23094090882074086
1783245524542846200,8.02484619140625,1.6303724201112986,0.3984204952739179,-0.06513460760833695
1783245524552858400,8.0348583984375,1.8434815023064612,0.5888762124385685,-0.252876152177155
1783245524562869200,8.044869140625,1.9462690920859573,0.9686736941765993,-0.3135914637722075
1783245524572881200,8.054881103515624,1.9393378315180538,1.2044573303207755,-0.4921563982654363
1783245524582893000,8.06489306640625,1.6998738263607025,1.4229264782443642,-0.6007191739128902
1783245524592904400,8.074904541015625,1.2401684029102324,1.625658543331921,-0.6438983538933097
1783245524602916400,8.084916259765626,1.1087485928863285,1.5583613691285252,-0.8124260976925491
1783245524612928300,8.09492822265625,1.1167454368591307,1.3384744633615016,-0.8346605066586286
1783245524622939400,8.104939453125,1.0991665255486964,1.1708518517084419,-0.6604583704847842
1783245524632951300,8.114951416015625,0.9146563458502293,1.0850212419487535,-0.38958815032504496
1783245524642963200,8.124963134765625,0.4429033417314291,0.9168380738034844,-0.18072583885416388
1783245524652974000,8.13497412109375,-0.07188333294987678,0.7984512752886861,0.027419994910433888
1783245524662986200,8.144986328125,-0.7137848139375448,0.696094478141889,0.08752754987068474
