time,seconds_elapsed,z,y,x
1783245508264142300,0.070142333984375,-0.36982875317037106,-0.6324234585464,-0.62229661680758
1783245508274154200,0.080154296875,-0.16566577849686145,-0.6988657694861292,-0.7277262455284595
1783245508284165400,0.090165283203125,-0.011018822142481803,-0.7582287166241556,-0.7803968554209917
1783245508294177300,0.10017724609375,0.17087679114341736,-0.7344657098513097,-0.7164622895184903
1783245508304189200,0.110189208984375,0.30922143199443813,-0.7803242285761982,-0.5379230009231716
1783245508314200300,0.120200439453125,0.3409095326781273,-0.8271081185176968,-0.3040896220639348
1783245508324212200,0.130212158203125,0.29028701442182064,-0.9101078157003969,-0.2651186708956957
1783245508334224100,0.14022412109375,0.2680529707819223,-0.9727461312472819,-0.31251017134152353
1783245508344235300,0.1502353515625,0.29089608623087404,-0.9724513130191713,-0.3994629900641739
1783245508354247400,0.160247314453125,0.24950842930972575,-0.9133035430017858,-0.4141494678687304
1783245508364259300,0.17025927734375,0.16595687039792537,-0.8637075913142412,-0.4361267602685839
1783245508374270200,0.180270263671875,0.08233166172802447,-0.8779541433315724,-0.38815351441204543
1783245508384282400,0.190282470703125,0.0030558804392814636,-0.8845282610248774,-0.27404198206365105
1783245508394294300,0.200294189453125,-0.0005161328285932541,-0.8608791629552841,-0.13660240029357373
1783245508404305200,0.21030517578125,-0.02369067218899727,-0.8528551387146115,-0.04750833175852894
1783245508414317300,0.2203173828125,-0.09632160863578319,-0.8723039355501532,0.05130195188783109
1783245508424329200,0.2303291015625,-0.09554010286927223,-0.9096796534162014,0.12247552913315593
1783245508434340400,0.24034033203125,-0.16149930646717547,-0.9744495010990649,0.15067081926502288
1783245508444352500,0.2503525390625,-0.19171265842318533,-0.978091656993702,0.1474974499259144
1783245508454364400,0.260364501953125,-0.1901291886240244,-0.9335941974889487,0.20340528817400336
1783245508464375300,0.270375244140625,-0.2801139954537153,-0.864591607607156,0.263244182260707
1783245508474387500,0.280387451171875,-0.4124783928513527,-0.7914239339351654,0.3051962681315839
1783245508484399400,0.2903994140625,-0.6101297936737538,-0.7161741932921111,0.2970183685034513
1783245508494410200,0.30041015625,-0.7295645668715238,-0.7358396285530179,0.1705659716285765
1783245508504422100,0.310422119140625,-0.7898708592742681,-0.8186055900450795,0.08315072302594781
1783245508514433300,0.320433349609375,-0.7882312753736972,-0.8364004091285169,0.05867796054854989
1783245508524445200,0.330445068359375,-0.7587287020355462,-0.817920238129422,0.04799640753641724
1783245508534457000,0.34045703125,-0.8047615544140339,-0.7351691819455474,0.11788315984159707
1783245508544469200,0.35046923828125,-0.8984837942063808,-0.5636994298776611,0.2830089862428605
1783245508554480400,0.36048046875,-1.0332219349980354,-0.33557964289225634,0.4865354165785014
1783245508564492300,0.3704921875,-1.2401157959401607,-0.20650464242883027,0.6502908314093947
1783245508574504400,0.38050439453125,-1.5591197862803936,-0.24654095780625937,0.7741435671798884
1783245508584515300,0.390515380859375,-1.8531699526280163,-0.44120318675003944,0.7629274688996374
1783245508594527200,0.40052734375,-1.999032714024186,-0.611032368536666,0.703358258599788
1783245508604539400,0.410539306640625,-1.9956173526227472,-0.6548514173232018,0.5593433170273899
1783245508614550300,0.42055029296875,-1.8195225345700978,-0.5384478285148739,0.3996275329761207
1783245508624562200,0.430562255859375,-1.398424197411537,-0.34226116648279126,0.2175738065190613
1783245508634574000,0.440573974609375,-0.8735118500351905,-0.21637378307953475,-0.07143515079095959
1783245508644585500,0.45058544921875,-0.3253109815299511,-0.15692944126836955,-0.43437195249050853
1783245508654597400,0.460597412109375,0.05353635987639427,-0.12116079327277839,-0.629963498173654
1783245508664608300,0.470608154296875,0.31563129903674125,-0.23257124996893105,-0.6998962815776467
1783245508674620400,0.480620361328125,0.6476069991528988,-0.4408041044298559,-0.7786478928618132
1783245508684632300,0.49063232421875,0.9331447732210159,-0.5167504490349442,-0.7551726169891655
1783245508694644200,0.500644287109375,1.0318225895941258,-0.3988300989881158,-0.5221301693119108
1783245508704655400,0.5106552734375,1.0630915880829095,-0.19730777501650154,-0.2204597372189164
1783245508714667300,0.520667236328125,0.8293646652728318,-0.09627404316700994,-0.14116802770867942
1783245508724679200,0.53067919921875,0.42071839793026444,-0.08859897849448024,-0.11766849417760968
1783245508734690300,0.540690185546875,0.2971697596728802,0.11468925917111336,-0.04808306290656328
1783245508744702500,0.550702392578125,0.32417350193262096,0.4560062766715884,0.029340222383290527
1783245508754714400,0.56071435546875,0.4177770837813616,0.7711945081159473,0.24867387818172573
1783245508764725200,0.570725341796875,0.5332061284691095,1.0020683795824645,0.37351109494492407
1783245508774736600,0.580736572265625,0.5139221668064594,1.0769907879672944,0.45841129198670383
1783245508784747500,0.59074755859375,0.23843700019717215,1.0304252900168298,0.3944632820807397
1783245508794759400,0.600759521484375,-0.12946692239046095,0.9691904845923185,0.4071899310544133
1783245508804771600,0.610771484375,-0.33522914895415307,0.7543827817857265,0.47788770748153325
1783245508814782700,0.62078271484375,-0.5343009379684924,0.5516080466002226,0.4562026760265231
1783245508824794600,0.630794677734375,-0.5651058260768652,0.39296412956416604,0.3467306400470435
1783245508834806800,0.640806884765625,-0.3966261592030525,0.3290525061458349,0.3585819674909115
1783245508844818700,0.650818603515625,-0.2618792505830526,0.4255895110979676,0.40102147155255075
1783245508854829600,0.66082958984375,-0.039925183153152466,0.5946349951609968,0.42080271521285173
1783245508864841700,0.670841796875,0.26675299409925934,0.6847527807205915,0.41428237353339786
1783245508874853600,0.680853515625,0.595414455100894,0.810805803014338,0.2785308179154992
1783245508884864500,0.690864501953125,0.7495400179296732,0.7353156777441501,0.18027941026091573
1783245508894876400,0.70087646484375,0.7748276039212941,0.6933113502293825,0.10854907591566443
1783245508904887600,0.710887451171875,0.8711264162033796,0.7035561192594468,0.0369550813011825
1783245508914899700,0.720899658203125,0.912526932606101,0.7039749291934072,0.025620471207797525
1783245508924911600,0.73091162109375,0.7316974872469901,0.6362282576568424,-0.057252457790076726
1783245508934922800,0.7409228515625,0.6166892983198166,0.5689183701023459,-0.1540660877265036
1783245508944934700,0.7509345703125,0.6379939521551132,0.5983399871587753,-0.11651873962059617
1783245508954946600,0.760946533203125,0.7874655516982078,0.666595046608895,-0.008902268379926682
1783245508964957400,0.77095751953125,0.9481003502905369,0.6959972283124923,0.03790376032814383
1783245508974969600,0.780969482421875,1.0850006375521422,0.6739211517132818,-0.05831336501985788
1783245508984981500,0.7909814453125,1.203747428485751,0.6300256036244333,-0.1654068352997303
1783245508994993700,0.80099365234375,1.3064455864161253,0.5821187740676105,-0.21616905428767202
1783245509005004500,0.811004638671875,1.3883528852522373,0.5862513438276946,-0.2786139661543071
1783245509015016400,0.821016357421875,1.5183072988986968,0.5822692884542048,-0.285211610853672
1783245509025028400,0.8310283203125,1.6103502073019742,0.5124450799912214,-0.3390698961608112
1783245509035039700,0.841039794921875,1.6135627396076917,0.40552492045164107,-0.3587887421093881
1783245509045051600,0.8510517578125,1.4898147793859242,0.2714024273402989,-0.42234249200075863
1783245509055062500,0.8610625,1.3824199880719183,0.20224632739722728,-0.46524113800674677
1783245509065074700,0.87107470703125,1.2390075424373148,0.18064575935527682,-0.47357057493478055
1783245509075086600,0.881086669921875,1.0819213762372732,0.1331748369976878,-0.4365994192816317
1783245509085097500,0.891097412109375,0.8803466644912957,-0.0110842885941267,-0.43509588285088535
1783245509095109600,0.901109619140625,0.6492132653057575,-0.238090378716588,-0.5016131587229669
1783245509105121500,0.91112158203125,0.4388426681637764,-0.4681343752302229,-0.46992213542982936
1783245509115132700,0.921132568359375,0.22343115424513815,-0.6269745454907417,-0.3825979261115193
1783245509125144600,0.93114453125,0.05532850399017333,-0.7540712316185235,-0.30726649853438137
1783245509135156700,0.94115673828125,-0.04814706805348396,-0.9450020920142531,-0.328784648989886
1783245509145168600,0.951168701171875,-0.16251929716467856,-1.1612551713235675,-0.4008312096774578
1783245509155179500,0.961179443359375,-0.2591846046715975,-1.3380385561622679,-0.49076253275424236
1783245509165191700,0.971191650390625,-0.39467444061338897,-1.5046939302183686,-0.5507596130773424
1783245509175202600,0.98120263671875,-0.5085305368959904,-1.6639428274102508,-0.6250764567844569
1783245509185214500,0.99121435546875,-0.6199351483732461,-1.8069107441477477,-0.6865098535209894
1783245509195226600,1.0012265625,-0.7553700392574071,-1.9937102038271723,-0.7243288581751287
1783245509205237500,1.011237548828125,-0.8150625836759805,-2.0768127037972213,-0.7071586737960577
1783245509215249700,1.021249755859375,-0.923854966828227,-2.078692818455398,-0.5557562523208558
1783245509225261600,1.031261474609375,-0.9476029221624136,-2.115252762959152,-0.3503953000344336
1783245509235272700,1.041272705078125,-0.9203069189578295,-2.1557551614783703,-0.16900222944319246
1783245509245284600,1.05128466796875,-0.9394050026595592,-2.171429846602678,-0.0754411715619266
1783245509255296500,1.061296630859375,-0.9994050055921078,-2.1271002910107373,-0.04298135585337877
1783245509265307600,1.0713076171875,-1.0835141983866692,-1.9669452387593684,-0.05324731380194425
1783245509275319600,1.081319580078125,-1.1184949108749627,-1.7986704468078911,0.008076046688854694
1783245509285331500,1.09133154296875,-1.2877373788148163,-1.6018446831546722,0.05961597205102443
1783245509295342600,1.101342529296875,-1.547572556349635,-1.4321014260858296,-0.016829992639273404
1783245509305354500,1.1113544921875,-1.6593208666980266,-1.380847478058189,-0.13141527997925878
1783245509315366400,1.121366455078125,-1.6282313164293765,-1.3425560335867106,-0.11926204697936772
1783245509325377500,1.13137744140625,-1.5656903968423603,-1.2289701325476168,0.10101605006232857
1783245509335389700,1.1413896484375,-1.4726047013878822,-0.9624461248986422,0.4529394364468753
1783245509345401600,1.151401611328125,-1.301371351891756,-0.6885159326463938,0.7467886733949184
1783245509355412500,1.16141259765625,-1.1671166107028723,-0.4375608116596937,0.7887313338503241
1783245509365424600,1.171424560546875,-1.1767512850105761,-0.4370731742732227,0.45528833766058086
1783245509375436500,1.1814365234375,-1.258345864635706,-0.7282851945854723,-0.10650120347514748
1783245509385447400,1.191447509765625,-1.3122452126055955,-1.0357904703117906,-0.7400432907879352
1783245509395459600,1.20145947265625,-1.4357400748491287,-1.2349945074036717,-1.156295503089577
1783245509405471500,1.211471435546875,-1.524681510105729,-1.154925237649679,-1.1442772946462034
1783245509415482600,1.221482666015625,-1.4861340450465679,-0.7239248074188828,-0.8631387784503399
1783245509425494800,1.231494873046875,-1.3218635203003883,-0.15982874290645122,-0.4501227715909481
1783245509435506700,1.241506591796875,-0.9842150352448225,0.3214925922855735,-0.05560717480108142
1783245509445517600,1.251517578125,-0.47860652327537534,0.7434320564433932,0.32402138011083004
1783245509455529700,1.26152978515625,0.01089607254564762,1.0687830777227878,0.6238913386531174
1783245509465541600,1.271541748046875,0.49181788702607154,1.3269807171836494,0.8180392613992095
1783245509475552500,1.281552490234375,1.0303548551291226,1.559577759180963,0.8533734635002911
1783245509485564400,1.291564453125,1.5346172131866216,1.693265221875906,0.6426404627867043
1783245509495576600,1.30157666015625,1.8667624246507881,1.6275713912159204,0.35629677916318175
1783245509505587500,1.31158740234375,2.106384835240245,1.553620896603167,0.08567775728553532
1783245509515599600,1.321599609375,2.1563918519467116,1.5838260652527212,-0.17378040363043545
1783245509525611500,1.331611572265625,2.1091209822058676,1.6313196378335355,-0.31127778000235556
1783245509535622700,1.34162255859375,2.111028277131915,1.5871993410781025,-0.3960045201733708
1783245509545634600,1.351634521484375,1.8615981737554073,1.4266355618953703,-0.5618638484809547
1783245509555646700,1.361646728515625,1.4797019661724566,1.280113752068579,-0.7769780599534512
1783245509565657600,1.37165771484375,1.026275476861,1.2944751626372337,-0.7112929971218108
1783245509575669500,1.38166943359375,0.6070809274971485,1.5177885357215999,-0.5459351155303418
1783245509585681700,1.391681640625,0.372850146818161,1.7444605715841053,-0.4209869126733392
1783245509595692500,1.401692626953125,0.2812836237549782,1.8728312231704591,-0.3809425601199269
1783245509605704400,1.411704345703125,0.3318032661587,1.8520581919938324,-0.4775030920781195
1783245509615716600,1.421716552734375,0.2787017905682325,1.6570429848939179,-0.7469146378621458
1783245509625727700,1.431727783203125,0.0038221886366605756,1.394530112582445,-0.951231341792643
1783245509635739600,1.44173974609375,-0.21872575303316116,1.2164093416601418,-1.0101593315795063
1783245509645751600,1.45175146484375,-0.456048069986701,1.1160095238000154,-1.0080560756899415
1783245509655762700,1.4617626953125,-0.6709943044811487,0.9893281404748558,-0.9299800986450165
1783245509665774600,1.471774658203125,-0.7563754169076681,0.8790382122412324,-0.8049960938222706
1783245509675786500,1.481786376953125,-0.7278653617382049,0.7151894200384616,-0.6917677740491927
1783245509685797600,1.491797607421875,-0.6766162360161543,0.40146015523076056,-0.6894849238090217
1783245509695809500,1.5018095703125,-0.6136030227422714,0.20156214452534912,-0.6738692753955722
1783245509705821400,1.511821533203125,-0.43592648845613,0.21556641221940517,-0.5772274948947131
1783245509715832600,1.52183251953125,-0.3221411193221807,0.373934581054002,-0.49123570322394366
1783245509725844700,1.5318447265625,-0.27227204978168007,0.46818990480974315,-0.4831102644354105
1783245509735856600,1.541856689453125,-0.15669862818717956,0.4762501694075763,-0.5918831391695887
1783245509745867500,1.551867431640625,0.05400047025680542,0.5026935013055801,-0.6997543888889253
1783245509755879700,1.561879638671875,0.2745341494947672,0.5354673513993621,-0.7239293374635278
1783245509765891600,1.5718916015625,0.4654372451007366,0.5320210103377699,-0.668618003803864
1783245509775903700,1.58190380859375,0.5943249062985182,0.47613180372491476,-0.5804182537600397
1783245509785915600,1.59191552734375,0.7456126153528689,0.3912028189800679,-0.5191692736797034
1783245509795927800,1.601927734375,0.9440034363657236,0.25442279709726573,-0.5177856373015791
1783245509805938700,1.611938720703125,1.049329020190239,0.16197423050254584,-0.5312767678417265
1783245509815950600,1.62195068359375,1.0740373449891805,0.07497691505104304,-0.525199128428474
1783245509825962800,1.631962646484375,1.018440545451641,-0.08281842233166098,-0.5348263500820845
1783245509835973600,1.6419736328125,0.8344692949354648,-0.30112288121283054,-0.5093907339219004
1783245509845985500,1.651985595703125,0.5565495946556329,-0.5529707132555544,-0.33919739499799906
1783245509855997400,1.66199755859375,0.2634481073349714,-0.786843182016164,-0.11565467013716697
1783245509866008800,1.6720087890625,-0.04047112659811973,-1.031736080354452,0.0558021859165281
1783245509876020700,1.682020751953125,-0.29909575929939747,-1.3057384610600768,0.16058847523257136
1783245509886032600,1.69203271484375,-0.4318582161039114,-1.4720035206243396,0.24343203200548885
1783245509896043800,1.702043701171875,-0.5706155294090509,-1.5719653854586184,0.2583316411040723
1783245509906055700,1.7120556640625,-0.6871674406468868,-1.6943201377563177,0.13855141546949742
1783245509916067600,1.722067626953125,-0.7253659461379051,-1.8016379183113573,-0.03369710241854191
1783245509926078500,1.732078369140625,-0.7302583943545818,-1.8911743968516588,-0.13360847917459903
1783245509936090600,1.742090576171875,-0.6469008967101574,-1.9155409224756061,-0.17287424857094882
1783245509946102500,1.7521025390625,-0.4997790751636028,-1.8544152765139936,-0.14948855067789554
1783245509956113700,1.76211376953125,-0.299180514973402,-1.7493290544033049,-0.11771269864551723
1783245509966125800,1.772125732421875,-0.11105097573399543,-1.6607061835765837,-0.1230687457859516
1783245509976137700,1.7821376953125,-0.0038607670813798904,-1.552578401812911,-0.11140358856394886
1783245509986148600,1.792148681640625,0.022011925321817397,-1.3716022414594888,-0.0034057167902588844
1783245509996160800,1.802160888671875,-0.05441548079848289,-1.2806354378551243,0.12711995740551502
1783245510006172700,1.812172607421875,-0.06884440364539623,-1.246714609683305,0.23864012155383824
1783245510016183600,1.82218359375,-0.12301789238154888,-1.2576204729706049,0.34475254490710794
1783245510026195700,1.83219580078125,-0.2957540476560592,-1.3298704472757874,0.3701457832302898
1783245510036207600,1.84220751953125,-0.47350306265652176,-1.404096543959528,0.3241819775000214
1783245510046218800,1.85221875,-0.683789488646388,-1.4867105297602712,0.2362722233787179
1783245510056230700,1.862230712890625,-0.924032076960802,-1.5469043016992507,0.11882285184450447
1783245510066242800,1.872242919921875,-1.092606436380744,-1.5345897406578064,0.07378712074458599
1783245510076253700,1.882253662109375,-1.2223165198773145,-1.3699350388996303,0.13333857619203626
1783245510086265600,1.892265625,-1.358272804287076,-1.1561958421073852,0.21413579489439724
1783245510096277800,1.90227783203125,-1.6022802980929611,-1.070020802824199,0.20016886353604493
1783245510106288600,1.91228857421875,-1.7789105381965635,-1.0237002195455134,0.11423201692290604
1783245510116300500,1.922300537109375,-1.9497060807973146,-0.9009799949362873,0.11683927681185305
1783245510126312700,1.932312744140625,-2.0910849747776985,-0.6313323023088276,0.16973302793577313
1783245510136323600,1.942323486328125,-2.212297863563895,-0.3840235750004649,0.22486527870148418
1783245510146335500,1.95233544921875,-2.194406817564368,-0.24309797774553296,0.2281079138845205
1783245510156347600,1.96234765625,-2.1131465844601394,-0.25556129960790275,0.15731420280225575
1783245510166358800,1.97235888671875,-1.9447095876842737,-0.42129897429719565,-0.011831819025799632
1783245510176370700,1.98237060546875,-1.734302750185132,-0.6477784101970493,-0.2918086710311472
1783245510186382800,1.9923828125,-1.5330179612964392,-0.8761246628820896,-0.5773624463859945
1783245510196393700,2.002393798828125,-1.2500602668493985,-1.0818689153976737,-0.8016848503824323
1783245510206405600,2.012405517578125,-1.0555237831771374,-1.2005861879758537,-0.979783263342455
1783245510216417500,2.02241748046875,-0.9547165535598993,-1.2198001531422138,-1.22337888841182
1783245510226428700,2.0324287109375,-0.7077011101096868,-1.1554400553040205,-1.3611474829405545
1783245510236440600,2.042440673828125,-0.5652320828050375,-1.0528269453085959,-1.5139157859414816
1783245510246452500,2.052452392578125,-0.3989437884956598,-0.7845344666823745,-1.5581430502027271
1783245510256464000,2.0624638671875,-0.15001520490050316,-0.3500571541212499,-1.3973255885198712
1783245510266475800,2.072475830078125,0.10360065972805023,0.15893062502294777,-1.0848057725671678
1783245510276487700,2.08248779296875,0.2950765867859125,0.5917220303237438,-0.7523183966018259
1783245510286498600,2.09249853515625,0.4487275178402662,0.9829920693211257,-0.4919663555860519
1783245510296510700,2.1025107421875,0.5250596468925476,1.3005783018179238,-0.26415848409403114
1783245510306522600,2.112522705078125,0.530010547298193,1.532151845986396,-0.11318725711032747
1783245510316533500,2.122533447265625,0.5377805967777967,1.6437017111532388,-0.0384591291885823
1783245510326545700,2.132545654296875,0.5073164849311113,1.73619440915063,0.05251812274456024
1783245510336557600,2.1425576171875,0.42312312098443505,1.7554250331908463,0.17811653313860296
1783245510346568700,2.152568603515625,0.331480610075593,1.6367115600049496,0.2706491247549653
1783245510356580600,2.16258056640625,0.2084574569970369,1.4409572249755263,0.31166714464612305
1783245510366592800,2.1725927734375,0.07660743886232375,1.1953922725945711,0.3101405926659703
1783245510376603600,2.182603759765625,-0.036084874337911604,0.9778396549940108,0.3532759700372815
1783245510386615800,2.19261572265625,-0.1305231534451246,0.8472156715229153,0.5094763663787395
1783245510396627700,2.202627685546875,-0.18540625175535677,0.7445879484802485,0.6069063015826046
1783245510406638600,2.212638671875,-0.12260989610254763,0.6159329269945621,0.6232249106336385
1783245510416650800,2.222650634765625,0.04565057506263256,0.6063613810509443,0.5864374409843236
1783245510426662700,2.23266259765625,0.30899463750123973,0.7435507143869996,0.4573598832376301
1783245510436673500,2.242673583984375,0.6230038882941007,0.96883334171772,0.2722575097996741
1783245510446685400,2.252685546875,0.9320961409509182,1.1526359576687215,-0.004543379050679505
1783245510456697600,2.262697509765625,1.200310439774394,1.2310597983032465,-0.29246863277722146
1783245510466708700,2.272708740234375,1.2776087835103274,1.1904758589804172,-0.5820389868296683
1783245510476720600,2.282720703125,1.3173761457532644,1.141827563406527,-0.7450021553043276
1783245510486732800,2.29273291015625,1.3696855941832065,1.1446320994332433,-0.7791152181126176
1783245510496743700,2.30274365234375,1.385421507975459,1.168347906063497,-0.7413546656474471
1783245510506755600,2.312755615234375,1.3183230712145566,1.1182903282135723,-0.7080312188468874
1783245510516767700,2.322767822265625,1.1995160745263098,0.9332815513432026,-0.6338781873993575
1783245510526778600,2.332778564453125,1.0951081900686026,0.7328639006778598,-0.4610891328938305
1783245510536790500,2.34279052734375,1.0636515600532293,0.6256304374054074,-0.1916724360106513
1783245510546802700,2.352802734375,1.1418752019405365,0.6070721596688031,0.11305060685230418
1783245510556813800,2.362813720703125,1.3378817581653595,0.596550181132555,0.3411108639365062
1783245510566825700,2.37282568359375,1.560271294403076,0.5153241425588727,0.4369681429961696
1783245510576838000,2.382837890625,1.72365685300827,0.3810790459811687,0.41221977844778446
1783245510586848800,2.392848876953125,1.839024522897601,0.20465280401706695,0.3193864868517965
1783245510596860700,2.402860595703125,1.9047160154700278,0.06723609166592359,0.23157920672427862
1783245510606872600,2.41287255859375,1.901144002202153,-0.018041852647066117,0.2103158712800592
1783245510616883700,2.4228837890625,1.8126356976658105,-0.10672171435803174,0.22738290581190956
1783245510626895600,2.4328955078125,1.6719786882191896,-0.18813275410979985,0.2856833930838853
1783245510636907500,2.442907470703125,1.489179404091835,-0.2592404265120625,0.2883552791742608
1783245510646918700,2.452918701171875,1.1573141786128283,-0.39133711288422346,0.286132104965765
1783245510656930600,2.4629306640625,0.8582225109666586,-0.52857057762295,0.3430332468338311
1783245510666942700,2.472942626953125,0.5671493146032095,-0.6447948643416166,0.4268179569143802
1783245510676953600,2.48295361328125,0.3409486956447363,-0.7297393389165401,0.5358726442646234
1783245510686965800,2.4929658203125,0.2317600066512823,-0.8155307857096195,0.5924622907644137
1783245510696977700,2.502977783203125,0.14249942244291305,-0.8921683274492621,0.5689326908886432
1783245510706988500,2.512988525390625,-0.02348492048382759,-0.9727207045450806,0.4388693004423752
1783245510717000700,2.523000732421875,-0.23304653933048247,-1.1288052924871443,0.17081074016988276
1783245510727012600,2.5330126953125,-0.498984125393629,-1.2419108626633881,-0.08509999393019825
1783245510737023500,2.5430234375,-0.76912851549685,-1.2617767158672213,-0.19562168509308248
1783245510747035600,2.55303564453125,-1.0666180086433887,-1.2128864282310008,-0.20532562524471432
1783245510757047600,2.563047607421875,-1.3231132281005382,-1.1441241499111057,-0.1815577596336603
1783245510767058700,2.57305859375,-1.5091116005301475,-1.1183271530926227,-0.13815547495447097
1783245510777070000,2.583070068359375,-1.589050229641795,-1.1315163050115107,-0.09781509859655052
1783245510787082000,2.59308203125,-1.7299521537601947,-1.1944950314939022,-0.11866758821755646
1783245510797093000,2.603093017578125,-1.8328735990524292,-1.3483914617419241,-0.20740297950804232
1783245510807105000,2.61310498046875,-1.9216765026211737,-1.4128417220816016,-0.2101267053835094
1783245510817117000,2.623116943359375,-2.0786177073925733,-1.2659519557252525,0.005693535466492176
1783245510827127800,2.6331279296875,-2.136654885819554,-0.9443711006343364,0.4083500608749687
1783245510837140000,2.643139892578125,-2.1177350812941786,-0.5462690236598253,0.7457944016605615
1783245510847151900,2.65315185546875,-1.9560557420849798,-0.18190584241896868,0.8817517820488661
1783245510857163000,2.6631630859375,-1.5875351489037275,0.05974544364959001,0.8067213832449167
1783245510867175200,2.673175048828125,-1.193465688446164,0.23165391592830417,0.6983189492583275
1783245510877187000,2.68318701171875,-0.7626333082586526,0.39972587878406046,0.5321682367887348
1783245510887198000,2.693197998046875,-0.4446060539960861,0.4456760213151574,0.2974540565069765
1783245510897210000,2.703210205078125,0.015761632755398748,0.5875903373464941,0.05799414300285279
1783245510907222000,2.713221923828125,0.2523082891613245,0.6354819693341851,-0.1362100399751216
1783245510917233000,2.72323291015625,0.43736324326097964,0.638331805807352,-0.3898794614218175
1783245510927245000,2.7332451171875,0.572819761455059,0.6149217041254044,-0.6022181437663734
1783245510937257000,2.743257080078125,0.5815063412576913,0.6234188988357782,-0.6957305402003229
1783245510947268900,2.753268798828125,0.6065571958839893,0.7134718024656176,-0.6715785341098904
1783245510957280300,2.7632802734375,0.6401262880086899,0.8379109598219394,-0.5643380565747619
1783245510967292200,2.773292236328125,0.5956868423014879,0.9196329652190208,-0.427764370919019
1783245510977303000,2.783302978515625,0.564084081813693,0.9160635822996497,-0.3975853596240282
1783245510987315000,2.79331494140625,0.6005775369524955,0.911273717674613,-0.4133732958644628
1783245510997327000,2.8033271484375,0.6382669238775969,1.0047025274783372,-0.3738268098305911
1783245511007338000,2.813337890625,0.7822966246277093,1.2106716747909783,-0.23657317908667028
1783245511017350000,2.823349853515625,0.9824369196563959,1.3903738696858285,-0.05224602780491113
1783245511027362000,2.833362060546875,1.069573351317644,1.5333061305880546,0.11473806674890219
1783245511037373200,2.843373291015625,1.0832745444118976,1.5767545194312929,0.14520853527113795
1783245511047385000,2.853385009765625,1.0235586191177368,1.4732397844210265,0.08192936453744769
1783245511057397200,2.863397216796875,0.9384376189321278,1.3196388299882411,0.014222586619853973
1783245511067408100,2.873408203125,0.6523334431529044,1.1661571180209518,0.02242233275361359
1783245511077420000,2.883419921875,0.1674450631290674,1.0308990450084208,0.13743380961641669
1783245511087432200,2.89343212890625,-0.39651860717535015,0.835513251030445,0.23748101464658974
1783245511097444000,2.903444091796875,-1.0585703112661837,0.5642468711599707,0.3016423019770533
1783245511107455000,2.913455078125,-1.753116756248474,0.2813610729053616,0.34860001411549746
1783245511117467000,2.923466796875,-2.3953216040968894,0.10215952100902795,0.4308037386149168
1783245511127478000,2.93347802734375,-2.77619139124155,0.04933949270844459,0.4725372863642871
1783245511137490000,2.943489990234375,-2.7855454950422045,0.09951748206764459,0.501267340959981
1783245511147501800,2.953501708984375,-2.4800129806935787,0.1549808644838631,0.47748387592099606
1783245511157513200,2.96351318359375,-1.9134505260676145,0.19526830507814882,0.380964771951735
1783245511167525000,2.973525146484375,-1.174030335614085,0.22389292653799056,0.271853020652011
1783245511177537000,2.983537109375,-0.4188017506539821,0.26537965991944074,0.25456958515681327
1783245511187549200,2.993549072265625,0.3249953397095203,0.35272827302664517,0.2705930837187916
1783245511197560000,3.00356005859375,0.8423644320994615,0.3764139767795801,0.24631920481435954
1783245511207572000,3.013572021484375,1.144891919413209,0.2874240262061357,0.12378573494888842
1783245511217584000,3.023584228515625,1.3076198908925056,0.12746873431056738,0.03535458730198443
1783245511227595000,3.033594970703125,1.2829682647168636,0.0021408114209771154,0.003865297126024961
1783245511237607000,3.04360693359375,1.1241577589422465,-0.04000599330440163,0.02166325801461935
1783245511247619000,3.053619140625,0.9433931955128908,0.03404138581156731,0.12149470140226185
1783245511257630200,3.063630126953125,0.805783298677206,0.1917927379220724,0.24228834186308085
1783245511267642000,3.07364208984375,0.7844599401414394,0.30525033640637994,0.31342319453321393
1783245511277654000,3.083654052734375,0.7416612473785876,0.2956074787922203,0.27374672544412315
1783245511287665200,3.0936650390625,0.7293167295902967,0.14737360435053706,0.16629150917977092
1783245511297677000,3.103677001953125,0.8536462890923022,-0.015494360121339559,0.060241921929642554
1783245511307688000,3.11368798828125,1.0058335773348808,-0.0955446329139173,-0.04224982670843601
1783245511317700000,3.1237001953125,1.1027011294156313,-0.13802972968295216,-0.13856595545150338
1783245511327712000,3.1337119140625,1.1662111862957476,-0.1157284660257399,-0.25992994314618406
1783245511337724000,3.143723876953125,1.1118541576862335,-0.17362521306872367,-0.4303144207280129
1783245511347735000,3.153735107421875,0.9871692088752985,-0.2765998498529196,-0.5754217606469989
1783245511357747200,3.163747314453125,0.8069330532342195,-0.34534605382084843,-0.6497784249078482
1783245511367759000,3.173759033203125,0.6537795503079891,-0.3735632635235786,-0.680630147832632
1783245511377770000,3.18377001953125,0.4856827452719211,-0.4455062177062034,-0.6013659839164466
1783245511387782100,3.1937822265625,0.257341022631526,-0.5644016233302652,-0.5241440664175897
1783245511397794000,3.2037939453125,0.0775426738858223,-0.743060446652025,-0.48997430498600003
1783245511407805000,3.213804931640625,-0.12302315307855605,-0.9315088425822555,-0.4867937021885067
1783245511417817000,3.223817138671875,-0.29388766926229,-1.1093534269116818,-0.47296552171371875
1783245511427829000,3.2338291015625,-0.36049043146073817,-1.1548301067121327,-0.37282033620178695
1783245511437840000,3.24383984375,-0.3829068459302187,-1.143143176049739,-0.1920283733088523
1783245511447852000,3.25385205078125,-0.3906190277427435,-1.1049734582617878,-0.06789514009654521
1783245511457864000,3.263864013671875,-0.35053485463559625,-1.1096923034772277,-0.05842508176602423
1783245511467875000,3.273875,-0.32561902456581593,-1.1805803417794405,-0.1808306144028902
1783245511477887200,3.28388720703125,-0.3622574411332607,-1.2738770496360956,-0.36718057674914595
1783245511487899100,3.293899169921875,-0.5823024600714445,-1.352194361156225,-0.5062359962180256
1783245511497910000,3.303909912109375,-0.8441244275093078,-1.3948276342242956,-0.6004356442637742
1783245511507922000,3.313921875,-1.093726964843273,-1.3779352438732981,-0.6116578800238669
1783245511517934000,3.32393408203125,-1.318784843507409,-1.330119453600794,-0.6087406774029135
1783245511527945000,3.333945068359375,-1.454103999057412,-1.1955537467665969,-0.5401308131657541
1783245511537956900,3.343956787109375,-1.4734101725518702,-0.9654472064107656,-0.3537026710167527
1783245511547969000,3.353968994140625,-1.2774351805090904,-0.7152854277588426,-0.19013021153733134
1783245511557980200,3.363980224609375,-1.002843163347244,-0.5004505446843802,-0.07728738395050168
1783245511567992000,3.373991943359375,-0.6505284395575524,-0.2898636744432151,0.01451440917328
1783245511578004200,3.384004150390625,-0.24324293917417525,-0.08622545429617166,0.07373378312215209
1783245511588015000,3.39401513671875,0.10359832164049149,0.105305710080266,0.07243176061287522
1783245511598027000,3.404027099609375,0.24279519540667532,0.2791667777314782,-0.039283231987804174
1783245511608039200,3.4140390625,0.13699497980773448,0.33890155385658144,-0.3446716616906225
1783245511618050000,3.424050048828125,-0.23862463172376155,0.21751856920048593,-0.8471895141683519
1783245511628062000,3.43406201171875,-0.7019681194156407,-0.09391922366917133,-1.4278319320730863
1783245511638074000,3.44407421875,-1.176380698132515,-0.4309761725723743,-1.870122402603179
1783245511648085000,3.4540849609375,-1.6010411116868257,-0.5101514160960913,-1.921412152596563
1783245511658097200,3.46409716796875,-1.7909879294812678,-0.260823019528389,-1.756390809483081
1783245511668109000,3.474109130859375,-1.832881197836995,0.008386866203695536,-1.6651368595004081
1783245511678120200,3.4841201171875,-1.7882488599061965,-0.04520049320757389,-1.70925467203781
1783245511688132000,3.494132080078125,-1.5114666392236946,-0.27777488498166203,-1.9183413668490945
1783245511698144000,3.50414404296875,-1.1804431252658367,-0.4115590860493481,-2.018848882867396
1783245511708155100,3.514155029296875,-1.0496037454783915,-0.3589944938145578,-1.9753059476085006
1783245511718167000,3.5241669921875,-0.9888023630350827,-0.27314576387628914,-1.890091423920542
1783245511728179000,3.534178955078125,-0.7623392937481402,-0.03255655408129096,-1.6873469377428292
1783245511738189800,3.54418994140625,-0.5845031849861144,0.36904914710000153,-1.3769729747124015
1783245511748202000,3.554201904296875,-0.38862989975214,0.7142927634596824,-1.1700965032964945
1783245511758214000,3.5642138671875,-0.16071078643798828,0.8279925001367926,-1.1752521324940026
1783245511768225000,3.57422509765625,0.03040565965771675,0.6931701881930231,-1.3137215687684713
1783245511778237200,3.5842373046875,0.10354045397341251,0.45748160992115733,-1.498489376489818
1783245511788249300,3.594249267578125,0.08419920916557312,0.30317659887224435,-1.5700335406132042
1783245511798260200,3.60426025390625,0.014102175110578536,0.2689358910962939,-1.5121552060097454
1783245511808272100,3.614272216796875,-0.15953472839593885,0.21115181064754723,-1.4038909383848308
1783245511818284300,3.6242841796875,-0.332420521274209,0.15803046131283044,-1.3443123757347464
1783245511828295200,3.634295166015625,-0.46111704381406304,0.13188771979659794,-1.32767469079718
1783245511838307000,3.64430712890625,-0.6061708269149064,0.11932020690739154,-1.3114362343102692
1783245511848319000,3.654319091796875,-0.5854395890533923,0.16274521487504243,-1.295984982678294
1783245511858330400,3.664330322265625,-0.43636487987339495,0.24907792893797157,-1.256283817539364
1783245511868342300,3.67434228515625,-0.21641104635000227,0.31396102773696183,-1.2073814010739325
1783245511878354200,3.684354248046875,-0.03642389703392982,0.35294746873527766,-1.1840068090967832
1783245511888365300,3.694365234375,0.24799744022488593,0.4006409478023648,-1.2166126091472804
1783245511898377200,3.704377197265625,0.5925006134808063,0.5179340327963232,-1.2508240908287465
1783245511908389000,3.71438916015625,0.888854380595684,0.6905550372585654,-1.2268863120108842
1783245511918400000,3.72439990234375,1.0736720188081263,0.8066007525399327,-1.2172486420284956
1783245511928412200,3.734412109375,1.2288549817353487,0.9185188664972782,-1.258976271493733
1783245511938424000,3.744424072265625,1.378214937597513,0.9253753082633018,-1.3222168637827039
1783245511948435000,3.75443505859375,1.4773352370411157,0.9684767833650112,-1.3986284878119826
1783245511958447000,3.764447021484375,1.5713783793509006,1.005766065056622,-1.4328408462762832
1783245511968459000,3.774458984375,1.5966957759588956,1.0154556844219564,-1.43370476962924
1783245511978470100,3.78447021484375,1.4970026450634002,1.0043199579015374,-1.4122221288785337
1783245511988482300,3.794482421875,1.2462287258625029,0.9463751339331269,-1.3638653635971247
1783245511998494200,3.804494140625,0.951615664935112,0.9062795626491308,-1.299168581150472
1783245512008505000,3.814505126953125,0.6935451589852571,0.9355439433172344,-1.2561612140730023
1783245512018517200,3.824517333984375,0.41584816154539583,0.9949065251290797,-1.2547143762655555
1783245512028529200,3.834529052734375,0.1829746406942606,0.9802040460377931,-1.3261528880573807
1783245512038540000,3.8445400390625,-0.030897827088832854,0.9001385756760835,-1.4077061127588153
1783245512048552200,3.85455224609375,-0.23570845201611518,0.8201371104612946,-1.4168477428525685
1783245512058564000,3.864564208984375,-0.48708033711016174,0.7477078340664506,-1.3512636561773717
1783245512068575200,3.8745751953125,-0.781482385635376,0.6160653212025762,-1.2732304222956299
1783245512078587100,3.884587158203125,-0.9698691145062446,0.4828384617567062,-1.2065018417604267
1783245512088599300,3.894599365234375,-1.0627952354848385,0.43879239928126335,-1.069862397392094
1783245512098610200,3.904610107421875,-1.098290911757946,0.43341216754764317,-0.8546371267605573
1783245512108622000,3.9146220703125,-1.0454051247447729,0.4770952419295907,-0.6779165780249983
1783245512118634200,3.92463427734375,-0.9735130239665508,0.49708793638348575,-0.5472247169494628
1783245512128645000,3.93464501953125,-0.8635703017354011,0.4537655120074749,-0.48115423499681054
1783245512138657000,3.944656982421875,-0.6559516336500645,0.40220220576971766,-0.4655892207920551
1783245512148669200,3.954669189453125,-0.3799205235958099,0.39854835943728684,-0.48394795736856755
1783245512158680300,3.964680419921875,-0.10646481698751449,0.4450166806235909,-0.4750973461106419
1783245512168692200,3.974692138671875,0.16679565930962562,0.5254729038685559,-0.46100846887305374
1783245512178704400,3.984704345703125,0.3544844690442085,0.5736281552284955,-0.4987940096490085
1783245512188715300,3.99471533203125,0.4291822748929262,0.5435267392143607,-0.5486744043011218
1783245512198727200,4.00472705078125,0.40716391983032224,0.4764414541959762,-0.6410661992073059
1783245512208739300,4.0147392578125,0.32524083890318867,0.43556554618924853,-0.7541390361577271
1783245512218750200,4.024750244140625,0.13667115468084812,0.3981093834981322,-0.8535242701478302
1783245512228762000,4.03476220703125,-0.08353928395211696,0.3761676008030772,-0.9475711387846618
1783245512238774000,4.04477392578125,-0.2702104410767555,0.4481126008123159,-0.981063877737522
1783245512248785200,4.05478515625,-0.44736967349052426,0.5758779799818993,-0.9586042086482047
1783245512258797000,4.064797119140625,-0.5290729741871356,0.717443628706038,-0.9408148694574833
1783245512268809000,4.07480908203125,-0.7065221294581889,0.8105261092901229,-0.7616456123955547
1783245512278820400,4.0848203125,-0.8825199168771505,0.9628551440909504,-0.5135654623232782
1783245512288832300,4.094832275390625,-0.884451177200675,1.2334539999634027,-0.16338833508417008
1783245512298844200,4.10484423828125,-0.7971896578550338,1.5190142781242728,0.259361203347519
1783245512308855000,4.11485498046875,-0.6275409472018479,1.7616709418430923,0.5619374251738191
1783245512318867200,4.1248671875,-0.3382669092148542,1.910677846483886,0.7733096005737781
1783245512328879000,4.134879150390625,0.050021629753708836,1.9694719807580112,0.87638265623115
1783245512338890000,4.144889892578125,0.2993488572776317,1.7811165238082407,0.6114547586672008
1783245512348902100,4.154902099609375,0.32188276064693927,1.2976286582320928,-0.044936581574380394
1783245512358914000,4.1649140625,0.20094927332401274,0.747539199501276,-0.7532068698741495
1783245512368925200,4.17492529296875,0.00033259295523166654,0.41315380789488554,-1.2820932354480028
1783245512378937300,4.184937255859375,-0.2295727257400751,0.48163989962190384,-1.4349793196097016
1783245512388949200,4.19494921875,-0.5503256055742501,0.8174386651575565,-1.3343980077028275
1783245512398960000,4.204960205078125,-0.8348720305174588,1.1754764427691697,-1.1402115795772523
1783245512408972300,4.21497216796875,-1.1525479871243238,1.3403259364470839,-1.027870052576065
1783245512418984200,4.224984130859375,-1.3353484402954579,1.2365034506618975,-0.9679630616892129
1783245512428995000,4.2349951171875,-1.2683908733099698,0.9811001180946827,-1.0481984087251126
1783245512439007200,4.24500732421875,-1.1544710641413927,0.8683604586213827,-1.074428463198617
1783245512449019100,4.25501904296875,-0.9554150572180747,0.9877043386653065,-0.947648807130754
1783245512459030300,4.2650302734375,-0.6878232742071151,1.2380325599253177,-0.7795910189308226
1783245512469042200,4.275042236328125,-0.28803251349329945,1.4254393378481267,-0.6743037212900816
1783245512479054300,4.285054443359375,0.10186462971568107,1.4329495673477648,-0.6804835789687931
1783245512489065200,4.295065185546875,0.48271045146286484,1.4123434171706437,-0.7093574259493499
1783245512499077000,4.3050771484375,0.7615186250150203,1.4476222358226776,-0.7018785414360463
1783245512509089300,4.31508935546875,0.8187555929750203,1.450697113223374,-0.6870958367154002
1783245512519100200,4.32510009765625,0.6409124699503183,1.3755419189959763,-0.7249876874100416
1783245512529112000,4.335112060546875,0.3608329612880945,1.2221338567867874,-0.7883092359807342
1783245512539124200,4.345124267578125,0.03633972588181496,1.0658259814828634,-0.8408665216919035
1783245512549135000,4.355135009765625,-0.26373510758280755,0.9142476189188659,-0.8813410823561251
1783245512559147000,4.36514697265625,-0.5056681332021952,0.7341448803991079,-0.932696006540209
1783245512569159200,4.3751591796875,-0.6933019978791475,0.5991403437562286,-0.802196307035908
1783245512579170300,4.38517041015625,-0.8896364708840846,0.55799584794119,-0.5147952963791788
1783245512589182200,4.39518212890625,-1.066513379225135,0.5155681804478168,-0.23514928376339375
1783245512599194000,4.405194091796875,-1.177083877965808,0.4209777795188129,-0.11488353963419794
1783245512609205200,4.415205322265625,-1.2070938163042069,0.2861898082360625,-0.06429784625694156
1783245512619217200,4.425217041015625,-1.0966279469817877,0.25461568932086226,-0.04452332459837198
1783245512629229000,4.43522900390625,-0.9511714282989502,0.25011194816082716,-0.01844268853291869
1783245512639240200,4.445240234375,-0.7512205183625221,0.2619983469180763,0.0563186110060662
1783245512649252000,4.455252197265625,-0.5787947442114353,0.20557357212379573,0.11489501087628304
1783245512659264000,4.465263916015625,-0.4440945973426103,0.03504223341718316,0.07792173633128405
1783245512669275400,4.475275390625,-0.3228016290575266,-0.13793620618060232,0.004469181303307414
1783245512679287300,4.485287353515625,-0.19814765990674493,-0.23290113951042293,-0.05277940402925014
1783245512689299200,4.49529931640625,-0.12829963217675686,-0.2564436354003847,-0.12766440301313994
1783245512699310000,4.50531005859375,-0.10664952590465546,-0.26613924611508843,-0.19596892762817442
1783245512709322200,4.515322265625,-0.050773909425735474,-0.25382497733458875,-0.15828925837948918
1783245512719334100,4.525334228515625,0.04861936174035072,-0.24456468929722905,-0.04627981287688017
1783245512729345000,4.535344970703125,0.19406068285405634,-0.23214199170619249,0.08776705771498382
1783245512739357200,4.545357177734375,0.39713352420330045,-0.1545041868828237,0.158107252876088
1783245512749369000,4.555369140625,0.5438309828579425,-0.1213249708585441,0.17020561388358474
1783245512759380200,4.565380126953125,0.6878215206414461,-0.1877376173123717,0.09906221258081495
1783245512769392000,4.57539208984375,0.8816355352580547,-0.32805107401832934,-0.11615531313568353
1783245512779404800,4.58540478515625,0.888971869495511,-0.40997167072743174,-0.2609668849784881
1783245512789416000,4.595416015625,0.9316057270854711,-0.4050819989897311,-0.2712958251606673
1783245512799427800,4.605427734375,0.9650392101317643,-0.3836125099815428,-0.24661314625963568
1783245512809440000,4.61543994140625,0.8817349039793014,-0.36615780957266686,-0.2514098790168762
1783245512819451000,4.625450927734375,0.7203665304154158,-0.38171018349155783,-0.23653920375183224
1783245512829462800,4.635462890625,0.5900830309450626,-0.44943128219544887,-0.2621232884719968
1783245512839474700,4.645474609375,0.5301379730701447,-0.5774162954650819,-0.33158494723290205
1783245512849485800,4.65548583984375,0.24607962390482424,-0.6786050717458129,-0.26335312252789733
1783245512859497700,4.665497802734375,-0.0881470700085163,-0.9504804503601044,-0.4363119806423783
1783245512869509600,4.675509521484375,-0.2981628623634577,-1.083618827804923,-0.3219537800565362
1783245512879520800,4.685520751953125,-0.6446984182298183,-0.900227130742371,-0.24216902633234857
1783245512889533000,4.695532958984375,-0.8949141190260648,-0.6810058492772281,-0.22755554069876668
1783245512899544800,4.705544921875,-1.05439974758327,-0.6046252049081027,-0.3479042138710618
1783245512909555700,4.7155556640625,-1.0866618487626314,-0.5767177187416702,-0.5279476234190166
1783245512919568000,4.72556787109375,-0.9897393516242503,-0.5391754852022975,-0.6050812781125307
1783245512929579800,4.735579833984375,-0.8517226275533437,-0.5168406115364284,-0.5987400923922658
1783245512939590700,4.745590576171875,-0.7598574138045311,-0.6365317706480622,-0.6852927328161895
1783245512949602800,4.755602783203125,-0.6881202113270759,-0.7380429838161915,-0.7943333916410803
1783245512959614700,4.76561474609375,-0.6484808593779802,-0.6647418930228799,-0.7912989923812449
1783245512969625600,4.77562548828125,-0.7405301975220442,-0.5910991491850465,-0.718794604923576
1783245512979637800,4.7856376953125,-0.9106517863839865,-0.5462554335258901,-0.566959929510951
1783245512989649700,4.795649658203125,-1.114016888678074,-0.3845676918145269,-0.28113427841216326
1783245512999660800,4.805660888671875,-1.2704425451427697,-0.0807655814550817,0.08803118854388595
1783245513009673000,4.8156728515625,-1.3556471319586039,0.1960937961168587,0.36748233617469667
1783245513019684900,4.825684814453125,-1.3012591236889361,0.34465025357641277,0.4643457966022193
1783245513029695700,4.83569580078125,-1.157467323347926,0.3013009411934763,0.45722953485622997
1783245513039708000,4.8457080078125,-1.0413029501229525,0.17974727614559233,0.2803450277306139
1783245513049719800,4.8557197265625,-0.9988742597162723,0.04604753849096596,0.07496917013600468
1783245513059730700,4.865730712890625,-0.9568471358478069,-0.08552680450752377,-0.0914914120003581
1783245513069742600,4.87574267578125,-0.8415753275483846,-0.08451667761690915,-0.2309453292675316
1783245513079754800,4.885754638671875,-0.748880092716217,-0.021958514634147285,-0.3652196519397199
1783245513089766000,4.895765869140625,-0.6941337725281715,-0.020989961862936616,-0.496962556438148
1783245513099777800,4.90577783203125,-0.5333604422479867,0.07001286290287971,-0.5888856378540397
1783245513109790000,4.9157900390625,-0.2797796489328146,0.18493198530711233,-0.6682428138159215
1783245513119800800,4.92580078125,0.005102291575074196,0.24162600549682972,-0.6887726838864385
1783245513129812700,4.935812744140625,0.16909809103310108,0.15955489440113305,-0.762319420003891
1783245513139825000,4.945824951171875,0.37355274212956424,0.03869637201055884,-0.8435701546274125
1783245513149835800,4.955835693359375,0.572827360239625,0.00040390462577342983,-0.9114138567976653
1783245513159847700,4.96584765625,0.5873287638008594,0.08585640178807079,-0.9439298596728593
1783245513169859800,4.97585986328125,0.621106530240178,0.2504397918757051,-0.9085697194129229
1783245513179870700,4.98587060546875,0.6222820037603378,0.44769313329122956,-0.8741037515137344
1783245513189883000,4.9958828125,0.5618681593298912,0.5839191745530814,-0.7955424021046609
1783245513199894800,5.005894775390625,0.5204390013545751,0.5613534147407859,-0.6932559667803346
1783245513209906000,5.015906005859375,0.4646311894148588,0.5289928216230124,-0.5700699512902647
1783245513219917800,5.025917724609375,0.40437165876328945,0.6431075688418001,-0.3490163398314267
1783245513229929700,5.0359296875,0.2963099279731512,0.7786283113785087,-0.12656148327253758
1783245513239940900,5.04594091796875,0.17275661354064942,0.861449948580563,-0.04126877978183329
1783245513249952800,5.055952880859375,0.030083003574609756,0.8454293726280331,-0.07989011379480361
1783245513259964700,5.065964599609375,-0.1341705700367689,0.8396665713176131,-0.0888302299670875
1783245513269975800,5.075975830078125,-0.385694430822134,0.7428180161982775,-0.0871127585247159
1783245513279987700,5.08598779296875,-0.5707108064770698,0.6497790824949741,-0.08568798641860484
1783245513289999600,5.09599951171875,-0.7332388714700937,0.5156405150316655,-0.04528203401118517
1783245513300010800,5.1060107421875,-0.920559432414174,0.414476142539829,-0.011617372557520865
1783245513310023000,5.11602294921875,-1.102789392220974,0.38023616541624067,-0.022124299655109644
1783245513320034800,5.126034912109375,-1.1765753439217805,0.40415217079371213,0.010881313367933035
1783245513330045700,5.136045654296875,-0.9353332231760024,0.4989446701660752,0.07664514052420854
1783245513340057900,5.146057861328125,-0.633626404595375,0.6381788072027266,0.05676262844651937
1783245513350069800,5.15606982421875,-0.2279641214996576,0.6782195795595646,-0.11969035539403557
1783245513360080600,5.16608056640625,0.2056125889599323,0.6018181846633553,-0.401241982435435
1783245513370092800,5.1760927734375,0.5358855768114328,0.4879463062897324,-0.6565795562900603
1783245513380104700,5.186104736328125,0.7623784567147492,0.4048736169360578,-0.817417330108583
1783245513390115800,5.19611572265625,0.8694488383799791,0.46129678429514165,-0.9080218762718141
1783245513400128000,5.2061279296875,0.7890987058579921,0.5198487803764641,-0.9819907833240926
1783245513410140000,5.216139892578125,0.7196136662214994,0.523238568945229,-1.019273708340153
1783245513420150800,5.22615087890625,0.7114853048235178,0.5535350691400468,-1.013021881403774
1783245513430163000,5.236162841796875,0.6774386583149433,0.5492334264233708,-0.9397793158646672
1783245513440174800,5.2461748046875,0.66795186804533,0.5457793404467404,-0.8274101702041924
1783245513450185700,5.256185791015625,0.6856897693097591,0.6233304898999631,-0.5420238603707402
1783245513460197600,5.26619775390625,0.7606921110630035,0.5654799200862646,-0.6452204693425446
1783245513470209800,5.276209716796875,0.8675789528548717,0.3229549199230969,-0.7128527937844396
1783245513480220700,5.286220703125,0.8087906637996435,0.2976677723228931,-0.6421433269195258
1783245513490232800,5.29623291015625,0.7350204941898584,0.3111247813977301,-0.5059912276767194
1783245513500244700,5.30624462890625,0.6948258464455604,0.3354617886662483,-0.417603261584416
1783245513510256600,5.316256591796875,0.6512228515624999,0.3204034818746149,-0.37095344635136424
1783245513520267800,5.326267822265625,0.5657926392972469,0.26684958634153005,-0.34578291086815294
1783245513530280000,5.336280029296875,0.4711111990839243,0.14607216636314987,-0.4083236843246966
1783245513540291800,5.346291748046875,0.5070622179090977,0.08210355206057429,-0.44288748657517135
1783245513550302700,5.356302734375,0.5665203690499067,0.061412500078976154,-0.45670273450314997
1783245513560315000,5.36631494140625,0.49370823081731796,-0.030808541370183226,-0.4538001449294388
1783245513570326800,5.376326904296875,0.4034761712282896,-0.15089710230156778,-0.45236565514691174
1783245513580337700,5.386337646484375,0.22545827615857122,-0.3198328423798084,-0.535444116654247
1783245513590349600,5.396349609375,0.022027122890949248,-0.4967122349388897,-0.6112837860144674
1783245513600361000,5.40636083984375,-0.16425298908948896,-0.5882482167333364,-0.6378690106011927
1783245513610372900,5.416372802734375,-0.26148586735129353,-0.6046420099124312,-0.5892301404427737
1783245513620384800,5.426384765625,-0.38428748663365836,-0.55898427445665,-0.4896401776608079
1783245513630397000,5.43639697265625,-0.501800351858139,-0.4947879888780415,-0.3764771782089025
1783245513640407800,5.44640771484375,-0.5133148485630751,-0.4616154948554933,-0.28223179132528603
1783245513650419700,5.456419677734375,-0.4233610213935375,-0.4947605163492262,-0.2272666407547891
1783245513660430800,5.466430908203125,-0.29295243423879147,-0.4726842936195433,-0.2539525492370128
1783245513670442800,5.47644287109375,-0.21076865654885768,-0.4415871445663273,-0.29271073443740603
1783245513680454700,5.48645458984375,-0.09061550594866276,-0.4051626630105078,-0.31897863670326765
1783245513690466800,5.496466796875,-0.018257541224360466,-0.37246962306797504,-0.32262678394727407
1783245513700478000,5.50647802734375,-0.061119946873188016,-0.36952421726584433,-0.3731144237775355
1783245513710489900,5.51648974609375,-0.15850129369497298,-0.40997839272916314,-0.5200806894361972
1783245513720502000,5.526501953125,-0.27463994795680047,-0.3793443311430514,-0.6222632990598678
1783245513730513000,5.536512939453125,-0.409836938431859,-0.23529431825727223,-0.6186168323162943
1783245513740524800,5.54652490234375,-0.4685562539041042,-0.11988923896700143,-0.5762028280220926
1783245513750536700,5.55653662109375,-0.5321820461183786,-0.10609057684764266,-0.5021206698536873
1783245513760547800,5.5665478515625,-0.573289717054367,-0.08298749528825282,-0.36095410344973206
1783245513770559700,5.576559814453125,-0.5275912111967802,0.00905307502746582,-0.11176920700594782
1783245513780570600,5.586570556640625,-0.46781449562609195,0.1896330756701529,0.16075228749215603
1783245513790581800,5.596581787109375,-0.40496436395943164,0.4158202506251633,0.3039602965958416
1783245513800593700,5.60659375,-0.30102935771048067,0.5617077080711722,0.2728391821451485
1783245513810605800,5.616605712890625,-0.25860943513214585,0.5629116770334541,0.07024623326733707
1783245513820616700,5.62661669921875,-0.3633914135992527,0.5026753811269998,-0.2522518827989697
1783245513830628600,5.636628662109375,-0.5008469966560601,0.4168985473811626,-0.5777041724957526
1783245513840640800,5.646640869140625,-0.6468266624301672,0.423444023501873,-0.8252806108295917
1783245513850651600,5.656651611328125,-0.6640571986943483,0.5679089007988571,-0.8580398478761315
1783245513860663600,5.66666357421875,-0.5611562116682529,0.7832819824032485,-0.7304252753540873
1783245513870675700,5.67667578125,-0.35134149484336374,0.9577480302102863,-0.5428422640815377
1783245513880686800,5.686686767578125,-0.11255845768749713,0.950976636379212,-0.37925855255573987
1783245513890698800,5.69669873046875,0.22957331026196479,0.8321453820325434,-0.28523879112154243
1783245513900711000,5.7067109375,0.5165998615831137,0.7535416547864675,-0.19029855384156108
1783245513910721800,5.7167216796875,0.586689881375432,0.7352312143310904,-0.2185216087631881
1783245513920733700,5.726733642578125,0.5885667811632156,0.7475643339425325,-0.4200929595082998
1783245513930745600,5.73674560546875,0.573837998586893,0.699085403586179,-0.6600314503096044
1783245513940756700,5.7467568359375,0.516541409394145,0.7856903587192297,-0.8020901432476937
1783245513950768600,5.7567685546875,0.43138124624192714,0.947780178425461,-0.8687658245518803
1783245513960780500,5.766780517578125,0.32189971178174015,1.0616963343322277,-0.8621231716670096
1783245513970792000,5.7767919921875,0.10370996532142161,1.167003505717218,-0.8609365922309458
1783245513980803800,5.786803955078125,-0.17891513617038726,1.254112903241068,-0.8876678011596202
1783245513990815700,5.796815673828125,-0.4423264186263084,1.308615770062059,-0.8780642526425421
1783245514000826600,5.80682666015625,-0.526481788650155,1.3619346877954899,-0.8677088628448545
1783245514010838800,5.8168388671875,-0.46008068650364875,1.4634052036270497,-0.8489132692210376
1783245514020850700,5.8268505859375,-0.42034138131141663,1.5549349018111824,-0.9241969121336936
1783245514030861600,5.836861572265625,-0.33121757522523404,1.5418610468350349,-1.0673755490124226
1783245514040873700,5.846873779296875,-0.19785072278678417,1.4399464404977858,-1.253676557650417
1783245514050885600,5.8568857421875,-0.08578618609607219,1.3435609728455542,-1.4041738469794391
1783245514060896500,5.866896484375,-0.1919926444083452,1.241665071208775,-1.5107665281303226
1783245514070908700,5.87690869140625,-0.4372165282666683,1.1031881822802125,-1.5038498806096612
1783245514080920600,5.886920654296875,-0.8591045544981956,0.9941834715515374,-1.33829998357743
1783245514090931700,5.896931640625,-1.3420312790602444,0.8984010843589901,-1.0996807586811481
1783245514100944000,5.90694384765625,-1.6481629283457992,0.8260409276776015,-0.8862671405814587
1783245514110955800,5.916955810546875,-1.8086393215060232,0.8309735617741942,-0.6621933045186102
1783245514120966700,5.926966552734375,-1.7813795586585996,0.8658058057025074,-0.5097270532041788
1783245514130978800,5.936978759765625,-1.4561720375031233,0.8405547523289918,-0.4596620227001607
1783245514140990700,5.94699072265625,-0.9818313549786806,0.8137203752867876,-0.49847164582684633
1783245514151001600,5.957001708984375,-0.4769008884012699,0.8643322260186076,-0.55530090976879
1783245514161013500,5.967013427734375,-0.08258709779381751,0.9281640621989965,-0.5856295586675405
1783245514171025700,5.977025634765625,0.27498832300305365,1.0007523285478352,-0.6214210030168295
1783245514181036800,5.987036865234375,0.5213619614183902,1.0634002156406641,-0.6408332672342658
1783245514191048700,5.997048583984375,0.6023141514867544,1.1277896857038139,-0.668370531848818
1783245514201060900,6.007060791015625,0.57654784206748,1.1657334857814012,-0.7528685778304934
1783245514211071700,6.01707177734375,0.5448293462455273,1.1912303306095302,-0.8713530645661055
1783245514221083600,6.027083740234375,0.5078197582781314,1.1586895586192607,-0.9979711733967065
1783245514231095800,6.037095703125,0.40731238839030265,1.049651384012401,-1.1621584037736057
1783245514241106700,6.047106689453125,0.2758130833894014,0.8628840730369091,-1.3542225059829651
1783245514251118600,6.05711865234375,0.16381752028167246,0.6750907800145447,-1.4664479323238133
1783245514261130800,6.067130859375,-0.013039514315128325,0.4888938893381506,-1.4986312691785395
1783245514271142000,6.077141845703125,-0.2667179227858782,0.2987426350127905,-1.515788447945565
1783245514281153800,6.08715380859375,-0.5004366622895002,0.11887874675020575,-1.5875819106549023
1783245514291165700,6.097165771484375,-0.6945259867161512,-0.008947057369723916,-1.6146134177044034
1783245514301176800,6.1071767578125,-1.0235504358112812,-0.08889825370199977,-1.616704837025702
1783245514311188700,6.117188720703125,-1.149862109041214,-0.09216748463101684,-1.5995342142552136
1783245514321200600,6.12720068359375,-1.1372872896283863,-0.0416577060341835,-1.5084985831983386
1783245514331211800,6.137211669921875,-1.0923346337020396,-0.0664186378031969,-1.3883559539921582
1783245514341223700,6.1472236328125,-0.9434604155302048,-0.19466697818413375,-1.3375005037628114
1783245514351235600,6.157235595703125,-0.6099380704939366,-0.30075382870472966,-1.2462493302591144
1783245514361246700,6.167246826171875,-0.3802876033425331,-0.3502395249508321,-1.0767188391581177
1783245514371258600,6.177258544921875,-0.15562018530070781,-0.38907771658487617,-0.922264190505445
1783245514381270500,6.1872705078125,0.08767360727787017,-0.4658260982878506,-0.7852876231372355
1783245514391281700,6.19728173828125,0.2844569930940866,-0.506394840041548,-0.6134112995624542
1783245514401293800,6.2072939453125,0.3976823902577162,-0.4979091896384954,-0.37645284748524427
1783245514411305700,6.2173056640625,0.411108858063817,-0.4492882204629481,-0.19719094370380044
1783245514421316600,6.227316650390625,0.2825146268546581,-0.42626288031488657,-0.13263108550980687
1783245514431328800,6.237328857421875,0.1010229181945324,-0.4052824169326573,-0.1323531453512609
1783245514441340700,6.247340576171875,-0.14095979178547857,-0.40318054928258057,-0.2645152981750667
1783245514451351600,6.2573515625,-0.41358138565719127,-0.43420470616482193,-0.3920559286780655
1783245514461363700,6.26736376953125,-0.6018482875406742,-0.45923334895931184,-0.49753947954326866
1783245514471375600,6.277375732421875,-0.7016483859419822,-0.47439635823443527,-0.5513289373978972
1783245514481386800,6.28738671875,-0.7342384039014578,-0.44704825951643284,-0.5502554629474878
1783245514491399000,6.29739892578125,-0.701624420544505,-0.3846251941554248,-0.5324848284572362
1783245514501410800,6.307410888671875,-0.6110398942559957,-0.3162940737944096,-0.5005021287411451
1783245514511421700,6.317421630859375,-0.49979777986407276,-0.22648813066296278,-0.4331257518216967
1783245514521433600,6.32743359375,-0.3726671914666891,-0.05513356593996286,-0.28669585806205866
1783245514531445800,6.33744580078125,-0.2206844858855009,0.0492693500816822,-0.11801862278953194
1783245514541456600,6.34745654296875,0.020348376023769377,0.06779211811348795,0.014062135361135005
1783245514551468500,6.357468505859375,0.18712708419859408,0.10405848649814724,0.10628566102832555
1783245514561480700,6.367480712890625,0.2440723757356405,0.1298878512162715,0.20047610285431144
1783245514571491800,6.377491943359375,0.2572802323549986,0.15268332813121377,0.2036905348561704
1783245514581503700,6.387503662109375,0.09205342979729175,0.12565941986627877,0.07337108728960157
1783245514591516000,6.397515869140625,-0.32219314177036285,0.0064939651291817425,-0.11702829657793044
1783245514601526800,6.40752685546875,-0.9461363567411899,0.05348813682049513,-0.26600378316715356
1783245514611538700,6.41753857421875,-1.415528476947546,0.02105162892229855,-0.41823052663728594
1783245514621550800,6.42755078125,-1.1441460694819687,-0.049951048735529184,-0.4934378894433379
1783245514631561700,6.437561767578125,-0.44417233875393863,-0.06509498798400164,-0.4775545300044119
1783245514641573600,6.44757373046875,0.18679215315580366,-0.18363756158240138,-0.5310756923116743
1783245514651585800,6.457585693359375,0.5182593192279339,-0.3081809099655598,-0.6145218911528587
1783245514661596700,6.4675966796875,0.3458604330837726,-0.15693221774734556,-0.6420424968935549
1783245514671608600,6.477608642578125,-0.0675081866055727,0.039846418828517194,-0.6616621202513575
1783245514681620500,6.487620361328125,-0.3473427805960178,0.05363857814185321,-0.7827974137566983
