time,seconds_elapsed,z,y,x
1783245619305425700,0.06342578125,0.23526947607696055,-0.40271337016224856,-0.4080329942824319
1783245619315437800,0.073437744140625,0.17921207329034805,-0.3002756167337298,-0.26591778538413346
1783245619325449700,0.08344970703125,0.15710019472539424,-0.23322920242100953,-0.23274682573154568
1783245619335462000,0.0934619140625,0.1699766274333,-0.17448036859333513,-0.26671711906827983
1783245619345472800,0.10347265625,0.08070785991847515,-0.1512611133083701,-0.32513069305960085
1783245619355484700,0.113484619140625,-0.04574760569632053,-0.16709522677809,-0.3855322625303641
1783245619365496600,0.12349658203125,-0.09034019613862038,-0.1527685952618718,-0.46293249573819334
1783245619375507700,0.1335078125,-0.11064531754255294,-0.10178834960907697,-0.47980815415009853
1783245619385519600,0.14351953125,-0.10706921262145042,-0.0973214333280921,-0.47890517742838706
1783245619395531800,0.15353173828125,-0.07563070278465747,-0.12768003897368907,-0.4746070053104311
1783245619405543700,0.163543701171875,-0.04058043219149112,-0.10168255114704369,-0.43335521319601683
1783245619415554800,0.173554931640625,-0.029143092375993728,-0.08455635204017162,-0.35015075068883594
1783245619425566700,0.183566650390625,0.04556465034484863,-0.09512421554476022,-0.20618611453156918
1783245619435579000,0.193578857421875,0.11979542320370673,-0.07412263630926609,-0.010512626186013221
1783245619445590800,0.2035908203125,0.1797200228124857,-0.07614537430852651,0.12084111459804699
1783245619455601700,0.2136015625,0.16805471946001052,-0.14892828644663095,0.12582504049045964
1783245619465613800,0.22361376953125,0.0747451521217823,-0.2736220030859113,0.11968030892405658
1783245619475625700,0.233625732421875,0.043642157849669454,-0.3329325624495745,0.17931129588112235
1783245619485636600,0.24363671875,0.10755670387744903,-0.3069008800923824,0.332429873624444
1783245619495648800,0.253648681640625,0.17105214771032332,-0.23861849424391984,0.49983248585127293
1783245619505660700,0.26366064453125,0.2236258000344038,-0.23942542671263217,0.6022410862505435
1783245619515672600,0.273672607421875,0.2092600055515766,-0.3073573916882276,0.6598435265220701
1783245619525683700,0.28368359375,0.3128495593637228,-0.35396950525939463,0.6996550201676786
1783245619535696000,0.29369580078125,0.4268558777719736,-0.39469840601086614,0.7909490829650312
1783245619545707800,0.303707763671875,0.4908353057295084,-0.41999271400421856,0.8659786049861461
1783245619555718700,0.31371875,0.49308103882968424,-0.48602439831644295,0.8893029280807823
1783245619565730800,0.323730712890625,0.4298229108840227,-0.5849751864120364,0.9098108055151999
1783245619575742700,0.33374267578125,0.3518926989853382,-0.5999886311486363,0.9826631296277045
1783245619585755000,0.3437548828125,0.24678981800079344,-0.5415571927070617,1.1276267502270638
1783245619595765800,0.353765869140625,0.14394085342288016,-0.4743795532301068,1.2920040963485837
1783245619605777700,0.363777587890625,0.011752397114038467,-0.49767099696844813,1.391775553177297
1783245619615789600,0.37378955078125,-0.14915771128833294,-0.5597346544325351,1.4429919456735252
1783245619625801700,0.3838017578125,-0.26652619960606094,-0.5663701469242572,1.4689165143944323
1783245619635812900,0.393812744140625,-0.32999650899767874,-0.5024655377686024,1.5058508451685308
1783245619645824800,0.40382470703125,-0.38666298359334467,-0.41918811962306496,1.516281638289988
1783245619655837000,0.4138369140625,-0.37367841433584686,-0.4045344481095671,1.4208409041419625
1783245619665847800,0.423847900390625,-0.3281114259034395,-0.42819414063841105,1.25103671066612
1783245619675859700,0.433859619140625,-0.22919629364311694,-0.47752223517000675,1.0719527938000857
1783245619685871900,0.443871826171875,-0.07149170328378678,-0.4988885560646653,0.907339446965605
1783245619695883800,0.4538837890625,0.17140870606303213,-0.5483376466274261,0.7721590422991663
1783245619705894700,0.463894775390625,0.4411375011026859,-0.6197410871058702,0.6674998864941298
1783245619715906800,0.47390673828125,0.6940852572113275,-0.6622855128467082,0.6504972407016902
1783245619725918700,0.483918701171875,0.8851701391249894,-0.6653750032946467,0.6350573141813278
1783245619735929600,0.4939296875,1.0392314045459032,-0.7004542077213526,0.6853985312782228
1783245619745941800,0.503941650390625,1.1269342379182576,-0.7526791927382349,0.7518957142103463
1783245619755953700,0.51395361328125,1.2081418640524149,-0.8345099192067981,0.8163746891878545
1783245619765965800,0.5239658203125,1.2987719830483198,-0.8614595931917428,0.9020517158210277
1783245619775976700,0.533976806640625,1.3008856142014265,-0.8606272340208292,0.9879267492443322
1783245619785988900,0.54398876953125,1.1908709957778454,-0.9087339700639248,1.021882648729533
1783245619796000800,0.554000732421875,1.0651228016495704,-0.986517174707353,0.9987272524610161
1783245619806013000,0.564012939453125,0.9790934544473886,-0.9548685292512178,0.9444931195788084
1783245619816023800,0.57402392578125,0.9294570246189832,-0.8781339568778872,0.8977660013258457
1783245619826035700,0.58403564453125,0.9251777398645877,-0.8419581893861293,0.8317987605519592
1783245619836047600,0.594047607421875,0.9360416637063026,-0.8387149696812033,0.714784054107964
1783245619846058800,0.604058837890625,0.9072790950804949,-0.8871800176426767,0.568890678377822
1783245619856070700,0.614070556640625,0.8473983346134424,-0.9321125075638294,0.4437365046199411
1783245619866082600,0.62408251953125,0.7221569209635257,-0.9758528650909661,0.3975630381943658
1783245619876095500,0.634095458984375,0.5690922653645276,-0.9742261406719684,0.3655786945104599
1783245619886106400,0.6441064453125,0.4275818539589643,-0.8921656971007585,0.35392033235542475
1783245619896118500,0.654118408203125,0.2746639133542776,-0.8193152726843953,0.3268557267539203
1783245619906130400,0.66413037109375,0.22770108664929867,-0.8237067856416106,0.26686509443791584
1783245619916142300,0.674142333984375,0.27802608326375483,-0.8743573609486222,0.2472717745651491
1783245619926153500,0.684153564453125,0.3513777352005243,-0.9201970288425684,0.23271467702761292
1783245619936165400,0.694165283203125,0.4212684330284595,-0.9417141563847661,0.24934865390444172
1783245619946177500,0.704177490234375,0.5336468579739332,-0.9402239178270101,0.27728403272479774
1783245619956188400,0.7141884765625,0.6435410648882389,-0.9461714280545711,0.294286221859511
1783245619966200300,0.724200439453125,0.733089233866334,-0.9807511585265397,0.30924247478246686
1783245619976212500,0.73421240234375,0.7786071224600076,-1.0169006225332617,0.2642463998395018
1783245619986224400,0.744224365234375,0.6946195102185011,-1.0986439629793165,0.2287947088385932
1783245619996235300,0.7542353515625,0.5936380930781364,-1.1749658628985284,0.19607538367733357
1783245620006247400,0.764247314453125,0.47418987587690353,-1.2158180977687238,0.1596078301647678
1783245620016259300,0.77425927734375,0.3373135540127754,-1.242565819440782,0.15423446656335144
1783245620026271200,0.784271240234375,0.2325181315422058,-1.255822191376984,0.14743183734379708
1783245620036282400,0.794282470703125,0.13327449797987936,-1.3082616959273814,0.16329557876680045
1783245620046294500,0.80429443359375,-0.03947451677620411,-1.333160574862361,0.19934132667072116
1783245620056306400,0.814306396484375,-0.2776321155101061,-1.3210215165182948,0.3039191243352368
1783245620066317300,0.8243173828125,-0.5135439811438322,-1.2684057786181568,0.4335914696373045
1783245620076329500,0.83432958984375,-0.7794161007553339,-1.1958762567192316,0.5359623683746904
1783245620086341400,0.84434130859375,-1.0354635764449833,-1.1231856990396976,0.5745374520931392
1783245620096353500,0.854353515625,-1.158442890381813,-1.0800409693181514,0.5329625655042007
1783245620106364400,0.864364501953125,-1.1691174291312694,-1.02316114423275,0.3908664996977895
1783245620116376300,0.874376220703125,-1.0916975048422812,-0.9597007717132567,0.19876926240380852
1783245620126388200,0.88438818359375,-0.9827899708777665,-0.926326033116877,-0.04002812293781899
1783245620136399600,0.894399658203125,-0.9140753310918808,-0.893511266490817,-0.27068954809689894
1783245620146411500,0.90441162109375,-0.8559721016913652,-0.8163879870608448,-0.4261123293956741
1783245620156423400,0.91442333984375,-0.9061889617562293,-0.7562211031287908,-0.5532741531815379
1783245620166435600,0.924435546875,-1.103345272538066,-0.7181862637668848,-0.6238097247842699
1783245620176446500,0.934446533203125,-1.3390104699343441,-0.5929033490628004,-0.5227406293604523
1783245620186458400,0.944458251953125,-1.557182680737972,-0.3487725211381912,-0.30521533815823493
1783245620196470500,0.954470458984375,-1.7595330530315636,-0.1314376379415393,-0.09146552864043042
1783245620206482400,0.964482421875,-1.8511206188827751,0.03634060266464949,0.038154168592370113
1783245620216493300,0.974493408203125,-1.7929519230306148,0.13537234704196452,0.11543255181908607
1783245620226505500,0.98450537109375,-1.5444272440612314,0.23993220719099043,0.12120548179787582
1783245620236517400,0.994517333984375,-1.2682652011036872,0.31710575550347564,0.07388582274555228
1783245620246528500,1.004528564453125,-1.0913777713686228,0.2135799145773053,-0.046421723831910636
1783245620256540400,1.01454052734375,-0.8448036419451236,0.07271890699118376,-0.15285174350067973
1783245620266552600,1.024552490234375,-0.6526695432394742,0.04484627294242382,-0.12638891231776214
1783245620276564500,1.034564453125,-0.6582312690198421,0.11429565674364565,-0.04078813839172944
1783245620286575400,1.044575439453125,-0.7471469853132963,0.2561599961534142,0.0705964166781865
1783245620296587500,1.05458740234375,-0.7449310628294944,0.4337243022367358,0.19818844857485965
1783245620306599400,1.064599365234375,-0.6199263805449009,0.5787424295023084,0.23150206810114904
1783245620316610300,1.0746103515625,-0.46295711872279643,0.5990078034177422,0.1205971680406481
1783245620326622500,1.08462255859375,-0.2758002239078283,0.5861813473314047,-0.0035166480851359662
1783245620336634400,1.09463427734375,-0.032298926058411594,0.6225380243480205,-0.07913995301462709
1783245620346646300,1.104646240234375,0.23158406556248665,0.6509481262743473,-0.09495722494740039
1783245620356657400,1.114657470703125,0.4589455449938774,0.6067158935770393,-0.16555113914124667
1783245620366669300,1.12466943359375,0.6159235746443271,0.45502603346258397,-0.2944331377832219
1783245620376681200,1.13468115234375,0.6758014125019312,0.2825622653886676,-0.34607674271557476
1783245620386693400,1.144693359375,0.643876580452919,0.21146628342419863,-0.30009182113204147
1783245620396704500,1.15470458984375,0.4907943891972303,0.2100134542673826,-0.15866494155777616
1783245620406716400,1.16471630859375,0.2319692654877901,0.29789544359892606,0.11276064746240154
1783245620416728600,1.174728515625,-0.07258534373939036,0.44036417864263055,0.44158349130451674
1783245620426739500,1.184739501953125,-0.36184944485425946,0.5400120090916752,0.7108980064548551
1783245620436751400,1.19475146484375,-0.6371259371489286,0.6006354046195745,0.888168151897192
1783245620446763500,1.204763427734375,-0.8727695072352886,0.6420575483322143,1.0510367739561945
1783245620456775400,1.214775390625,-1.0230337184607983,0.743348469813168,1.2259198050662874
1783245620466786300,1.224786376953125,-1.0421171891152858,0.9244263369753957,1.3824613429956136
1783245620476798500,1.234798583984375,-0.9185884246021508,1.143334168577194,1.4716775035403669
1783245620486810400,1.244810302734375,-0.6661983023762702,1.3274153092086314,1.4494506202936173
1783245620496821500,1.254821533203125,-0.30724808609485627,1.3808426557525992,1.2736968707635998
1783245620506833400,1.26483349609375,0.10425006354749203,1.2957406525284052,0.9988014867410063
1783245620516845600,1.274845458984375,0.5151560925155878,1.1775935810536144,0.7357603527717292
1783245620526857500,1.284857421875,0.8765718221276998,1.1595131499618292,0.5346534046679735
1783245620536868400,1.294868408203125,1.1773404830753802,1.2008023149445652,0.4278234076298773
1783245620546880500,1.304880615234375,1.4282377363950014,1.2098302555307745,0.3758366152830422
1783245620556892400,1.314892333984375,1.6459487594276665,1.1517886931896208,0.38414413264021274
1783245620566904300,1.324904296875,1.8214660698533056,1.0163397737801074,0.419183954904601
1783245620576915500,1.33491552734375,1.9045266303777693,0.8465881872743367,0.4963230164255947
1783245620586927400,1.34492724609375,1.953765585321188,0.712307142600417,0.5675023292919621
1783245620596939300,1.354939208984375,1.9491776730090378,0.568912524883449,0.6462934323363005
1783245620606950400,1.364950439453125,1.8520611146032808,0.43763153880834577,0.7174238280270249
1783245620616962600,1.374962646484375,1.642358041459322,0.35038024859577416,0.742595021097362
1783245620626974500,1.384974365234375,1.4551345111489296,0.31816637047231194,0.7416101017132402
1783245620636986400,1.394986328125,1.3198849137037991,0.25810060882717367,0.713612306914851
1783245620646997500,1.40499755859375,1.1531260792732239,0.20376170039623975,0.63674102948457
1783245620657009400,1.415009521484375,1.0114490791290998,0.12933745079189538,0.5354894171006978
1783245620667021600,1.425021484375,0.905769859561324,0.07317424954324961,0.39600327806435526
1783245620677033500,1.435033447265625,0.7628747157990932,0.01864244888871908,0.3057002903972752
1783245620687044400,1.44504443359375,0.6187719498127698,-0.012500877393782138,0.2690940042674541
1783245620697056500,1.455056396484375,0.5143354237824678,-0.0652054626211524,0.20315461961487308
1783245620707068400,1.465068359375,0.44379882926642894,-0.15169278272390366,0.13805990562550724
1783245620717079300,1.475079345703125,0.3125613900721073,-0.23671996714621782,0.10637092815898358
1783245620727091200,1.48509130859375,0.1500958689212799,-0.2813298009842634,0.09476687174076213
1783245620737103400,1.495103271484375,0.046541386422514916,-0.2573556356787681,0.0950937473412603
1783245620747115300,1.505115234375,-0.015587445232272148,-0.21840105112344024,0.07903245578585193
1783245620757126400,1.51512646484375,-0.12197510533034801,-0.21651216863691805,0.045888256276026364
1783245620767138600,1.525138671875,-0.2668248902916908,-0.21725071204453705,-0.05983643726813607
1783245620777150500,1.535150390625,-0.37258594292402264,-0.24033611181676387,-0.10758960150005295
1783245620787161300,1.545161376953125,-0.539540592187643,-0.2518444710418582,-0.14622319220639765
1783245620797173500,1.555173583984375,-0.7233224576115608,-0.23309885403960942,-0.21262042189538477
1783245620807185400,1.565185302734375,-0.8382558277368545,-0.19292992525845765,-0.27298215254610403
1783245620817197300,1.575197265625,-0.9159113143473863,-0.16108254235982894,-0.3341636386144906
1783245620827208400,1.58520849609375,-1.0735656358242034,-0.15811872411817313,-0.4056074841685593
1783245620837220400,1.595220458984375,-1.2245564077585935,-0.2048725842475891,-0.520532890183106
1783245620847232300,1.605232177734375,-1.2811585849463938,-0.27116584210544825,-0.625808424320817
1783245620857244400,1.615244384765625,-1.3389789057523012,-0.30824498817771673,-0.6873880245950073
1783245620867255600,1.625255615234375,-1.3587000897884367,-0.31977439019083975,-0.7027320895254612
1783245620877267200,1.63526708984375,-1.3303975398898125,-0.36567163349092,-0.6902439254827797
1783245620887279000,1.645279052734375,-1.282344579860568,-0.5188131537184119,-0.6027392450310289
1783245620897290000,1.6552900390625,-1.19821025262475,-0.6715384943604469,-0.39277280824314803
1783245620907302000,1.665302001953125,-1.1720850467652082,-0.7283297643795609,-0.08388287322539836
1783245620917314000,1.67531396484375,-1.1312480094641446,-0.697420831374824,0.26525930320909247
1783245620927326000,1.685325927734375,-1.1566940008878708,-0.6060992229834199,0.6144350896522403
1783245620937336800,1.6953369140625,-1.2201152104407549,-0.504747218964994,0.949761853761971
1783245620947349000,1.705348876953125,-1.300078973993659,-0.34364947903603316,1.2592911826618014
1783245620957361000,1.71536083984375,-1.4195032257974147,-0.07096095740795134,1.5528478664040564
1783245620967372000,1.7253720703125,-1.5858341902047395,0.26849808420091864,1.7800500636205077
1783245620977384200,1.73538427734375,-1.6232710636734962,0.6292515505120158,1.9278737498261034
1783245620987396000,1.74539599609375,-1.5056389559835195,0.9133683518663048,1.9494985755264758
1783245620997408000,1.755407958984375,-1.2979507297933102,1.0925415544509887,1.8156247964791952
1783245621007419100,1.765419189453125,-0.971679378798604,1.1766495782017707,1.553247971637547
1783245621017431000,1.77543115234375,-0.6439724420428276,1.239945407809317,1.2713028152339159
1783245621027443000,1.78544287109375,-0.38317923313081265,1.2716177264019846,1.001272772225365
1783245621037455000,1.795455078125,-0.2369622514694929,1.1817100764617323,0.7398316938638687
1783245621047466000,1.805466064453125,-0.2143617126047611,1.0349182175219058,0.5879154045823961
1783245621057478000,1.815477783203125,-0.33415947389602657,0.9762132228359579,0.5918841620828956
1783245621067490000,1.825489990234375,-0.5216577294945717,1.030951067456603,0.8207621835570782
1783245621077501200,1.835501220703125,-0.698159374782443,1.228623218806088,1.197393383283913
1783245621087513000,1.84551318359375,-0.812232328686118,1.439724760571122,1.5725407011285424
1783245621097525000,1.85552490234375,-0.870834739780426,1.5191428729400038,1.820233020927012
1783245621107537200,1.865537109375,-0.8172796752035617,1.5165297678321599,2.0141953579731284
1783245621117548000,1.875548095703125,-0.6185884099394082,1.5033125588625669,2.1957443497784435
1783245621127560000,1.885559814453125,-0.3934171340286731,1.5698849259227514,2.4325343134209514
1783245621137572000,1.895572021484375,-0.23028467340171335,1.6320564276754854,2.6611542684808374
1783245621147584000,1.905583984375,-0.1468447581708431,1.6466723975270985,2.826261828573048
1783245621157595000,1.915594970703125,-0.05019523275494575,1.6578221525728702,2.8729312252894044
1783245621167607000,1.92560693359375,-0.02870236287117004,1.6998355401769278,2.854227693863213
1783245621177619000,1.935618896484375,-0.06428805551528931,1.8115961254850028,2.7189593917176125
1783245621187629800,1.9456298828125,-0.15599135670065878,1.9998799785032868,2.506472825334966
1783245621197642000,1.95564208984375,-0.2288929267823696,2.2116353080019353,2.2222018563322723
1783245621207654000,1.96565380859375,-0.2929845829427242,2.380228956644237,1.9428565071634947
1783245621217665800,1.975665771484375,-0.26640111192166804,2.5133938567698,1.6192198885865507
1783245621227677200,1.98567724609375,-0.2410012977272272,2.5251073831781743,1.3129469311341642
1783245621237689000,1.995689208984375,-0.2431786417663097,2.4149396200194952,1.0482551073484123
1783245621247701000,2.005700927734375,-0.16654957559406755,2.272813707064092,0.824813870100677
1783245621257711900,2.0157119140625,-0.10141279429495334,2.111360577826202,0.6741789258666336
1783245621267724000,2.02572412109375,-0.058549804124236104,1.9130340542212128,0.5626959153909236
1783245621277736000,2.03573583984375,-0.04233458238244057,1.7382547026813029,0.5383918605439365
1783245621287748000,2.045748046875,0.04455167391002178,1.701144576948881,0.5828147569751366
1783245621297759000,2.055759033203125,0.15098434219360352,1.7293331450790166,0.6368661902341991
1783245621307771000,2.06577099609375,0.2893950340181589,1.715109681676328,0.6897916516706347
1783245621317783000,2.075782958984375,0.45182022315859793,1.6291034230887889,0.7051018143314868
1783245621327795000,2.085794921875,0.6173883864998817,1.5076590636342764,0.7286851536884903
1783245621337806000,2.09580615234375,0.7403390588641167,1.3353203832447529,0.7570180987253785
1783245621347818000,2.10581787109375,0.843277455291152,1.1831269575223327,0.7868142481826246
1783245621357830100,2.115830078125,0.8816782053560018,1.0894175772115589,0.7989629511378705
1783245621367841000,2.125841064453125,0.8321528346866369,1.000519981096685,0.8125944399967789
1783245621377853000,2.13585302734375,0.6951701298385858,0.9089785924747585,0.8872861814308911
1783245621387865000,2.145864990234375,0.5135118324398994,0.7942755239740014,1.0063428420312701
1783245621397877000,2.155876953125,0.27326632151603697,0.6729141666278242,1.1302454082928597
1783245621407888000,2.165887939453125,-0.02493745737969875,0.5401154694661497,1.2409873180776834
1783245621417900000,2.175900146484375,-0.4106394869863987,0.4298006990522146,1.3434348622478545
1783245621427912000,2.185911865234375,-0.8773761242479086,0.32925212037116286,1.4226175584256648
1783245621437923000,2.195923095703125,-1.2537152822256088,0.2022019037336111,1.4751597926981745
1783245621447935200,2.205935302734375,-1.6137825198382139,0.09116115713268517,1.5276874139234422
1783245621457947100,2.215947021484375,-1.9429437470555304,0.007161854453384876,1.5528231703542172
1783245621467959000,2.225958984375,-2.1385773783147335,0.0007394201904535293,1.6314108232483266
1783245621477970000,2.235969970703125,-2.260590477567911,0.039158290433883663,1.689292226591706
1783245621487982000,2.245982177734375,-2.157707610720396,0.08047405116260051,1.730050645698607
1783245621497994000,2.255993896484375,-1.8584984541743992,0.052992462258040905,1.6531657050691544
1783245621508006100,2.266006103515625,-1.5188228472054004,-0.010419102683663367,1.5200417214758692
1783245621518017000,2.27601708984375,-1.1357651946276426,-0.06547025103718042,1.427117207932472
1783245621528029000,2.28602880859375,-0.7689046436131,-0.08047025177031755,1.3872376174867151
1783245621538041000,2.296041015625,-0.46976972134709355,-0.03280775236338377,1.4555445532545446
1783245621548052000,2.306052001953125,-0.2860872246444225,0.04720014259219169,1.5514882684886455
1783245621558063900,2.31606396484375,-0.16879647773802278,0.1268526482388377,1.642292867268622
1783245621568075800,2.32607568359375,-0.01702420003712177,0.18820903421640395,1.7246856115341185
1783245621578088000,2.336087890625,0.13168927461504937,0.19917232677936553,1.7555341926537453
1783245621588099000,2.34609912109375,0.23134850324094294,0.1894298081830144,1.716077942186594
1783245621598111000,2.356111083984375,0.3345084334641695,0.1811594079658389,1.6375401197835802
1783245621608123100,2.366123046875,0.42564007224142547,0.14903496169149874,1.575203636727482
1783245621618134000,2.376134033203125,0.4809726678848266,0.10452157396525144,1.5376859531074762
1783245621628146000,2.38614599609375,0.4704653023958206,0.043403965179622174,1.5304343745440243
1783245621638158000,2.396157958984375,0.4176052343457937,-0.0316954072073102,1.5464634260639547
1783245621648170000,2.406169921875,0.33578795188069344,-0.08667085997611283,1.5802242413684724
1783245621658180900,2.416180908203125,0.19790508332252502,-0.09576046762168407,1.5914512994341552
1783245621668193000,2.426193115234375,0.02924479918479919,-0.07528466582596302,1.5829649183787404
1783245621678205000,2.436204833984375,-0.08601999485194682,-0.08373568330705165,1.5516259233936667
1783245621688216800,2.446216796875,-0.1958148330450058,-0.10278466717004775,1.536717546466738
1783245621698228200,2.456228271484375,-0.2858236052721739,-0.06072217972725629,1.5001944268420337
1783245621708240100,2.466240234375,-0.42522038552463054,0.058118426969647405,1.4670686945706606
1783245621718252000,2.476251953125,-0.591816722869873,0.23672552010416983,1.396201552926004
1783245621728263000,2.486262939453125,-0.6905173355966806,0.3776815124973655,1.229940877275914
1783245621738275000,2.496275146484375,-0.6671849753260612,0.465443967102468,0.9879564137302338
1783245621748287000,2.506286865234375,-0.5938128651231527,0.5358472906276583,0.6901669877890497
1783245621758299100,2.516299072265625,-0.47642450306117534,0.6091583182930946,0.391955244782567
1783245621768310000,2.52631005859375,-0.30773090117573737,0.6357376976609229,0.13018369235768915
1783245621778322000,2.536322021484375,-0.05008242003023624,0.561722905640304,-0.18981047806367277
1783245621788333800,2.546333740234375,0.0969528922766447,0.4846861354500055,-0.4129135693982243
1783245621798346000,2.556345947265625,0.1501046367496252,0.4654731931969523,-0.4754704172067344
1783245621808357000,2.566357177734375,0.0956155061930418,0.5467071228161454,-0.3992421869203448
1783245621818369000,2.576369140625,-0.18120646197795867,0.6008420331075787,-0.2036822784844786
1783245621828381200,2.586381103515625,-0.6145879421263932,0.6123197049334644,0.12935133318677544
1783245621838392000,2.59639208984375,-1.315067868810892,0.668822805660963,0.5485349958304315
1783245621848404000,2.606404052734375,-2.215615609809756,0.759719466638565,1.0054724158722907
1783245621858416000,2.616416015625,-3.0056758541762827,1.0032739559799433,1.312127139183879
1783245621868428000,2.626427978515625,-3.568948035085201,1.3619368797525764,1.471623873656988
1783245621878438400,2.6364384765625,-3.758380473616719,1.7395596478000281,1.410645965602994
1783245621888450600,2.646450439453125,-3.5106887383401393,1.9353236274406314,1.1219954663418232
1783245621898462500,2.65646240234375,-3.0145927356034514,1.9569711033642292,0.8428399406567215
1783245621908473600,2.6664736328125,-2.3970219782739877,1.9822095895171163,0.5816816978245973
1783245621918485800,2.67648583984375,-1.647540412533283,1.9907906631186603,0.32894583090096713
1783245621928497700,2.68649755859375,-0.8670949687302112,1.9837331458225844,0.15486688271537422
1783245621938509600,2.696509521484375,-0.17766425932645796,1.9528209979474542,0.020701573375612497
1783245621948520700,2.706520751953125,0.3630325171589851,1.7756448143988848,-0.13150222761034966
1783245621958532600,2.71653271484375,0.7918366063892841,1.583421576105058,-0.2461408525727689
1783245621968544500,2.72654443359375,1.0885860948234796,1.4131167396306992,-0.2852715243473649
1783245621978556700,2.736556640625,1.263012102881074,1.3063374498665332,-0.23727526294142007
1783245621988567600,2.746567626953125,1.2885598011136055,1.2746990335434674,-0.06362447704002261
1783245621998579500,2.756579345703125,1.1708178033083676,1.324796066620946,0.21380100998207927
1783245622008591600,2.766591552734375,0.9891752880007028,1.4412220133915543,0.4673911556474864
1783245622018602500,2.7766025390625,0.7556950334280729,1.5046984602630138,0.6825295517131685
1783245622028614400,2.786614501953125,0.5508130968302488,1.550922159038484,0.7997166921146214
1783245622038626600,2.79662646484375,0.4362216720104217,1.6230147508248687,0.820580178053677
1783245622048638500,2.806638427734375,0.49384617798328395,1.7400310647040604,0.8486772685080766
1783245622058649600,2.816649658203125,0.716900900131464,1.8599083209723233,0.8081120338857174
1783245622068661500,2.82666162109375,1.0235632952928542,1.8981921666592358,0.7175514729946851
1783245622078673700,2.836673583984375,1.2125590959727763,1.819408260540664,0.6266368379689753
1783245622088685600,2.846685546875,1.369427235507965,1.6494664121598004,0.604363631362468
1783245622098696400,2.856696533203125,1.3462719853699205,1.5013424278333782,0.6538670824609697
1783245622108708600,2.86670849609375,1.16570323677361,1.398579095712304,0.7047451829135417
1783245622118720500,2.876720458984375,0.8994991087287664,1.3072738539338111,0.6764803346768021
1783245622128731400,2.8867314453125,0.5510469055861235,1.139265019442141,0.5495199882797897
1783245622138743600,2.89674365234375,0.30272914736568923,0.9860390358015895,0.4809352584838867
1783245622148755500,2.90675537109375,0.11742869407236575,0.9478098429113626,0.517680934818089
1783245622158767400,2.916767333984375,-0.00656476534307003,0.944804523615539,0.5735770095631479
1783245622168778800,2.92677880859375,0.009399111986160278,0.8416650516584515,0.594387596271187
1783245622178790700,2.936790771484375,0.14606734405755994,0.6201099204182624,0.5645809254199267
1783245622188802600,2.946802490234375,0.31254093180596826,0.2716764219760895,0.49828226073458787
1783245622198813400,2.9568134765625,0.4359399324595928,0.021496961537003517,0.5557371092289686
1783245622208825600,2.96682568359375,0.43146834000349044,-0.055397477573156356,0.6301449922204018
1783245622218837500,2.97683740234375,0.3157733378559351,-0.07656681459099055,0.6246545781105757
1783245622228849700,2.986849609375,0.11544482677876948,-0.10459785407185554,0.4550868237391114
1783245622238860500,2.996860595703125,-0.20299276185035706,-0.10073825603425503,0.18428601555377244
1783245622248872400,3.00687255859375,-0.5982692600101233,0.011129004518687724,-0.009709639240056276
1783245622258884400,3.01688427734375,-0.8952128097116947,0.14206278459131716,-0.14623320214375854
1783245622268896500,3.026896484375,-1.0630115085840224,0.18998101232498882,-0.13121478897109626
1783245622278907600,3.03690771484375,-1.1193097343891858,0.21103402948677538,-0.012115385207533835
1783245622288919600,3.04691943359375,-1.0765063654512166,0.19309183782190084,0.10692688154131173
1783245622298931700,3.056931640625,-0.919170023882389,0.02726736163198948,0.03969941157326102
1783245622308942600,3.066942626953125,-0.6970797628521919,-0.15021920304000377,-0.2092619052477181
1783245622318954500,3.07695458984375,-0.5332113891661167,-0.26173048976212737,-0.4561775415852666
1783245622328966700,3.086966552734375,-0.5023597393065691,-0.3004159019872546,-0.6301745105758308
1783245622338978600,3.096978515625,-0.451821976724267,-0.26568711843341586,-0.748270144124329
1783245622348989400,3.106989501953125,-0.36098844411075115,-0.20371376960128545,-0.7090690374620259
1783245622359001600,3.117001708984375,-0.3011766572266817,-0.1465948750630021,-0.595490369881317
1783245622369013500,3.127013427734375,-0.2888496750950813,-0.09639408935010432,-0.5175805431835353
1783245622379024400,3.1370244140625,-0.30345336998701095,-0.10446984377801417,-0.5167067560236901
1783245622389036500,3.14703662109375,-0.33860476286709307,-0.18199498200714587,-0.5577591896411032
1783245622399048400,3.15704833984375,-0.43517654687166213,-0.30258330915421244,-0.5283703058104962
1783245622409060400,3.167060302734375,-0.5785515831053256,-0.3492068209022283,-0.3569795737955719
1783245622419071500,3.177071533203125,-0.648895285397768,-0.3681406539529562,-0.08098273133710027
1783245622429083600,3.187083740234375,-0.6907844621002673,-0.3859866917669773,0.15009404229037462
1783245622439095600,3.197095458984375,-0.7470429404169321,-0.38027328255623577,0.28021161060929295
1783245622449107700,3.207107666015625,-0.8825620024532079,-0.35142449695169925,0.3191232328057289
1783245622459118600,3.21711865234375,-1.0330629450440407,-0.31030104392468927,0.25466946533471346
1783245622469130500,3.227130615234375,-1.2380512646257877,-0.24888357540965078,0.1656797704895958
1783245622479142400,3.237142333984375,-1.5253613090634346,-0.18362667486220596,0.07917458593659102
1783245622489153500,3.247153564453125,-1.782660246118903,-0.09969605350494384,-0.005181804818380624
1783245622499165400,3.25716552734375,-1.9338328043609856,-0.013000059087574482,-0.07782837722571566
1783245622509177300,3.26717724609375,-1.9660832151025533,-0.02872691279053688,-0.17258229815335943
1783245622519189500,3.277189453125,-1.8714613961219786,-0.1126060962215066,-0.26080290832212194
1783245622529200600,3.28720068359375,-1.605883875542879,-0.1748883648723364,-0.19766086277049033
1783245622539212500,3.297212646484375,-1.2219991244912147,-0.2030918383106589,-0.006641757835727184
1783245622549224700,3.307224609375,-0.806751266926527,-0.2405538462206721,0.22489180138222872
1783245622559236600,3.317236572265625,-0.37702129502296444,-0.31546207994967695,0.5885560405734926
1783245622569247500,3.32724755859375,-0.04970598793327808,-0.4492755071118474,0.9249961727526038
1783245622579259600,3.337259765625,0.01726911470890045,-0.48421910246014593,1.2621698068380356
1783245622589271600,3.347271484375,-0.22710896597504615,-0.2988049596592784,1.5830138720870017
1783245622599282400,3.357282470703125,-0.6260486628174782,0.04792874912768602,1.5086749626785516
1783245622609294600,3.367294677734375,-1.0721908403396605,0.364950041218102,1.0921559891995043
1783245622619306500,3.377306396484375,-1.4686071561843157,0.6067679160252213,0.5703193960066885
1783245622629318400,3.387318359375,-1.7596996417701243,0.8236066862680017,0.11069284647870808
1783245622639329500,3.39732958984375,-1.9629566075146196,1.0051461795926093,-0.09506168083571828
1783245622649341700,3.407341796875,-1.9174708676248788,1.126564235562086,-0.0964624601448886
1783245622659353600,3.417353515625,-1.571165028861165,1.2172449157014489,0.007917312463186681
1783245622669364500,3.427364501953125,-1.099797809189558,1.2037117726504802,0.10719587120842188
1783245622679376600,3.437376708984375,-0.5681798266947269,1.1021715525835751,0.10035013349950313
1783245622689388500,3.447388427734375,-0.035980829441547395,0.9835742531232535,-0.06469754963163286
1783245622699400700,3.457400634765625,0.48146015914082524,0.8399149931207299,-0.2943952899908647
1783245622709411600,3.46741162109375,0.9414929148495197,0.7036737542897462,-0.5736233329229057
1783245622719423500,3.477423583984375,1.3007248706817627,0.6374027082636952,-0.8347744884271174
1783245622729435400,3.487435302734375,1.499647606614232,0.6179568340376019,-1.0592297980882226
1783245622739447600,3.497447509765625,1.6359990278214216,0.5723644189029932,-1.2529802459493278
1783245622749458400,3.50745849609375,1.7507675627738237,0.4513055516347289,-1.3571677656546235
1783245622759470300,3.51747021484375,1.8491431813299655,0.31883886290639635,-1.3630132768124341
1783245622769482500,3.527482421875,1.8561895927101373,0.20795272234529255,-1.2746547560103236
1783245622779493600,3.53749365234375,1.8078589847832918,0.08491144908815622,-0.9766244339853525
1783245622789505500,3.547505615234375,1.5534201133340597,-0.0594192804351449,-0.46119281246401367
1783245622799517700,3.557517578125,1.0683476089149713,-0.31817718412727114,0.10905167340924962
1783245622809529600,3.567529541015625,0.5173205770730972,-0.7164253915742039,0.6391030824407935
1783245622819540500,3.57754052734375,-0.2231979300111532,-0.947583340679109,1.2648888565383851
1783245622829552600,3.587552734375,-1.1283441047161817,-0.765273593634367,1.947048405895382
1783245622839564500,3.597564453125,-1.9657997219860552,-0.23996757076531647,2.4715175395488735
1783245622849576400,3.607576416015625,-2.4718846192955968,0.3220505184292793,2.591207164290547
1783245622859587300,3.61758740234375,-2.522629887148738,0.6911129634022712,2.2204992901980876
1783245622869599500,3.627599609375,-2.111966434764862,0.7943664171278476,1.4600762053348124
1783245622879612000,3.63761181640625,-1.4668313786834477,0.7521943318307399,0.6371288597583771
1783245622889623000,3.647623046875,-0.7569085008710622,0.7381406720370054,0.037218554542958734
1783245622899635000,3.657635009765625,0.08902969806194305,0.6793100051447749,-0.4455342747569084
1783245622909647000,3.667647216796875,0.8356284018427133,0.5537020962700248,-0.8231592347614467
1783245622919659000,3.677658935546875,1.401063313743472,0.4078150772154331,-1.0677166175350545
1783245622929670000,3.687669921875,1.786623304530978,0.29820611698329447,-1.132151972566545
1783245622939681800,3.697681884765625,1.9901620098263024,0.21650135498195885,-1.0177200491573661
1783245622949694000,3.70769384765625,2.0431787297427655,0.19985972452163694,-0.7742673396900296
1783245622959704800,3.717704833984375,1.8817559956431387,0.2361103108152747,-0.43550143144447356
1783245622969716700,3.727716796875,1.632214248585701,0.2291021856188774,-0.11424001756627113
1783245622979729000,3.73772900390625,1.3439368204206228,0.1669488040447235,0.11335695112142712
1783245622989740800,3.74774072265625,1.0018062215149401,0.08011340115666389,0.4133595596000552
1783245622999751700,3.757751708984375,0.6757610804915428,0.08667349032461642,0.7272161040492355
1783245623009763800,3.767763916015625,0.48842649102210994,0.129047235673666,0.9989865609843284
1783245623019775700,3.777775634765625,0.4398351863324642,0.18563684564083813,1.166608515050262
1783245623029788000,3.787787841796875,0.41983343178927895,0.17076807007193565,1.1930940786547959
1783245623039799000,3.797799072265625,0.4636626366436481,0.13359072432219982,1.1227202734850346
1783245623049811000,3.80781103515625,0.5616027863919735,0.06016045419126749,0.9461112953651696
1783245623059822800,3.81782275390625,0.6104337450563907,-0.03275222278386354,0.6806845083683729
1783245623069834000,3.827833984375,0.5884247423440218,-0.11832038221508263,0.4560447820510715
1783245623079846000,3.837845947265625,0.493396680650115,-0.12834873201549052,0.3023962073505856
1783245623089857800,3.84785791015625,0.38291210662722586,-0.11648264539390801,0.20269160521300508
1783245623099870000,3.857869873046875,0.2538859137415886,-0.1052685929402709,0.11951835982799529
1783245623109880800,3.867880859375,0.0939075332313776,-0.11636252614557742,0.0960016924990341
1783245623119892700,3.877892822265625,-0.027344518521428107,-0.1287213647201657,0.09311451969016343
1783245623129905000,3.88790478515625,-0.08022446031570434,-0.17514555450379848,0.16545887601422146
1783245623139916800,3.897916748046875,-0.0658347004354,-0.2682210208252072,0.25210577059285716
1783245623149928000,3.907927978515625,-0.05186053561866283,-0.4602043128833174,0.32862967762388284
1783245623159939800,3.91793994140625,-0.015129764592647551,-0.6763114078506827,0.38061855232995
1783245623169952000,3.927951904296875,-0.03869008840024471,-0.8179697032943367,0.40019711302500216
1783245623179963000,3.937962890625,-0.18107669811844826,-0.8729577232837676,0.4508755627196282
1783245623189974800,3.947974853515625,-0.3967155910521745,-0.9050614190310239,0.46385311771444976
1783245623199987000,3.957987060546875,-0.6443015278667211,-0.9420105089828371,0.4263997680349275
1783245623209998800,3.967998779296875,-0.9643383683860302,-0.8986559359028935,0.36426078031230713
1783245623220009700,3.978009765625,-1.2202104875087738,-0.7685758500501513,0.24062574241310355
1783245623230022000,3.98802197265625,-1.3356366095870733,-0.6549743130505085,0.00028954839794896543
1783245623240033800,3.99803369140625,-1.329738199198246,-0.5807751043736934,-0.3214937613293528
1783245623250045700,4.008045654296875,-1.1326023466825486,-0.45222354326248165,-0.6362749463427811
1783245623260057000,4.01805712890625,-0.8933329873144626,-0.3182563868433237,-0.8845238771107047
1783245623270069000,4.028069091796875,-0.6426841557979583,-0.3179585729405284,-1.113059734083712
1783245623280081000,4.038080810546875,-0.40677521277368067,-0.4664432072728872,-1.34155007141456
1783245623290092000,4.048092041015625,-0.25851474258601664,-0.6253168414115905,-1.4700266675934195
1783245623300104000,4.05810400390625,-0.3375672365128994,-0.6280003814071417,-1.3684472845599054
1783245623310115800,4.06811572265625,-0.5773994904607535,-0.4423167740151286,-1.1118898135215043
1783245623320128000,4.0781279296875,-1.0192179595649242,-0.16544366017878054,-0.7948303083125502
1783245623330139000,4.088138916015625,-1.5366747302383184,0.01728138966858387,-0.6494295384049416
1783245623340150800,4.09815087890625,-1.9892519092440604,0.09171586840599774,-0.602361132433638
1783245623350163000,4.108162841796875,-2.2442460764884946,0.18746230750232934,-0.6067557871960103
1783245623360174800,4.1181748046875,-2.3219050702303647,0.3481102578371763,-0.6660874624129385
1783245623370185700,4.128185791015625,-2.2824130177974697,0.4457546395093202,-0.8435128714822232
1783245623380198000,4.138197998046875,-1.9358236859172582,0.5136807592660189,-1.0711610589005052
1783245623390209800,4.148209716796875,-1.4643237797766924,0.6432499729871749,-1.258578796608746
1783245623400221000,4.158220947265625,-1.0562281320542097,0.7361275786489248,-1.3874930535525083
1783245623410232800,4.16823291015625,-0.701406393879652,0.7029036467000842,-1.497905731382966
1783245623420245000,4.178244873046875,-0.3749924195438623,0.6050976447254419,-1.5946825364403425
1783245623430257000,4.1882568359375,-0.18056056528985498,0.4925771809607744,-1.587065777826309
1783245623440267800,4.198267822265625,-0.06603285335600376,0.398978859809041,-1.4893408782638609
1783245623450280000,4.208280029296875,0.08285247073173523,0.3619020518243313,-1.2731664171487092
1783245623460291800,4.218291748046875,0.23060382235348223,0.35445436616688963,-1.0319845021575689
1783245623470302700,4.228302734375,0.37629473431408406,0.3084229750931263,-0.8491209206223488
1783245623480315000,4.23831494140625,0.4427180482923984,0.25660394052863117,-0.6615289953909814
1783245623490326800,4.248326904296875,0.4810568390369415,0.2295768173933029,-0.5128087622044608
1783245623500338700,4.258338623046875,0.433960741341114,0.2731032399088144,-0.34643925588503477
1783245623510350000,4.26835009765625,0.2357370935887098,0.3494625492289662,-0.1508035605329089
1783245623520362000,4.278362060546875,-0.11241232721507549,0.44491088216155766,0.024231852693879043
1783245623530374000,4.288373779296875,-0.4467337136745453,0.4668827677339315,0.20955144451251254
1783245623540386000,4.298385986328125,-0.8026859171837568,0.46987230493873355,0.34445769014637917
1783245623550397000,4.30839697265625,-1.1650772138297558,0.5251724596172571,0.4565930270509794
1783245623560408800,4.318408935546875,-1.4057786518275737,0.6331494347333908,0.49452506362553683
1783245623570421000,4.3284208984375,-1.4662988792419434,0.8482248485654592,0.49775670249052345
1783245623580432000,4.338431884765625,-1.2424404394954442,1.0886682201489806,0.45263840767368674
1783245623590443800,4.34844384765625,-0.7360439920186996,1.2456491724088787,0.3602328399704769
1783245623600455700,4.35845556640625,-0.11533259857594966,1.2351818466693163,0.1607312081715092
1783245623610467800,4.3684677734375,0.4400584736943245,1.1507020669966936,-0.010344740539509803
1783245623620479000,4.37847900390625,1.0667471879810093,1.0402852975130081,-0.13425452199317514
1783245623630491000,4.388490966796875,1.6639520336300133,0.9171300424873828,-0.16404729218324646
1783245623640503000,4.3985029296875,2.043392080232501,0.8203697501733899,-0.11036449130717664
1783245623650514000,4.408513916015625,2.238068849158287,0.7498074366942048,-0.05137812239658087
1783245623660525800,4.41852587890625,2.4314871424555777,0.6641609513297677,-0.013223182052653283
1783245623670538000,4.4285380859375,2.586640294766426,0.6254296541363,0.02051022922170814
1783245623680550000,4.4385498046875,2.665750071838498,0.539753358155489,0.05601254529815632
1783245623690560800,4.448560791015625,2.630866974505782,0.39713615455180407,0.10964299036590382
1783245623700573000,4.458572998046875,2.4699253019213674,0.26713702498078346,0.08141376143181696
1783245623710584800,4.468584716796875,2.2095237226754425,0.11099661519825457,0.022587967077526264
1783245623720596700,4.4785966796875,1.9160440496921538,-0.054142509075999254,-0.05447217028862796
1783245623730607900,4.48860791015625,1.5415852986335754,-0.23415070118010042,-0.15125294826822355
1783245623740619800,4.498619873046875,1.1695698490738868,-0.43394203664064407,-0.22053813621737062
1783245623750632000,4.5086318359375,0.817797561597824,-0.5458297554597258,-0.20855585760390385
1783245623760642800,4.518642822265625,0.5062438872635364,-0.5566308431982994,-0.15136495727533475
1783245623770655000,4.528655029296875,0.2481517540037632,-0.5029898539036513,-0.08235643084309995
1783245623780667000,4.5386669921875,0.07260638652741909,-0.4275891604825854,-0.06857926360291894
1783245623790679000,4.548678955078125,-0.028138299247622487,-0.4063406207486987,-0.15786200941074638
1783245623800690000,4.55868994140625,-0.06034837797880172,-0.4865007836565375,-0.3383964173460379
1783245623810701800,4.568701904296875,-0.05486673169732093,-0.5927782613784074,-0.5475776585729792
1783245623820714000,4.5787138671875,-0.09575696049034595,-0.6280240545436739,-0.7004701359428465
1783245623830726000,4.588725830078125,-0.15216156927943228,-0.6493512124717236,-0.7700031794395298
1783245623840736800,4.59873681640625,-0.2035609171271324,-0.6254702784076333,-0.7540903016451745
1783245623850748700,4.608748779296875,-0.3083604312509298,-0.6507683857932687,-0.6682640757996589
1783245623860760800,4.6187607421875,-0.3950152168750763,-0.669022419886291,-0.48337370114456857
1783245623870772000,4.62877197265625,-0.5111503640055656,-0.710037444102764,-0.263440691213496
1783245623880784400,4.638784423828125,-0.6356131944984197,-0.7579688235789537,-0.04224146073888987
1783245623890796500,4.648796630859375,-0.8204600588053464,-0.7897787970766424,0.12542736467607318
1783245623900808400,4.658808349609375,-1.018614148452878,-0.7326599025383591,0.3101184173667803
1783245623910819600,4.668819580078125,-1.2426321626752614,-0.629493542574346,0.45017325966916977
1783245623920831500,4.67883154296875,-1.3800515053749083,-0.468726349774003,0.5386472235444932
1783245623930843400,4.688843505859375,-1.4262199668318032,-0.21847674670815467,0.5445990446209907
1783245623940855600,4.69885546875,-1.4008593156039715,-0.0756996763676405,0.45531522566750643
1783245623950866400,4.708866455078125,-1.2491466591358185,-0.0235693838968873,0.3180506716707721
1783245623960878300,4.71887841796875,-1.0964484987616538,0.006428279481828212,0.1831684827659279
1783245623970890500,4.728890380859375,-0.9374456852853298,0.0641901480987668,0.11678871566839516
1783245623980901400,4.7389013671875,-0.8196317912876605,0.19569179118722677,0.11319967820048332
1783245623990913300,4.748913330078125,-0.7303449035942554,0.3298687909647822,0.1248509164949879
1783245624000925200,4.75892529296875,-0.760972681570053,0.4389116417467594,0.1447680249620229
1783245624010937300,4.768937255859375,-0.9122054455667734,0.48849166521281,0.24606325729191303
1783245624020948500,4.778948486328125,-1.1120622474789619,0.6077721246317028,0.47110418482124805
1783245624030960400,4.78896044921875,-1.3037462643295525,0.8099895181953907,0.6309791780222207
1783245624040972500,4.79897265625,-1.4423165306299923,1.001306747560203,0.6651532503027469
1783245624050983400,4.8089833984375,-1.566813847914338,1.1125272346422075,0.5701566066604107
1783245624060995300,4.818995361328125,-1.5806360370397567,1.1615694979697466,0.3580076016690582
1783245624071007500,4.829007568359375,-1.474307998174429,1.1426721975371241,0.07629004347622394
1783245624081019400,4.839019287109375,-1.3711346239477396,1.1076114055499433,-0.13376498491056263
1783245624091030300,4.8490302734375,-1.2178086870640517,1.1008613467678428,-0.23928371668700127
1783245624101042400,4.85904248046875,-0.9931219797998666,1.0996773976802825,-0.23638671660386024
1783245624111054300,4.869054443359375,-0.698733959800005,1.0886591600596904,-0.15102577018253505
1783245624121066200,4.879066162109375,-0.36975451889038086,1.0628434585407376,0.006596840981766581
1783245624131077600,4.88907763671875,-0.03539163137674332,1.0364514184385538,0.24481128446944056
1783245624141089500,4.899089599609375,0.333681334990263,1.0055570984810591,0.5082201557725667
1783245624151101400,4.909101318359375,0.699537677398324,0.944431598649919,0.7755815640937537
1783245624161112300,4.9191123046875,1.0796639526993035,0.8328510460838675,1.0035838987119494
1783245624171124500,4.92912451171875,1.3468518310844897,0.6825482564136386,1.19645727147758
1783245624181136400,4.939136474609375,1.5221832635492085,0.5513540718391537,1.379170046365261
1783245624191148500,4.9491484375,1.5732260530442,0.45093730284422634,1.6099433800667524
1783245624201159400,4.959159423828125,1.4861901591479778,0.36155426129996776,1.858652183431387
1783245624211171300,4.96917138671875,1.3136685234069823,0.3056274991557002,2.040220172198117
1783245624221183500,4.97918359375,1.0348211868882178,0.31569559644460676,2.15065009342432
1783245624231194600,4.989194580078125,0.7563935370862483,0.41578269509375093,2.161127648296952
1783245624241206500,4.99920654296875,0.5190858331799507,0.6138245565384626,2.133969592258334
1783245624251218400,5.009218505859375,0.337653745752573,0.8348883971303701,1.9828258217193184
1783245624261230600,5.019230712890625,0.1340226859986782,0.9122431472286582,1.6703496257126331
1783245624271241500,5.029241455078125,-0.003496609944105148,0.8796876160606741,1.2489907379217444
1783245624281253400,5.03925341796875,-0.03688333123922348,0.7699453848376869,0.8522019355028867
1783245624291265500,5.049265625,0.04301847299337387,0.6884504661947488,0.5663847965041175
1783245624301277400,5.05927734375,0.1054793130815029,0.6463149135157465,0.41486265763938424
1783245624311288300,5.069288330078125,0.1989654060304165,0.5197440048277377,0.3720469406764954
1783245624321300500,5.079300537109375,0.2989946370124817,0.3962891823336482,0.3605753332652151
1783245624331312400,5.0893125,0.3992465708345175,0.3073842796951532,0.3986628526624292
1783245624341323300,5.0993232421875,0.5154109440594912,0.30422493888139723,0.49896384979058056
1783245624351335400,5.10933544921875,0.5742500865191221,0.34296120451092715,0.5560211868673562
1783245624361347300,5.119347412109375,0.6133896722525358,0.3383350060150027,0.6195750828891993
1783245624371359200,5.129359130859375,0.6964607541710138,0.32311727087795733,0.6054162456879392
1783245624381370400,5.139370361328125,0.8001596135765313,0.2514680389449,0.5754908803604543
1783245624391382500,5.149382568359375,0.8993523937344551,0.1775450168609619,0.5734846551045775
1783245624401394400,5.15939453125,1.0080892473071812,0.10463555573374032,0.5727571445476264
1783245624411406600,5.169406494140625,1.1049369256436825,0.05550619864463806,0.5727009573809803
1783245624421417500,5.17941748046875,1.1816010631293057,0.023293781825900077,0.5323580602724105
1783245624431429400,5.189429443359375,1.2132856566816568,-0.03648497957140207,0.47961522539388385
1783245624441441500,5.199441650390625,1.2896961116671561,-0.11394377456605434,0.4669610206019133
1783245624451452400,5.209452392578125,1.3769652297973631,-0.15679361299425362,0.52827459035106
1783245624461464300,5.21946435546875,1.4345909048140049,-0.2144379927113652,0.6246484406307339
1783245624471476200,5.229476318359375,1.4541045835793018,-0.2761471376493573,0.7330296126335859
1783245624481488400,5.23948828125,1.3586737863034009,-0.3857826936274767,0.7737739301498979
1783245624491499500,5.24949951171875,1.1073363880008458,-0.526683156441152,0.7548337404236197
1783245624501511400,5.259511474609375,0.8322492807984352,-0.6142345986440777,0.7035215594027191
1783245624511523600,5.269523681640625,0.5703694456934929,-0.642513183145225,0.6751215404789894
1783245624521534500,5.279534423828125,0.3381108418703079,-0.5944833117306232,0.6517050821214914
1783245624531546400,5.28954638671875,0.16387947960197924,-0.5150581850990653,0.6018318478625267
1783245624541558500,5.29955859375,0.04358195209503173,-0.5122799525573849,0.47834045621771365
1783245624551570400,5.3095703125,0.0004068272352218628,-0.6175064599215984,0.3101986795287579
1783245624561581300,5.319581298828125,0.00892974090874195,-0.7306395026266574,0.14884092782358638
1783245624571593500,5.329593505859375,0.06426525916159152,-0.810701465857029,0.07525730746157933
1783245624581605400,5.33960546875,0.11060206292271614,-0.8845765571460127,0.09434311163704842
1783245624591617300,5.3496171875,0.04860416417121887,-0.8923656035870313,0.1434820402720943
1783245624601628400,5.35962841796875,-0.12248597746193408,-0.8969576075524092,0.22002293497053904
1783245624611640600,5.369640625,-0.2714712547928095,-0.8844245814546943,0.2778648830863647
1783245624621652500,5.379652587890625,-0.48930970359742637,-0.8600874280557036,0.29608886910099536
1783245624631663400,5.389663330078125,-0.7646101612895727,-0.8218924296960234,0.2842266914695501
1783245624641675500,5.399675537109375,-1.0330033238112926,-0.7969955965876578,0.1872416687552817
1783245624651687400,5.4096875,-1.292809275251627,-0.7559715122818946,0.06742507033280562
1783245624661699600,5.419699462890625,-1.4737012644529341,-0.6860185628727078,-0.06672943905172869
1783245624671710500,5.42971044921875,-1.5228618934631346,-0.5928992574095726,-0.1608792383400723
1783245624681722400,5.439722412109375,-1.506206526738405,-0.48504620093405243,-0.2456672254453413
1783245624691734300,5.449734375,-1.3954022192418574,-0.4217983021214604,-0.29242422737991436
1783245624701746400,5.459746337890625,-1.2233604759722947,-0.4041600618392229,-0.3616008769206702
1783245624711757300,5.46975732421875,-1.1471592798233032,-0.4211550357818603,-0.44467729260139166
1783245624721769200,5.479769287109375,-1.1534084033459424,-0.4463242560908198,-0.48203123702704903
1783245624731781400,5.489781494140625,-1.093436457464099,-0.39930853015482426,-0.4967431415338069
1783245624741792500,5.49979248046875,-1.0117027616292238,-0.2570622056901455,-0.45719285610765215
1783245624751804400,5.509804443359375,-0.9533288985937833,-0.0669999448224902,-0.2938438666531816
1783245624761816600,5.519816650390625,-0.8779840270131826,0.11425766282081604,-0.03350274889022112
1783245624771828500,5.529828369140625,-0.7858499331951141,0.27289018168002366,0.20701356006534768
1783245624781839400,5.53983935546875,-0.7153226910293102,0.37052491874098775,0.3438269544947892
1783245624791851500,5.5498515625,-0.7441817057669162,0.3739557699725032,0.35338958647958935
1783245624801863400,5.559863525390625,-0.9271656988114118,0.361380366037786,0.31768830463178455
1783245624811874300,5.569874267578125,-1.120331478652358,0.3880512230813503,0.3028552396970801
1783245624821886200,5.57988623046875,-1.2094026777684688,0.47182986874729393,0.25445554858939723
1783245624831898400,5.5898984375,-1.287417060819268,0.6356985346943139,0.2263615999401547
1783245624841910300,5.59991015625,-1.2199790168404578,0.8544412388622761,0.12288804632364772
1783245624851921400,5.60992138671875,-0.8924760782241821,1.0837038757398725,-0.002709240692388266
1783245624861933600,5.61993359375,-0.49769817723631854,1.15469055211097,-0.17399121510321272
1783245624871945500,5.629945556640625,-0.19229718031287193,1.0844701839372515,-0.3226862590495497
1783245624881957400,5.639957275390625,0.021403438034653662,0.9398074459806084,-0.38702966148126866
1783245624891968500,5.649968505859375,0.23833237077891825,0.7480071092739701,-0.45875141066126524
1783245624901980400,5.65998046875,0.2765583487987518,0.6254273160487414,-0.4408475782454014
1783245624911992300,5.669992431640625,0.1325637193620205,0.5719073227852582,-0.39137507027443497
1783245624922003200,5.680003173828125,-0.001418050104379654,0.5834741341993213,-0.28417174641191956
1783245624932015400,5.690015380859375,-0.20640052446722984,0.6992199897512793,-0.11968819996956735
1783245624942027300,5.70002734375,-0.5746715268015861,0.8011074158206581,0.14774024570584296
1783245624952039400,5.710039306640625,-0.9951268898814916,0.7947136231303215,0.4594974432555958
1783245624962050600,5.720050537109375,-1.3856079704582691,0.7421823486432433,0.8003270790979266
1783245624972062500,5.7300625,-1.777699408841133,0.7280433486536145,1.1001635006967931
1783245624982074400,5.740074462890625,-2.0458827280044556,0.746977766226232,1.3745279196478426
1783245624992085500,5.75008544921875,-2.120556568455696,0.876862329506874,1.5776473766177892
1783245625002097400,5.760097412109375,-1.9027713111430407,1.0389864898741246,1.6727394434586167
1783245625012109300,5.770109375,-1.4180132795006035,1.1972852467343211,1.5837774038054049
1783245625022121500,5.78012158203125,-0.7966027978777885,1.245305765798688,1.3356880475133657
1783245625032132400,5.79013232421875,-0.2662000363916159,1.2376911991417407,1.0350042883701622
1783245625042144300,5.800144287109375,0.27641280284821984,1.2265148483499884,0.7502744696840643
1783245625052156400,5.810156494140625,0.7910445792287588,1.1502326959192752,0.5034682485377415
1783245625062168300,5.820168212890625,1.2162550278812647,1.032312418937683,0.23771469553830102
1783245625072179200,5.83017919921875,1.4829770423203705,0.9374494846776127,0.09920856224894523
1783245625082191400,5.84019140625,1.6014993768483399,0.9014294922694563,0.16775462226858362
1783245625092203300,5.850203369140625,1.6745844868034123,0.8845850327134132,0.35807613686062395
1783245625102214400,5.86021435546875,1.723813504874706,0.8134384896054864,0.574443124873191
1783245625112226600,5.8702265625,1.7631442292660473,0.6372580390959978,0.6988621162243187
1783245625122238500,5.880238525390625,1.770138618198037,0.37126521571427584,0.7122463523238897
1783245625132250400,5.89025048828125,1.7816630517750978,0.1400005913645029,0.6670372374184429
1783245625142261200,5.90026123046875,1.785983837583661,-0.003481412374973297,0.601817052152194
1783245625152273400,5.9102734375,1.7474854723632334,-0.07417085936516522,0.5401575185095892
1783245625162285300,5.920285400390625,1.7024124049276113,-0.15554712006449697,0.4602128615159541
1783245625172297500,5.93029736328125,1.62984751945436,-0.2952981205821037,0.30472172768870365
1783245625182308400,5.940308349609375,1.5409078377634287,-0.41667672132402656,0.14709412982203066
1783245625192320300,5.9503203125,1.3861872316509485,-0.48164311449229713,0.034512172527937215
1783245625202332400,5.96033251953125,1.2081254974395037,-0.5097729381725192,-0.06247045729984529
1783245625212343600,5.970343505859375,1.0240426032423973,-0.49706426324695346,-0.17614103181455285
1783245625222355500,5.98035546875,0.8069429901063442,-0.4596341117799282,-0.298168524919264
1783245625232367400,5.990367431640625,0.574393878903985,-0.43544075076580047,-0.3865098388582468
1783245625242379500,6.000379638671875,0.3401373792618513,-0.4844093643352389,-0.4500676804028451
1783245625252390400,6.010390380859375,0.10368716896772384,-0.5565814510986209,-0.5190512002579868
1783245625262402300,6.02040234375,-0.09163374308049678,-0.5658312177419662,-0.5042539555553347
1783245625272414500,6.03041455078125,-0.22919980077445506,-0.4681599480628967,-0.4639380925841629
1783245625282425300,6.04042529296875,-0.24670740041434763,-0.3922214945033192,-0.5061670957002788
1783245625292437200,6.050437255859375,-0.19808102441132067,-0.41492812409102914,-0.6614090222731233
1783245625302449400,6.060449462890625,-0.11565291657149791,-0.5046954887777566,-0.8661840644303709
1783245625312461300,6.07046142578125,-0.003898176482319832,-0.5729603389695287,-0.9533978721767663
1783245625322472400,6.080472412109375,0.13775368922054768,-0.6156973646730184,-0.9059133596852421
1783245625332484600,6.090484619140625,0.1864291650623083,-0.6333645387887954,-0.7984167154319584
1783245625342496500,6.10049658203125,0.11675064868032932,-0.668925389252603,-0.6284321969531476
1783245625352508400,6.11050830078125,-0.0928226606041193,-0.7273997900530695,-0.4547674190590158
1783245625362519300,6.120519287109375,-0.38902620559334755,-0.7539879372492432,-0.32115050084963437
1783245625372531500,6.130531494140625,-0.6478887387037277,-0.7624366166427731,-0.17222133762016892
1783245625382543400,6.14054345703125,-0.925529622042179,-0.6936687853649258,-0.0007360591895878315
1783245625392554200,6.15055419921875,-1.106793367165327,-0.5746648047998547,0.14723302683606743
1783245625402566400,6.16056640625,-1.2381500488251447,-0.40999183673262596,0.17513547150120137
1783245625412578300,6.170578369140625,-1.2902777109473942,-0.29944618017226454,0.04385002844668925
1783245625422590500,6.180590576171875,-1.2969868531972168,-0.2619488086879253,-0.16798917994312942
1783245625432601300,6.190601318359375,-1.2741940066307782,-0.2512099725306034,-0.37738581748642025
1783245625442613200,6.20061328125,-1.1030360604584217,-0.25618629963845013,-0.4822963907692581
1783245625452625200,6.210625244140625,-0.8401011633425951,-0.18663491676747798,-0.4839717035703361
1783245625462636500,6.220636474609375,-0.687528675174713,-0.07982756995260715,-0.38402671680562195
1783245625472648400,6.2306484375,-0.6527268263846635,-0.018236206175386904,-0.24032975514121352
1783245625482660400,6.240660400390625,-0.6294196005553007,0.1631020654886961,-0.02245426226183772
1783245625492672500,6.250672607421875,-0.7843062108844518,0.37336627964675423,0.25162359483279284
1783245625502683400,6.260683349609375,-1.0667530331999062,0.49731736122518777,0.44690519778393206
1783245625512695300,6.2706953125,-1.3752046498656272,0.5365574847236275,0.6048045069977641
1783245625522707500,6.28070751953125,-1.588311978495121,0.5967410275295376,0.7764358428355306
1783245625532719400,6.29071923828125,-1.7340473141193389,0.7870546328097582,0.8810296052541583
1783245625542730200,6.300730224609375,-1.7864485324859618,1.022215680076182,0.8738697966273874
1783245625552742400,6.310742431640625,-1.6824433836102484,1.2256658303052186,0.644002398789674
1783245625562754300,6.32075439453125,-1.371198921355605,1.309058691523969,0.2724428032387048
1783245625572765400,6.330765380859375,-0.9104279145002364,1.3125474104225634,-0.0801641814958304
1783245625582777300,6.34077734375,-0.49243923379480836,1.2740262488484382,-0.3538661910153925
1783245625592789500,6.35078955078125,-0.1755360151261091,1.2491308770447969,-0.48463981209024787
1783245625602801400,6.360801513671875,0.17312895398437975,1.0962304720968008,-0.560161574607715
1783245625612812300,6.370812255859375,0.5149976870834827,0.9003761838242411,-0.5735371890094131
1783245625622824400,6.380824462890625,0.7569102544367313,0.709491208396852,-0.45449565291292965
1783245625632836400,6.39083642578125,0.9647148004829883,0.6063087740808725,-0.24072204239442943
1783245625642847200,6.40084716796875,1.1683552125871182,0.5386792991831898,0.008180018519982695
1783245625652859400,6.410859375,1.2276526202082634,0.44860155337303875,0.28286870098933575
1783245625662871300,6.420871337890625,1.1752929028958081,0.35537703396975995,0.558624866559729
1783245625672883200,6.43088330078125,1.0191069004058837,0.282990427672863,0.837399941559881
1783245625682894600,6.44089453125,0.7846428954929113,0.19625731611549854,0.9863486862726509
1783245625692906500,6.450906494140625,0.5294482372403144,0.14749796138256788,1.0880020843904465
1783245625702918400,6.46091845703125,0.22437807970643042,0.14569558813571928,1.1140224416360258
1783245625712930600,6.4709306640625,-0.07327157243788242,0.1755561811313033,1.0569825306180864
1783245625722941400,6.48094140625,-0.269853298202157,0.2052250509470701,0.9397698173839598
1783245625732953300,6.490953369140625,-0.3918126214414835,0.19010726905316114,0.7283106212876737
1783245625742965500,6.500965576171875,-0.42411213202178477,0.18161942669302225,0.4878311554774642
1783245625752976400,6.510976318359375,-0.2558276954591274,0.2543243051588535,0.2553063749987632
1783245625762988300,6.52098828125,0.00511690462231636,0.32087942882329223,0.08144011971578001
1783245625773000400,6.53100048828125,0.30364509316682814,0.3330281317785382,-0.07359057525917888
1783245625783012400,6.541012451171875,0.6181383280843495,0.2822211968660354,-0.22738091478422282
1783245625793023200,6.551023193359375,0.8087257818698883,0.17846213170588016,-0.3398513288620859
1783245625803035100,6.56103515625,0.9237304636657238,0.009927227513492107,-0.37436931920945643
1783245625813047300,6.57104736328125,0.9375444694846868,-0.11859803011268377,-0.33024968004114924
1783245625823058400,6.581058349609375,0.8610662099599837,-0.0872471985593438,-0.16235066259950398
1783245625833070300,6.5910703125,0.7801420769423246,0.03245265531539917,0.024769042010232806
1783245625843082500,6.60108251953125,0.764404409584403,0.057095805923640726,0.1483933393197134
1783245625853094400,6.611094482421875,0.797263892135024,-0.008637772224843502,0.1675408881863579
1783245625863105300,6.621105224609375,0.8273831360667944,-0.09112900842875242,0.1279225790252909
1783245625873117400,6.631117431640625,0.8614321206629276,-0.16023177074939013,0.06220248141288757
1783245625883129000,6.641129150390625,0.8838111257314681,-0.20262831245213747,0.052636707622930407
1783245625893140000,6.651139892578125,0.9074263945966958,-0.2056219413101673,0.06540650161858648
1783245625903151900,6.66115185546875,0.9358668916612863,-0.25078970129191874,0.030486579406820237
1783245625913163800,6.671163818359375,0.9315542891591787,-0.297772401741147,0.026941088819690047
1783245625923176000,6.681176025390625,0.8451818276077508,-0.4034086589500308,0.009591237024776636
1783245625933187000,6.69118701171875,0.6757862149327993,-0.5196700628086924,0.04422116331402212
1783245625943199000,6.701198974609375,0.5169646032422781,-0.5462967884495854,0.11593063753433525
1783245625953211100,6.711211181640625,0.29452187551259995,-0.46623774782866234,0.22719653466064482
1783245625963223000,6.72122314453125,0.12999591470062732,-0.3869131589621305,0.3446349829420447
1783245625973234000,6.73123388671875,0.051226329368352884,-0.3308268223419785,0.4629408251751214
1783245625983246000,6.74124609375,0.03266542128324509,-0.32408962304145095,0.5178162516355514
1783245625993258000,6.751258056640625,0.08498656015098094,-0.4345093151345849,0.4786155102994293
1783245626003268900,6.761268798828125,0.1406540868371725,-0.5716589009821414,0.421616223552823
1783245626013281000,6.771281005859375,0.12356500487029552,-0.6606508973821997,0.4281960403345525
1783245626023293000,6.78129296875,0.1223848551750183,-0.6691513069629669,0.4454248230330646
1783245626033304800,6.791304931640625,0.11013912158608435,-0.6287202201142906,0.4997624162897467
1783245626043316000,6.80131591796875,0.12835048558115958,-0.6071744509994983,0.4834605757104233
1783245626053328100,6.811328125,0.1444973182618618,-0.6455974128961562,0.41320130029842256
1783245626063340000,6.821340087890625,0.172470197814703,-0.7274661332875489,0.35461156602259725
1783245626073352200,6.831352294921875,0.06900397812128066,-0.7759840804800391,0.26115460783662275
1783245626083363000,6.841363037109375,-0.09463117133080959,-0.778050657621026,0.1813674977585673
1783245626093375000,6.851375,-0.21721827107965944,-0.7742585718616842,0.16955573514010755
1783245626103387100,6.86138720703125,-0.36145723066627977,-0.7372504451990127,0.280811183937639
1783245626113398000,6.87139794921875,-0.5160580097913742,-0.66628276578933,0.3899839812422171
1783245626123410000,6.881409912109375,-0.6353834773957729,-0.5933765195325017,0.4687121020529419
1783245626133421800,6.891421875,-0.7909750211238861,-0.49671939533203835,0.48841889223754403
1783245626143434000,6.90143408203125,-0.9780629423558711,-0.42386546378433704,0.4221197160955518
1783245626153445000,6.911445068359375,-1.1305518438935278,-0.4515148104712367,0.2700101144653745
1783245626163457000,6.92145703125,-1.183062952375412,-0.44122634842991826,0.0845475385460537
1783245626173469200,6.93146923828125,-1.1238427016437054,-0.2929895513787866,-0.04500292480885982
1783245626183480000,6.94147998046875,-0.8736725935548544,-0.08446838149577379,-0.1544778468651697
1783245626193492000,6.951491943359375,-0.5746171662658452,0.034356735371053215,-0.1892634934390895
1783245626203504000,6.961504150390625,-0.307642053848505,0.02835428008586168,-0.2385932867374271
1783245626213516000,6.97151611328125,-0.10796353111267089,-0.06505377919077873,-0.3055999900942668
1783245626223527000,6.98152685546875,-0.12551847702562807,-0.07562778017520905,-0.261371301060915
1783245626233539000,6.9915390625,-0.27460078499019147,0.057573652568459505,-0.05456857073465362
1783245626243551000,7.001551025390625,-0.48762101985812184,0.20928250964432954,0.17875380812883376
1783245626253561900,7.011561767578125,-0.7368342656135559,0.31214608726948495,0.32443591572847214
1783245626263573800,7.02157373046875,-1.0368325267106293,0.3763257139742374,0.3963441273912787
1783245626273586000,7.0315859375,-1.304153676086664,0.5081462137535214,0.4400533225951716
1783245626283597800,7.041597900390625,-1.485550107678771,0.7365706462413072,0.4510656053990125
1783245626293609000,7.05160888671875,-1.5479413896620273,0.840823047876358,0.31540530826114116
1783245626303621000,7.06162109375,-1.4994278263837097,0.8139213046863675,0.0981365399701055
1783245626313633000,7.071633056640625,-1.3925409845918417,0.7968693398594856,-0.08208943220367655
1783245626323645200,7.081645263671875,-1.2912602922439576,0.9400734034404158,-0.14649022737843914
1783245626333656000,7.091656005859375,-1.0305991852790117,1.1911541966333985,-0.11411893020356073
1783245626343668000,7.10166796875,-0.6917541839152574,1.3436983354896306,-0.12091129375742747
1783245626353680000,7.111679931640625,-0.3359925345420837,1.278642218211293,-0.22396233851239084
1783245626363691000,7.12169091796875,-0.05891922195851802,1.1317281941965223,-0.3294035115405917
1783245626373703000,7.131702880859375,0.050427287945151326,1.00280429264158,-0.3398197646800428
1783245626383714800,7.14171484375,0.15008827013671397,0.8524433430433273,-0.36194519684631377
1783245626393727000,7.15172705078125,0.11165654041171073,0.7669865350320935,-0.26881675822865214
1783245626403738000,7.161738037109375,0.09389934992492198,0.8261185229584574,-0.12481142473481595
1783245626413750000,7.17175,0.0728016168385744,0.9329434054300189,0.03381459131836891
1783245626423762200,7.18176220703125,0.031737200522422786,1.0144590746000408,0.20346037936210631
1783245626433773000,7.19177294921875,-0.06780804633498191,1.0324863141998648,0.3848698165662586
1783245626443785000,7.201784912109375,-0.2989870382279157,1.0005267030984162,0.6410323700029402
1783245626453797000,7.211797119140625,-0.5564087248802184,0.9576499766632914,0.9461158984750508
1783245626463809000,7.22180908203125,-0.8724848450750112,0.9292959888383746,1.2426644575096666
1783245626473820000,7.23181982421875,-1.1894009232252836,0.8685060045719146,1.4922607112333177
1783245626483832000,7.24183203125,-1.4915315201759338,0.9435840419098734,1.7548429955191909
1783245626493844000,7.251843994140625,-1.7065870602637527,1.1161354882672427,1.9698148028463125
1783245626503855000,7.261855224609375,-1.740315142342448,1.303520054358244,2.0569852829076347
1783245626513867000,7.271866943359375,-1.5364438440918922,1.3927365071639417,1.9911304164670407
1783245626523879200,7.281879150390625,-1.1802046403348445,1.3741376051560044,1.7148866865754127
1783245626533891000,7.29189111328125,-0.7642904278159142,1.31207833160609,1.3538080799631773
1783245626543902000,7.30190185546875,-0.3817114986658096,1.1957944236546754,1.0055423393033445
1783245626553914000,7.3119140625,-0.06177227330207825,1.1168570805400608,0.7421539993315934
1783245626563926000,7.321926025390625,0.1786380727946758,1.1483815150946377,0.6217071995470672
1783245626573938000,7.33193798828125,0.3915945947766304,1.1934627658367156,0.5534882708562537
1783245626583949000,7.341948974609375,0.6680524058103561,1.2304063028305767,0.5638880477849394
1783245626593961000,7.3519609375,0.9688865332096814,1.264880819362402,0.6803298497118055
1783245626603972900,7.361972900390625,1.2199720025777816,1.2305696766987442,0.8103854587104171
1783245626613984000,7.37198388671875,1.3914485131800174,1.1092781697183847,0.9296561273876577
1783245626623996000,7.381995849609375,1.4828987163871525,0.9377879228517413,1.044773037386313
1783245626634007800,7.3920078125,1.5084756407141684,0.8030936212018132,1.1317819702103733
1783245626644020000,7.40202001953125,1.3647002069860696,0.7121218491613864,1.2120229432694614
1783245626654031000,7.412031005859375,1.1353776566147804,0.6677127985924481,1.2377164797134697
1783245626664043000,7.42204296875,0.983410148602724,0.6674941874057054,1.1786396560404448
1783245626674055200,7.43205517578125,0.8211819433391093,0.6952505015984177,1.0638402144931256
1783245626684066000,7.442066162109375,0.5698036285042762,0.7109884612172842,0.8391537994898856
1783245626694078000,7.452077880859375,0.33020693687796593,0.6378112890645862,0.6006389848161489
1783245626704090000,7.462090087890625,0.0723965431690216,0.6032368192896247,0.43640882861297575
1783245626714102000,7.47210205078125,-0.16868541857898234,0.7058847083374857,0.37659514203276484
1783245626724113000,7.48211279296875,-0.4445218828439712,0.8156532430455088,0.39878479854166504
1783245626734124800,7.492124755859375,-0.7093021155655383,0.8231056048780679,0.42179790026266123
1783245626744137000,7.502136962890625,-0.8978402356058358,0.7049161555662751,0.3849889859665185
1783245626754148000,7.512148193359375,-1.0794465105563402,0.5604109462589025,0.3516571366637945
1783245626764160000,7.522159912109375,-1.3096248009741305,0.5345101968050002,0.3655451575670391
1783245626774172200,7.532172119140625,-1.5622545771747827,0.5605141143724321,0.44784167491644616
1783245626784184000,7.54218408203125,-1.6420511674672364,0.6444146328523754,0.5730741015423089
1783245626794195000,7.55219482421875,-1.5806553262621164,0.6623708530426025,0.5774453754290938
1783245626804207000,7.56220703125,-1.367295484176278,0.542489212860167,0.5513401163790375
1783245626814219000,7.572218994140625,-1.0952227563589811,0.4481713452622294,0.5332428437503054
1783245626824231000,7.58223095703125,-0.874620688059926,0.40554216384738684,0.6374365374680608
1783245626834242000,7.592241943359375,-0.8007593330353499,0.4649079605296254,0.8295156911160796
1783245626844254000,7.60225390625,-0.878169904974103,0.5574997349873185,1.048221058948338
1783245626854265900,7.612265869140625,-0.995068437692523,0.6597466420188546,1.331994745953381
1783245626864277000,7.622277099609375,-1.1258896973013877,0.8197209308758377,1.5534553307779133
1783245626874289200,7.6322890625,-1.2209469850897787,1.0697522150158882,1.7188561747282742
1783245626884301000,7.642301025390625,-1.2137936062037944,1.4104258931115268,1.8016352879628539
1783245626894313200,7.652313232421875,-1.0513678325414657,1.6451017872095106,1.8153114927463232
1783245626904324000,7.662323974609375,-0.7598024687469005,1.8880311303898691,1.8424648726098238
1783245626914336000,7.6723359375,-0.507552047252655,2.010750332085788,1.720929620001465
1783245626924348200,7.68234814453125,-0.2594751120507717,1.8909771207138895,1.4461375502228737
1783245626934359000,7.692359130859375,-0.02569090609550476,1.6794725511059163,1.1967141688480973
1783245626944371000,7.702370849609375,0.035440146693587304,1.5845990954518316,1.1213730235945432
1783245626954383000,7.712383056640625,0.005042085820436477,1.6738284077391028,1.1660760886739938
1783245626964395000,7.72239501953125,-0.16127368101775647,1.8083666420444846,1.2027779989317058
1783245626974406000,7.732406005859375,-0.3477449316561222,1.8436904688820241,1.2415342844359576
1783245626984418000,7.74241796875,-0.41390696434974666,1.8364289534464477,1.3553563323184847
1783245626994430000,7.752429931640625,-0.4602683180302381,1.8253312208488583,1.4880698354147375
1783245627004441000,7.762441162109375,-0.5274398200273513,1.7463406862422823,1.6282652186989783
1783245627014453000,7.772452880859375,-0.5645084447056055,1.6329907859161494,1.8409208580382168
1783245627024465200,7.782465087890625,-0.5898065520912409,1.5560449088796973,2.150989992903173
1783245627034477000,7.79247705078125,-0.6403051517069339,1.4800766447037457,2.490357264575362
1783245627044488000,7.802488037109375,-0.738305507209897,1.430735690690577,2.855124934963882
1783245627054500000,7.8125,-0.7552174790441989,1.395251997116208,3.1879394239917396
1783245627064512000,7.822511962890625,-0.6698439654022454,1.4034887873247266,3.4673549157872796
1783245627074524000,7.83252392578125,-0.5544418087214231,1.4425252049446105,3.6505800241112705
1783245627084535000,7.84253515625,-0.41201720508038997,1.4962489040866493,3.6612984020024535
1783245627094547000,7.852546875,-0.2817635162264108,1.5440303536981344,3.4354432354807853
1783245627104558800,7.862558837890625,-0.2176473101466894,1.6048618390187621,3.0421590801820155
1783245627114570200,7.8725703125,-0.2516799281299114,1.6657830484494567,2.5993869636148212
1783245627124582100,7.88258203125,-0.2927589574933052,1.7437305037438868,2.213979971431941
1783245627134594000,7.892593994140625,-0.2930506339162588,1.7545868288010358,1.8204250363677739
1783245627144606200,7.902606201171875,-0.3364367711782455,1.697009961362183,1.4860856758601964
1783245627154617000,7.9126171875,-0.3470376601696014,1.584054321050644,1.2388248793467878
1783245627164629000,7.92262890625,-0.3167185097515583,1.4437375033438204,1.1222685841947793
1783245627174641200,7.93264111328125,-0.33286884956359863,1.2623626990616321,1.108542475854978
1783245627184652000,7.942652099609375,-0.378348159712553,1.0772057458922266,1.1493480951044708
1783245627194664000,7.952663818359375,-0.37162031276226043,0.9013245705902576,1.1631272488057613
1783245627204676000,7.962676025390625,-0.31861469876170156,0.8069941357716918,1.2368819285854697
1783245627214688000,7.97268798828125,-0.24896774656176565,0.7545607687011361,1.328736620940268
1783245627224699100,7.98269921875,-0.20033435629606247,0.6992474622800946,1.3876979284748434
1783245627234711000,7.9927109375,-0.19547347226142883,0.6908116423681377,1.3910305800288916
1783245627244723200,8.00272314453125,-0.22681202885508536,0.6884951821193098,1.325383949511498
1783245627254734000,8.012734130859375,-0.32710663277506824,0.7112792608574032,1.2367007267996668
1783245627264746000,8.02274609375,-0.41461306679248805,0.7504509952947497,1.1148672949623315
1783245627274758100,8.032758056640626,-0.42886955568194385,0.8262845271751285,0.969594096957147
1783245627284770000,8.04277001953125,-0.3392740404307842,0.8888158021509647,0.8687709391184151
1783245627294781000,8.052781005859375,-0.17172727049291134,0.9183128225311636,0.873282936650142
1783245627304793000,8.06279296875,-0.0319762699753046,0.887056683523953,0.8577930335082113
1783245627314805000,8.072804931640626,0.015596213060617446,0.7316518945395946,0.6836182237327099
1783245627324817000,8.08281689453125,0.07206628830134869,0.5329679357990622,0.5228934087693691
1783245627334828000,8.092828125,0.04540799847841263,0.43373686945736406,0.40827202720269556
1783245627344840000,8.10283984375,-0.10562661259770392,0.4223457068711519,0.37617746460996565
1783245627354851800,8.112851806640625,-0.21693127083182334,0.42204497035890814,0.36631321933008726
1783245627364863200,8.12286328125,-0.2930155626028776,0.42890316569060083,0.3526175426611677
1783245627374875100,8.132875244140624,-0.3942413098931312,0.40354514481127257,0.25864929221849886
1783245627384887000,8.142886962890625,-0.49007776536047454,0.3402861400827765,0.14091123993601648
1783245627394899200,8.152899169921875,-0.5290115993887186,0.2705611542105675,0.06631145110167562
1783245627404910000,8.16291015625,-0.5325350973397494,0.20747136856913564,0.0321720117431134
1783245627414922000,8.172921875,-0.4970476043730974,0.14002806389331818,0.0006335121305659413
1783245627424934100,8.18293408203125,-0.4561287340074777,0.10382482387274503,0.03261767315138131
1783245627434945000,8.192945068359375,-0.4544651847094297,0.02500321609228849,0.10515757031384855
1783245627444957000,8.20295703125,-0.38083120869994164,-0.07955255240350961,0.1795229658704251
1783245627454968800,8.21296875,-0.28998832373619077,-0.10229425330460071,0.22791699442230165
1783245627464981000,8.22298095703125,-0.2398725859582424,-0.04208294570893049,0.3023702509254217
1783245627474992000,8.2329921875,-0.1766039366185665,0.016438801364600658,0.33840872883833945
1783245627485004000,8.243004150390625,-0.11077157427072525,0.017974048107862472,0.3146264693757519
1783245627495016200,8.25301611328125,-0.05813420906066894,-0.004559270739555359,0.23022260448355225
1783245627505027000,8.263027099609374,-0.07265840897560119,-0.08693447934836149,0.14689886297825722
1783245627515039000,8.2730390625,-0.15367898810505867,-0.19021072942763567,0.0631329671960324
1783245627525051100,8.283051025390625,-0.29642800139486786,-0.16837708328217266,0.08879775246959179
1783245627535063000,8.29306298828125,-0.525209869018197,-0.1002621629551053,0.1284903324432671
1783245627545074000,8.303073974609376,-0.8072235606133937,-0.09575023848861455,0.2277460948348045
1783245627555086000,8.313086181640625,-0.931935981953144,-0.09222381792813539,0.2882765879148617
1783245627565098000,8.323097900390625,-0.9204682469993829,-0.10888473761081695,0.3274081364722922
1783245627575110000,8.33310986328125,-0.7538216407716274,-0.1092354507446289,0.31389238294754174
1783245627585121300,8.343121337890626,-0.5007891289889812,-0.03885053965896368,0.337286044951342
1783245627595133200,8.35313330078125,-0.32153380107879637,0.017248071920871733,0.32532994195874776
1783245627605145000,8.36314501953125,-0.2049906576693058,-0.019558979211747644,0.22908351745102554
1783245627615156000,8.373156005859375,-0.20285656825006007,-0.036221360199153424,0.13754625701494513
1783245627625168100,8.383168212890626,-0.2999059066385031,0.03499211066514253,0.11956439092680811
1783245627635180000,8.393179931640624,-0.3838771522670984,0.12564444149285553,0.15574041414689271
1783245627645192200,8.403192138671875,-0.4237701867163181,0.2577250535130501,0.1976942901160568
1783245627655203000,8.413203125,-0.38667175142168997,0.3982973072856664,0.24015659053139388
1783245627665215000,8.423215087890625,-0.24785890853703021,0.4699076685130596,0.26246607402767985
1783245627675227000,8.433226806640626,-0.05995207213759422,0.5123121012613177,0.3124229679821059
1783245627685239000,8.443239013671874,0.08871288719773292,0.4821262218341231,0.34820027420818805
1783245627695250000,8.45325,0.15383154831826687,0.44413785196244715,0.35779819670207796
1783245627705261800,8.46326171875,0.26278350594639777,0.34367636704295873,0.25261903561092913
1783245627715274000,8.47327392578125,0.28671149402260776,0.252997440469265,0.09807020586878061
1783245627725285000,8.48328515625,0.30519407617449756,0.29625235256701704,0.012771437963470815
1783245627735297000,8.493297119140625,0.32777298772931096,0.40240708069205283,-0.0698184363093227
1783245627745309200,8.50330908203125,0.2882785972088575,0.4875795188039541,-0.14257263380959628
1783245627755321000,8.513321044921875,0.2514443658083677,0.4998386963963508,-0.229081946548447
1783245627765332000,8.52333203125,0.2645528537064791,0.5075085003718733,-0.24808351107314228
1783245627775344000,8.53334423828125,0.1819850451350212,0.5391173983395099,-0.16206855772249398
1783245627785356000,8.54335595703125,0.1636731433749199,0.602531301368773,0.06213474993892014
1783245627795367000,8.553366943359375,0.18413024047017096,0.6898539032518863,0.3405837713224813
1783245627805379000,8.563379150390626,0.13197393677532673,0.645066374759376,0.47197599921971556
1783245627815391000,8.573390869140624,0.20253566573262213,0.5584969293311238,0.5482544983886182
1783245627825403000,8.58340283203125,0.14376841946542263,0.5471677260652185,0.5813656176127493
1783245627835414000,8.5934140625,0.16363573397397993,0.6335460328355431,0.4996589559152722
1783245627845426200,8.60342626953125,0.2273164712458849,0.819688782171905,0.3699196463242173
1783245627855438000,8.61343798828125,0.08094692937135696,0.8246601408436894,0.2179908628873527
1783245627865450200,8.6234501953125,0.3845616273999214,0.510524925583601,-0.027660964059457182
1783245627875461000,8.633461181640625,0.9921510889410972,0.20952917788177727,-0.3274709360428154
1783245627885472500,8.643472412109375,1.2272761881113052,0.1401362004429102,-0.41328799220118667
1783245627895484400,8.653484375,1.0093249265819788,0.3432961355537176,-0.2920434661677107
1783245627905495300,8.663495361328126,0.5304354947119951,0.5571747408166527,-0.09051832918450235
1783245627915507500,8.673507568359375,0.04905249246060848,0.7325728087767959,-0.1513346900012344
