time,seconds_elapsed,z,y,x
1783245557555081700,0.069081787109375,-0.16455860435962677,0.3958866000175476,-0.1400337815284729
1783245557565093600,0.07909375,-0.0773414671421051,0.26020461320877075,-0.14990532398223877
1783245557575105800,0.089105712890625,0.00251421588473022,0.14399519562721252,-0.14909757673740387
1783245557585117000,0.099116943359375,0.05567213520407677,0.07174096256494522,-0.1422479897737503
1783245557595128800,0.10912890625,0.07458456605672836,0.032106462866067886,-0.12791620194911957
1783245557605140700,0.119140625,0.06903006881475449,0.01931772381067276,-0.1074274331331253
1783245557615153000,0.12915283203125,0.05087423697113991,0.04000755399465561,-0.08571521937847137
1783245557625163800,0.139163818359375,0.03364752605557442,0.08924797922372818,-0.07420036941766739
1783245557635175700,0.14917578125,0.007704610005021095,0.145385280251503,-0.07022693753242493
1783245557645187800,0.159187744140625,-0.03211023285984993,0.19258759915828705,-0.07470064610242844
1783245557655199700,0.16919970703125,-0.07916030287742615,0.23185084760189056,-0.07346653193235397
1783245557665210600,0.179210693359375,-0.12952743470668793,0.25481730699539185,-0.06258266419172287
1783245557675222500,0.189222412109375,-0.16930919885635376,0.25860780477523804,-0.042750366032123566
1783245557685234700,0.199234619140625,-0.20828787982463837,0.2694927453994751,-0.012960769236087799
1783245557695246600,0.20924658203125,-0.24505174160003662,0.2743026912212372,0.02114899829030037
1783245557705257700,0.2192578125,-0.27693164348602295,0.28272631764411926,0.05346818268299103
1783245557715270000,0.229269775390625,-0.29771655797958374,0.29712843894958496,0.0716589018702507
1783245557725281800,0.23928173828125,-0.3173854351043701,0.32259321212768555,0.08229942619800568
1783245557735294000,0.2492939453125,-0.33150553703308105,0.36584722995758057,0.08321742713451385
1783245557745304800,0.259304931640625,-0.3355405330657959,0.4147138297557831,0.08819905668497086
1783245557755316700,0.269316650390625,-0.3336787223815918,0.4597899615764618,0.10392821580171585
1783245557765328600,0.27932861328125,-0.3196670413017273,0.5162817239761353,0.1261218637228012
1783245557775340800,0.2893408203125,-0.29058319330215454,0.5827494263648987,0.15718844532966614
1783245557785351700,0.2993515625,-0.2495540827512741,0.5996769666671753,0.18882732093334198
1783245557795363600,0.309363525390625,-0.2019873708486557,0.5671629905700684,0.2183426022529602
1783245557805375700,0.319375732421875,-0.15890850126743317,0.4669990837574005,0.24471735954284668
1783245557815387400,0.329387451171875,-0.12253184616565704,0.3371981978416443,0.25477054715156555
1783245557825398500,0.3393984375,-0.0976555272936821,0.2441049963235855,0.2476397156715393
1783245557835410700,0.34941064453125,-0.07794254273176193,0.20410777628421783,0.22112342715263367
1783245557845422600,0.359422607421875,-0.060316093266010284,0.19835230708122253,0.17795437574386597
1783245557855434500,0.3694345703125,-0.03185329586267471,0.22339560091495514,0.11988440901041031
1783245557865445600,0.379445556640625,0.007925545796751976,0.26906028389930725,0.05833057686686516
1783245557875457500,0.38945751953125,0.047510504722595215,0.3104463219642639,0.006286282557994127
1783245557885469400,0.399469482421875,0.0799233615398407,0.32166680693626404,-0.025851747021079063
1783245557895481600,0.409481689453125,0.10574323683977127,0.32918545603752136,-0.04305603355169296
1783245557905492500,0.419492431640625,0.12254959344863892,0.3347785174846649,-0.04275069758296013
1783245557915504400,0.42950439453125,0.13826650381088257,0.3047417998313904,-0.01785014197230339
1783245557925516500,0.4395166015625,0.16437874734401703,0.23392193019390106,0.012619080021977425
1783245557935528400,0.449528564453125,0.20235036313533783,0.1318538933992386,0.03118290938436985
1783245557945539600,0.45953955078125,0.2444782704114914,0.0006659168284386396,0.026898549869656563
1783245557955551500,0.469551513671875,0.2782037556171417,-0.13778117299079895,0.010312650352716446
1783245557965563600,0.479563720703125,0.2887418270111084,-0.26228898763656616,-0.002308206632733345
1783245557975575600,0.489575439453125,0.268974244594574,-0.36399802565574646,0.007617128547281027
1783245557985586400,0.49958642578125,0.22462919354438782,-0.4090096950531006,0.04072980955243111
1783245557995598600,0.5095986328125,0.16240176558494568,-0.4022543132305145,0.09270858764648438
1783245558005610500,0.519610595703125,0.0750163272023201,-0.3329031467437744,0.14564478397369385
1783245558015621400,0.529621337890625,-0.023292401805520058,-0.19672855734825134,0.19721315801143646
1783245558025633500,0.539633544921875,-0.12300999462604523,-0.047518983483314514,0.23488597571849823
1783245558035645400,0.5496455078125,-0.22499388456344604,0.0448056198656559,0.2631649971008301
1783245558045657300,0.5596572265625,-0.32678645849227905,0.0741778090596199,0.2836734652519226
1783245558055669500,0.56966943359375,-0.4193110764026642,0.03702856972813606,0.29501986503601074
1783245558065680400,0.579680419921875,-0.4809022545814514,0.000559447449631989,0.3012973666191101
1783245558075692300,0.5896923828125,-0.5122383236885071,-0.008850298821926117,0.2941960394382477
1783245558085704400,0.599704345703125,-0.5305087566375732,0.022357333451509476,0.2800741493701935
1783245558095716400,0.60971630859375,-0.5282211303710938,0.08268831670284271,0.2624317705631256
1783245558105727500,0.6197275390625,-0.5036517381668091,0.15999041497707367,0.24247871339321136
1783245558115739600,0.62973974609375,-0.46219807863235474,0.25885307788848877,0.20957136154174805
1783245558125751600,0.63975146484375,-0.40393632650375366,0.36052361130714417,0.161627396941185
1783245558135762400,0.649762451171875,-0.33905959129333496,0.4377419650554657,0.10231214761734009
1783245558145774600,0.659774658203125,-0.265235960483551,0.49207940697669983,0.04340323433279991
1783245558155786500,0.669786376953125,-0.18834435939788818,0.460986465215683,-0.009641608223319054
1783245558165798400,0.67979833984375,-0.13218681514263153,0.3471933603286743,-0.04204995185136795
1783245558175809300,0.689809326171875,-0.09554412215948105,0.18231971561908722,-0.054944444447755814
1783245558185821400,0.699821533203125,-0.07453843951225281,-0.006975432857871056,-0.04612577706575394
1783245558195833300,0.709833251953125,-0.07526175677776337,-0.17904971539974213,-0.01827230677008629
1783245558205845500,0.719845458984375,-0.08884387463331223,-0.2873649299144745,0.017361443489789963
1783245558215856600,0.729856689453125,-0.1028696820139885,-0.32305821776390076,0.05748862400650978
1783245558225868500,0.73986865234375,-0.12761396169662476,-0.28699561953544617,0.08840898424386978
1783245558235880700,0.749880615234375,-0.15785947442054749,-0.22050686180591583,0.10583777725696564
1783245558245892600,0.759892578125,-0.1985747367143631,-0.15950022637844086,0.11320693790912628
1783245558255903500,0.769903564453125,-0.2391141802072525,-0.13153117895126343,0.11027612537145615
1783245558265915400,0.779915283203125,-0.27222609519958496,-0.12594419717788696,0.09706052392721176
1783245558275927600,0.789927490234375,-0.285032719373703,-0.10666103661060333,0.07516667991876602
1783245558285939500,0.799939453125,-0.29001474380493164,-0.09371177852153778,0.055072467774152756
1783245558295950300,0.809950439453125,-0.304035484790802,-0.07491093128919601,0.04022374749183655
1783245558305962500,0.81996240234375,-0.3156931698322296,-0.033525507897138596,0.02319575473666191
1783245558315974400,0.829974365234375,-0.3150867819786072,-0.006340228021144867,0.010834425687789917
1783245558325986300,0.839986328125,-0.32736489176750183,0.012396163307130337,0.008418013341724873
1783245558335997700,0.849997802734375,-0.3519943356513977,0.018153652548789978,0.005164962261915207
1783245558346009600,0.860009521484375,-0.38906601071357727,0.045454442501068115,0.006995013449341059
1783245558356021500,0.870021484375,-0.42823630571365356,0.06289015710353851,0.009914902970194817
1783245558366033700,0.88003369140625,-0.464657187461853,0.06446365267038345,0.018348410725593567
1783245558376044500,0.89004443359375,-0.488267183303833,0.08508850634098053,0.02535305730998516
1783245558386056400,0.900056396484375,-0.5146909356117249,0.11219587177038193,0.039915088564157486
1783245558396068600,0.910068603515625,-0.5337794423103333,0.11353331059217453,0.06039852276444435
1783245558406080500,0.92008056640625,-0.5463365912437439,0.09332628548145294,0.07109982520341873
1783245558416091400,0.93009130859375,-0.5497869849205017,0.0652211531996727,0.07351584732532501
1783245558426103600,0.940103515625,-0.5556989908218384,0.0061885034665465355,0.06670814007520676
1783245558436115500,0.950115478515625,-0.5589712262153625,-0.07096380740404129,0.0593293234705925
1783245558446127400,0.96012744140625,-0.5602195262908936,-0.14735840260982513,0.053938623517751694
1783245558456138500,0.970138427734375,-0.5710175633430481,-0.20106717944145203,0.05470641329884529
1783245558466150400,0.980150390625,-0.5899453163146973,-0.2317502796649933,0.0631323829293251
1783245558476162600,0.99016259765625,-0.6167699694633484,-0.23948116600513458,0.08123761415481567
1783245558486174500,1.000174560546875,-0.6530497670173645,-0.2339233011007309,0.10613677650690079
1783245558496185600,1.010185546875,-0.7046828866004944,-0.2114475518465042,0.14371931552886963
1783245558506197500,1.020197509765625,-0.7633925676345825,-0.18917542695999146,0.182973250746727
1783245558516209700,1.030209716796875,-0.8237448930740356,-0.15837223827838898,0.22055098414421082
1783245558526221600,1.0402216796875,-0.8817422389984131,-0.13915762305259705,0.24257931113243103
1783245558536232400,1.050232421875,-0.9389051795005798,-0.15942586958408356,0.24828992784023285
1783245558546244400,1.060244384765625,-0.9843015670776367,-0.22216852009296417,0.24038267135620117
1783245558556256500,1.070256591796875,-1.0204750299453735,-0.28845781087875366,0.22005689144134521
1783245558566268400,1.080268310546875,-1.043052077293396,-0.3366888165473938,0.19108256697654724
1783245558576279300,1.090279296875,-1.0577783584594727,-0.3706204295158386,0.1658821403980255
1783245558586291500,1.10029150390625,-1.068895936012268,-0.38220658898353577,0.14704187214374542
1783245558596303400,1.110303466796875,-1.0771442651748657,-0.368480920791626,0.12836351990699768
1783245558606315500,1.1203154296875,-1.0881373882293701,-0.3156302869319916,0.0972173884510994
1783245558616326700,1.13032666015625,-1.1100947856903076,-0.2118234634399414,0.04916383698582649
1783245558626338600,1.140338623046875,-1.1598163843154907,-0.04078470915555954,-0.013928298838436604
1783245558636350500,1.1503505859375,-1.2333356142044067,0.13342411816120148,-0.07725373655557632
1783245558646362600,1.160362548828125,-1.306323528289795,0.2336728572845459,-0.11958488821983337
1783245558656373500,1.17037353515625,-1.3516179323196411,0.2964193522930145,-0.13542111217975616
1783245558666385400,1.180385498046875,-1.3803107738494873,0.25574028491973877,-0.11375341564416885
1783245558676397600,1.1903974609375,-1.4108362197875977,0.12065863609313965,-0.05107245594263077
1783245558686409500,1.200409423828125,-1.4164056777954102,-0.10062537342309952,0.050242289900779724
1783245558696420400,1.21042041015625,-1.3975260257720947,-0.3583517074584961,0.18957701325416565
1783245558706432500,1.2204326171875,-1.3666545152664185,-0.5558387637138367,0.3372408151626587
1783245558716444400,1.2304443359375,-1.3391553163528442,-0.6225137114524841,0.4544025957584381
1783245558726456300,1.240456298828125,-1.3335027694702148,-0.561066746711731,0.5114585161209106
1783245558736467700,1.2504677734375,-1.3638542890548706,-0.440353661775589,0.5086385011672974
1783245558746479600,1.260479736328125,-1.4006093740463257,-0.28895822167396545,0.45379242300987244
1783245558756491500,1.270491455078125,-1.4257997274398804,-0.15232180058956146,0.3666154444217682
1783245558766503700,1.280503662109375,-1.455023169517517,-0.06154549866914749,0.2725808322429657
1783245558776514600,1.2905146484375,-1.4733326435089111,-0.04356170445680618,0.1858547180891037
1783245558786526500,1.3005263671875,-1.4712035655975342,-0.09580573439598083,0.12497957795858383
1783245558796538600,1.31053857421875,-1.4544919729232788,-0.20144161581993103,0.10795052349567413
1783245558806550500,1.320550537109375,-1.4260787963867188,-0.3309459090232849,0.13791728019714355
1783245558816561400,1.3305615234375,-1.4113470315933228,-0.45668575167655945,0.21349379420280457
1783245558826573300,1.3405732421875,-1.396206259727478,-0.5341404676437378,0.31339582800865173
1783245558836585200,1.350585205078125,-1.3738852739334106,-0.5749004483222961,0.4124755561351776
1783245558846597400,1.360597412109375,-1.3686341047286987,-0.5679832696914673,0.47479894757270813
1783245558856608500,1.3706083984375,-1.3874411582946777,-0.5216653347015381,0.49061545729637146
1783245558866620400,1.380620361328125,-1.4220032691955566,-0.45706304907798767,0.4709070324897766
1783245558876632600,1.390632568359375,-1.457297682762146,-0.40014463663101196,0.43356338143348694
1783245558886644500,1.40064453125,-1.4814156293869019,-0.3189138174057007,0.3961819112300873
1783245558896655400,1.4106552734375,-1.493670105934143,-0.22243867814540863,0.369192898273468
1783245558906667500,1.42066748046875,-1.502162218093872,-0.11384808272123337,0.34627383947372437
1783245558916679400,1.430679443359375,-1.5047650337219238,-0.015124171040952206,0.3210670053958893
1783245558926691300,1.44069140625,-1.502710223197937,0.06318513303995132,0.29205551743507385
1783245558936702500,1.450702392578125,-1.4945074319839478,0.10647295415401459,0.26214101910591125
1783245558946714400,1.46071435546875,-1.4667227268218994,0.12810856103897095,0.23178713023662567
1783245558956726300,1.470726318359375,-1.4186720848083496,0.1355379819869995,0.20339463651180267
1783245558966738400,1.480738525390625,-1.3623113632202148,0.117786705493927,0.1880384385585785
1783245558976749300,1.490749267578125,-1.2927722930908203,0.05885734409093857,0.1964295357465744
1783245558986761200,1.50076123046875,-1.2228419780731201,-0.03749869018793106,0.23253926634788513
1783245558996773400,1.5107734375,-1.165995717048645,-0.1512521654367447,0.2937219440937042
1783245559006785300,1.520785400390625,-1.1296417713165283,-0.23693978786468506,0.36184683442115784
1783245559016796400,1.53079638671875,-1.1060423851013184,-0.2844420373439789,0.41517025232315063
1783245559026808300,1.540808349609375,-1.1008753776550293,-0.2951214909553528,0.44474127888679504
1783245559036820500,1.550820556640625,-1.0972118377685547,-0.2890031337738037,0.4596525728702545
1783245559046832400,1.560832275390625,-1.0781829357147217,-0.28346681594848633,0.46204495429992676
1783245559056843300,1.57084326171875,-1.042574167251587,-0.2800651788711548,0.45783770084381104
1783245559066855400,1.58085546875,-0.9942606091499329,-0.27068060636520386,0.4402579665184021
1783245559076867300,1.590867431640625,-0.9356545805931091,-0.25447607040405273,0.4064858853816986
1783245559086879500,1.60087939453125,-0.8723095655441284,-0.2432592809200287,0.3445836007595062
1783245559096890400,1.610890380859375,-0.8054794073104858,-0.18919898569583893,0.2585102319717407
1783245559106902300,1.62090234375,-0.7379259467124939,-0.10640674084424973,0.15906591713428497
1783245559116914200,1.6309140625,-0.6917930245399475,-0.029085321351885796,0.05409581959247589
1783245559126926300,1.64092626953125,-0.6707630753517151,0.02485537715256214,-0.03893205523490906
1783245559136937500,1.6509375,-0.6659233570098877,0.017052315175533295,-0.10655184835195541
1783245559146949400,1.660949462890625,-0.6867030262947083,-0.03213795647025108,-0.13720209896564484
1783245559156961500,1.67096142578125,-0.7199466824531555,-0.08086767792701721,-0.1379491090774536
1783245559166973400,1.680973388671875,-0.7574458122253418,-0.1066318154335022,-0.11351468414068222
1783245559176984300,1.690984375,-0.7848614454269409,-0.09014737606048584,-0.06750458478927612
1783245559186996500,1.70099658203125,-0.783738911151886,-0.04992585629224777,-0.011303763836622238
1783245559197008400,1.71100830078125,-0.7510595321655273,0.0031751790083944798,0.0346757136285305
1783245559207020300,1.721020263671875,-0.7064671516418457,0.061391107738018036,0.06896006315946579
1783245559217031400,1.731031494140625,-0.6556441783905029,0.09653977304697037,0.08454009145498276
1783245559227043300,1.741043212890625,-0.6030802726745605,0.0678202360868454,0.08473900705575943
1783245559237055200,1.75105517578125,-0.5553737878799438,-0.005938406102359295,0.07053717225790024
1783245559247067400,1.7610673828125,-0.5082457065582275,-0.09705759584903717,0.058473993092775345
1783245559257078500,1.77107861328125,-0.46494507789611816,-0.19487416744232178,0.048790473490953445
1783245559267090400,1.78109033203125,-0.4257749319076538,-0.26964282989501953,0.049049463123083115
1783245559277102600,1.7911025390625,-0.4001680910587311,-0.27926963567733765,0.05643307790160179
1783245559287114500,1.801114501953125,-0.3825804591178894,-0.23793627321720123,0.06505993008613586
1783245559297125400,1.81112548828125,-0.3819112181663513,-0.18281123042106628,0.08238565921783447
1783245559307137500,1.821137451171875,-0.3967756927013397,-0.12496574968099594,0.10069794207811356
1783245559317149400,1.8311494140625,-0.42429786920547485,-0.05194666609168053,0.11575865000486374
1783245559327161300,1.841161376953125,-0.4521574378013611,0.0009124111384153366,0.1263250708580017
1783245559337172200,1.851172119140625,-0.47791871428489685,0.021233662962913513,0.13835696876049042
1783245559347184400,1.861184326171875,-0.4974913001060486,0.013844626955688,0.14698350429534912
1783245559357196300,1.8711962890625,-0.49935364723205566,-0.011426374316215515,0.14871668815612793
1783245559367208400,1.88120849609375,-0.49021488428115845,-0.019388752058148384,0.1314643770456314
1783245559377219300,1.89121923828125,-0.49431589245796204,0.015183873474597931,0.09077313542366028
1783245559387231200,1.901231201171875,-0.48643580079078674,0.0885007232427597,0.032040853053331375
1783245559397243100,1.9112431640625,-0.47266221046447754,0.14951081573963165,-0.03158685937523842
1783245559407255300,1.92125537109375,-0.45257002115249634,0.23582658171653748,-0.09996872395277023
1783245559417266400,1.931266357421875,-0.4363100826740265,0.36290812492370605,-0.14822518825531006
1783245559427278300,1.9412783203125,-0.4402095675468445,0.4827583432197571,-0.154747873544693
1783245559437290500,1.95129052734375,-0.4827096164226532,0.5841163992881775,-0.10061753541231155
1783245559447302400,1.961302490234375,-0.5587875247001648,0.6579340696334839,0.003987912554293871
1783245559457313300,1.971313232421875,-0.654941976070404,0.7081722021102905,0.12912052869796753
1783245559467325400,1.981325439453125,-0.7546573877334595,0.7401695847511292,0.252743661403656
1783245559477337300,1.99133740234375,-0.8385411500930786,0.758563220500946,0.3348441421985626
1783245559487349200,2.001349365234375,-0.9017825126647949,0.8045393824577332,0.3586690425872803
1783245559497360400,2.0113603515625,-0.9352706670761108,0.7960284352302551,0.34737616777420044
1783245559507372300,2.021372314453125,-0.9258511066436768,0.7139591574668884,0.32785797119140625
1783245559517384200,2.03138427734375,-0.8565942645072937,0.594514787197113,0.31742557883262634
1783245559527396400,2.041396240234375,-0.7349058985710144,0.4238485097885132,0.3149262070655823
1783245559537407500,2.051407470703125,-0.6004160046577454,0.17377129197120667,0.3353137671947479
1783245559547419400,2.06141943359375,-0.4790310859680176,-0.10661816596984863,0.38102447986602783
1783245559557431600,2.071431640625,-0.3747137486934662,-0.37401923537254333,0.4555527865886688
1783245559567443500,2.081443359375,-0.30409562587738037,-0.5909602046012878,0.5346656441688538
1783245559577454300,2.091454345703125,-0.2972550392150879,-0.6949593424797058,0.594118058681488
1783245559587466500,2.101466552734375,-0.3487255275249481,-0.7347989082336426,0.6259222030639648
1783245559597478400,2.111478515625,-0.45004868507385254,-0.7382128238677979,0.6405760049819946
1783245559607490300,2.121490234375,-0.5621170401573181,-0.6761948466300964,0.6300199031829834
1783245559617501200,2.131501220703125,-0.6796159744262695,-0.5361440181732178,0.6181222200393677
1783245559627513300,2.141513427734375,-0.8240572214126587,-0.2877032160758972,0.6072993278503418
1783245559637525200,2.151525146484375,-0.9730312824249268,0.0225992351770401,0.5804064869880676
1783245559647537400,2.161537353515625,-1.089203119277954,0.29141438007354736,0.55138099193573
1783245559657548500,2.171548583984375,-1.1524752378463745,0.49215254187583923,0.5217687487602234
1783245559667560400,2.181560546875,-1.154175877571106,0.609385073184967,0.4806835651397705
1783245559677572600,2.191572509765625,-1.1015129089355469,0.651755690574646,0.42170199751853943
1783245559687584500,2.20158447265625,-0.999523401260376,0.6221321225166321,0.34942761063575745
1783245559697595400,2.211595458984375,-0.8636057376861572,0.48409703373908997,0.2886020839214325
1783245559707607300,2.221607177734375,-0.7196342945098877,0.25417909026145935,0.2548642158508301
1783245559717619500,2.231619384765625,-0.5842892527580261,-0.04368669539690018,0.24463847279548645
1783245559727631400,2.24163134765625,-0.4720780849456787,-0.34093597531318665,0.24297019839286804
1783245559737642200,2.251642333984375,-0.38542068004608154,-0.573833167552948,0.2206616848707199
1783245559747654400,2.261654296875,-0.3310281038284302,-0.7203143239021301,0.18419043719768524
1783245559757666300,2.271666259765625,-0.3206622898578644,-0.7903765439987183,0.1417713463306427
1783245559767678200,2.28167822265625,-0.36064156889915466,-0.811965823173523,0.10036784410476685
1783245559777689300,2.291689453125,-0.4466691315174103,-0.7539238333702087,0.05858923867344856
1783245559787701200,2.301701171875,-0.5545797944068909,-0.6590065360069275,0.017120560631155968
1783245559797713200,2.311713134765625,-0.6821576952934265,-0.533584713935852,-0.0070191314443945885
1783245559807725300,2.321725341796875,-0.8162954449653625,-0.4241239130496979,0.012776346877217293
1783245559817737000,2.331737060546875,-0.9323616027832031,-0.3429529070854187,0.06643104553222656
1783245559827748900,2.341748779296875,-1.0246597528457642,-0.26602983474731445,0.12878084182739258
1783245559837760800,2.3517607421875,-1.1147936582565308,-0.1993892937898636,0.17690469324588776
1783245559847773000,2.36177294921875,-1.199748158454895,-0.1464565396308899,0.1920219361782074
1783245559857783800,2.37178369140625,-1.2762149572372437,-0.10157296061515808,0.17609302699565887
1783245559867795700,2.381795654296875,-1.31949782371521,-0.07815660536289215,0.13402967154979706
1783245559877807900,2.391807861328125,-1.328695297241211,-0.08995307981967926,0.06413286924362183
1783245559887819800,2.40181982421875,-1.3255198001861572,-0.09455280005931854,-0.02752714231610298
1783245559897830700,2.41183056640625,-1.3124362230300903,-0.08012539148330688,-0.12802179157733917
1783245559907842600,2.421842529296875,-1.2884548902511597,-0.07236739993095398,-0.21086400747299194
1783245559917854700,2.431854736328125,-1.2494949102401733,-0.0802391767501831,-0.2672196626663208
1783245559927866600,2.44186669921875,-1.2054862976074219,-0.07242169976234436,-0.2916833460330963
1783245559937877800,2.451877685546875,-1.1698979139328003,-0.08509035408496857,-0.28956082463264465
1783245559947890000,2.461889892578125,-1.1606721878051758,-0.11778240650892258,-0.26239630579948425
1783245559957901800,2.47190185546875,-1.1791990995407104,-0.19431446492671967,-0.21663813292980194
1783245559967914000,2.4819140625,-1.211409568786621,-0.29441216588020325,-0.15705163776874542
1783245559977924900,2.4919248046875,-1.2495838403701782,-0.375567764043808,-0.0927426815032959
1783245559987936800,2.501936767578125,-1.2721316814422607,-0.4044267237186432,-0.02649676240980625
1783245559997948700,2.51194873046875,-1.2874497175216675,-0.41992151737213135,0.04444079473614693
1783245560007960800,2.5219609375,-1.2987098693847656,-0.4181138575077057,0.11555318534374237
1783245560017971700,2.5319716796875,-1.3076261281967163,-0.3994152843952179,0.17059114575386047
1783245560027983600,2.541983642578125,-1.3326421976089478,-0.34323838353157043,0.2073521465063095
1783245560037995800,2.551995849609375,-1.3665040731430054,-0.2670077979564667,0.2214309424161911
1783245560048007700,2.562007568359375,-1.399977684020996,-0.19370825588703156,0.22662530839443207
1783245560058018600,2.5720185546875,-1.4242438077926636,-0.14521104097366333,0.2269938886165619
1783245560068030700,2.58203076171875,-1.4352513551712036,-0.11922583729028702,0.22718344628810883
1783245560078042600,2.592042724609375,-1.4393936395645142,-0.11055751889944077,0.22075165808200836
1783245560088054800,2.6020546875,-1.4389106035232544,-0.12039419263601303,0.22435003519058228
1783245560098066000,2.61206591796875,-1.4379795789718628,-0.14518769085407257,0.24215246737003326
1783245560108077800,2.622077880859375,-1.4355366230010986,-0.16774998605251312,0.27072587609291077
1783245560118089700,2.63208984375,-1.4362401962280273,-0.1874547153711319,0.30056923627853394
1783245560128102000,2.642101806640625,-1.4376581907272339,-0.20057976245880127,0.31923967599868774
1783245560138112800,2.65211279296875,-1.4339207410812378,-0.19903752207756042,0.32483071088790894
1783245560148124700,2.662124755859375,-1.4321331977844238,-0.17872752249240875,0.32362762093544006
1783245560158136800,2.67213671875,-1.4162428379058838,-0.14627397060394287,0.31797346472740173
1783245560168148700,2.682148681640625,-1.409846305847168,-0.14401939511299133,0.3146052360534668
1783245560178159600,2.69215966796875,-1.3971973657608032,-0.12403423339128494,0.3183475136756897
1783245560188171800,2.702171875,-1.3573448657989502,-0.10632386058568954,0.3311724364757538
1783245560198183700,2.71218359375,-1.3186874389648438,-0.14774373173713684,0.3455228805541992
1783245560208195600,2.722195556640625,-1.279715657234192,-0.23495900630950928,0.3385397493839264
1783245560218206700,2.732206787109375,-1.2222175598144531,-0.29133838415145874,0.3114604651927948
1783245560228219000,2.742218994140625,-1.1760363578796387,-0.32218241691589355,0.259929895401001
1783245560238230800,2.752230712890625,-1.176958680152893,-0.27711108326911926,0.18301990628242493
1783245560248243000,2.762242919921875,-1.2233306169509888,-0.14223960041999817,0.0977315902709961
1783245560258253800,2.77225390625,-1.2931853532791138,0.009799995459616184,0.0324987918138504
1783245560268265700,2.782265625,-1.3865253925323486,0.0868377611041069,0.02941412292420864
1783245560278277600,2.792277587890625,-1.4899274110794067,0.13318155705928802,0.11228663474321365
1783245560288289800,2.802289794921875,-1.5900382995605469,0.10904807597398758,0.2762862741947174
1783245560298300700,2.81230078125,-1.6725108623504639,-0.0005058457609266043,0.49434804916381836
1783245560308312600,2.8223125,-1.7263859510421753,-0.18411555886268616,0.7169681191444397
1783245560318324700,2.83232470703125,-1.7405339479446411,-0.39830347895622253,0.8939388990402222
1783245560328336600,2.842336669921875,-1.7280659675598145,-0.582389235496521,0.9952406883239746
1783245560338347800,2.85234765625,-1.712227702140808,-0.6857203841209412,1.024714469909668
1783245560348360000,2.86235986328125,-1.7013883590698242,-0.7345722317695618,1.0025925636291504
1783245560358371800,2.872371826171875,-1.6887726783752441,-0.7011205554008484,0.9516870379447937
1783245560368383700,2.8823837890625,-1.68242609500885,-0.6077172160148621,0.9083794951438904
1783245560378395000,2.892394775390625,-1.6782622337341309,-0.5063802599906921,0.8793904781341553
1783245560388406800,2.90240673828125,-1.679488182067871,-0.4051119387149811,0.8540337085723877
1783245560398418700,2.912418701171875,-1.6918798685073853,-0.3364577889442444,0.8280586004257202
1783245560408430800,2.922430908203125,-1.711789608001709,-0.3042565584182739,0.7998197078704834
1783245560418441700,2.932441650390625,-1.7115715742111206,-0.32293063402175903,0.7743662595748901
1783245560428453600,2.94245361328125,-1.6943598985671997,-0.3610624372959137,0.751452624797821
1783245560438465800,2.9524658203125,-1.6665178537368774,-0.43474969267845154,0.7330389618873596
1783245560448477700,2.962477783203125,-1.618768334388733,-0.5327741503715515,0.7101577520370483
1783245560458488600,2.972488525390625,-1.5580003261566162,-0.6284966468811035,0.6772357225418091
1783245560468500700,2.982500732421875,-1.4927767515182495,-0.7029957175254822,0.6239625215530396
1783245560478512600,2.9925126953125,-1.4387694597244263,-0.7493693232536316,0.5588858127593994
1783245560488524800,3.00252490234375,-1.39924955368042,-0.7593209147453308,0.48610934615135193
1783245560498535700,3.01253564453125,-1.3801912069320679,-0.7253435254096985,0.4159630239009857
1783245560508547800,3.0225478515625,-1.3802342414855957,-0.6576279401779175,0.3666507601737976
1783245560518559700,3.032559814453125,-1.3868052959442139,-0.5793150067329407,0.34340134263038635
1783245560528572000,3.042572021484375,-1.3965650796890259,-0.47488805651664734,0.33274203538894653
1783245560538582800,3.052582763671875,-1.4100749492645264,-0.3650939166545868,0.32093146443367004
1783245560548594700,3.0625947265625,-1.4286044836044312,-0.2461445927619934,0.28856807947158813
1783245560558606800,3.07260693359375,-1.4499441385269165,-0.12718944251537323,0.2408360093832016
1783245560568618800,3.08261865234375,-1.4752448797225952,-0.027884621173143387,0.18817773461341858
1783245560578629600,3.092629638671875,-1.4896150827407837,0.05549895390868187,0.13606873154640198
1783245560588641500,3.1026416015625,-1.4746599197387695,0.09210087358951569,0.09748584032058716
1783245560598653700,3.11265380859375,-1.425083875656128,0.054788656532764435,0.07572329044342041
1783245560608665600,3.12266552734375,-1.3433583974838257,0.001339221023954451,0.06351356208324432
1783245560618676700,3.1326767578125,-1.2328215837478638,-0.07421093434095383,0.05270565301179886
1783245560628689000,3.14268896484375,-1.1187081336975098,-0.2161562591791153,0.05788764730095863
1783245560638700800,3.15270068359375,-1.0106923580169678,-0.40221214294433594,0.07450389862060547
1783245560648712700,3.162712646484375,-0.9242873787879944,-0.5490408539772034,0.08834521472454071
1783245560658723800,3.172723876953125,-0.8821665644645691,-0.650829017162323,0.0991738885641098
1783245560668735700,3.18273583984375,-0.8797407746315002,-0.6974253058433533,0.10414208471775055
1783245560678747600,3.19274755859375,-0.8839850425720215,-0.6942300200462341,0.11061862856149673
1783245560688759800,3.202759765625,-0.879513144493103,-0.652891993522644,0.10894349962472916
1783245560698770700,3.212770751953125,-0.8577378392219543,-0.5991960167884827,0.08576493710279465
1783245560708782600,3.222782470703125,-0.8394696712493896,-0.5316407084465027,0.04960499703884125
1783245560718794800,3.232794677734375,-0.8338242769241333,-0.48241961002349854,0.017283806577324867
1783245560728806700,3.242806640625,-0.8316311240196228,-0.44314253330230713,-0.0021933463867753744
1783245560738817800,3.25281787109375,-0.8263495564460754,-0.3925134539604187,-0.0029403630178421736
1783245560748830000,3.262829833984375,-0.8227347135543823,-0.3588235676288605,0.005206719972193241
1783245560758841900,3.272841796875,-0.8319926261901855,-0.3359864056110382,0.009514383040368557
1783245560768853800,3.282853759765625,-0.8555566668510437,-0.3156175911426544,0.008900126442313194
1783245560778865000,3.292864990234375,-0.8889181017875671,-0.30747416615486145,0.008907584473490715
1783245560788876800,3.302876708984375,-0.9259469509124756,-0.30973976850509644,0.01552481297403574
1783245560798888700,3.312888671875,-0.9705623388290405,-0.28176167607307434,0.038030121475458145
1783245560808900900,3.32290087890625,-1.0188826322555542,-0.2370026558637619,0.08581013232469559
1783245560818911700,3.332911865234375,-1.0619850158691406,-0.18667210638523102,0.14460793137550354
1783245560828923600,3.342923583984375,-1.0953835248947144,-0.11691155284643173,0.20883886516094208
1783245560838935800,3.352935791015625,-1.1193416118621826,-0.0648917555809021,0.2654470205307007
1783245560848947700,3.36294775390625,-1.1238991022109985,-0.057679206132888794,0.3182179629802704
1783245560858958800,3.372958740234375,-1.1073968410491943,-0.07889527827501297,0.3610919415950775
1783245560868970800,3.382970703125,-1.072086215019226,-0.09756555408239365,0.39104562997817993
1783245560878982700,3.392982666015625,-1.029712438583374,-0.11320656538009644,0.3987714648246765
1783245560888994800,3.402994873046875,-0.9871424436569214,-0.11397665739059448,0.38039296865463257
1783245560899006000,3.413005859375,-0.9531040191650391,-0.0857737809419632,0.3405430316925049
1783245560909017900,3.423017822265625,-0.9231175184249878,-0.052977871149778366,0.2969632148742676
1783245560919029800,3.43302978515625,-0.8881723284721375,-0.032339438796043396,0.2698535621166229
1783245560929042000,3.4430419921875,-0.8500668406486511,-0.04804069548845291,0.2677660882472992
1783245560939052800,3.453052734375,-0.8067273497581482,-0.09941227734088898,0.2884897291660309
1783245560949064700,3.463064697265625,-0.759983241558075,-0.18056540191173553,0.32065728306770325
1783245560959076900,3.473076904296875,-0.7134436964988708,-0.2747424840927124,0.3736536502838135
1783245560969088800,3.4830888671875,-0.6683312058448792,-0.3744980990886688,0.43622422218322754
1783245560979099600,3.493099609375,-0.6207714080810547,-0.44432324171066284,0.4799003303050995
1783245560989111800,3.50311181640625,-0.5844854116439819,-0.4375348687171936,0.4826292097568512
1783245560999123700,3.513123779296875,-0.5591691136360168,-0.38488736748695374,0.4425598382949829
1783245561009135600,3.523135498046875,-0.5409135818481445,-0.3512080907821655,0.37456637620925903
1783245561019146800,3.533146728515625,-0.5138614773750305,-0.3191460371017456,0.28480851650238037
1783245561029159000,3.543158935546875,-0.4683300256729126,-0.28796660900115967,0.17598357796669006
1783245561039170800,3.5531708984375,-0.41926074028015137,-0.294033020734787,0.06392574310302734
1783245561049183000,3.563182861328125,-0.3496338129043579,-0.2866705358028412,-0.05241278186440468
1783245561059193900,3.57319384765625,-0.28434401750564575,-0.2582907974720001,-0.15654556453227997
1783245561069205800,3.583205810546875,-0.24371467530727386,-0.24489791691303253,-0.22669996321201324
1783245561079218000,3.593218017578125,-0.20920942723751068,-0.1922280490398407,-0.25681257247924805
1783245561089229800,3.603229736328125,-0.16956625878810883,-0.11631187051534653,-0.2752443850040436
1783245561099240700,3.61324072265625,-0.15038643777370453,-0.04665342718362808,-0.2805057466030121
1783245561109252600,3.623252685546875,-0.14676417410373688,-0.04271123930811882,-0.2584875226020813
1783245561119264800,3.6332646484375,-0.14671996235847473,-0.1121710017323494,-0.2088398039340973
1783245561129276700,3.643276611328125,-0.15121899545192719,-0.2221493422985077,-0.13800698518753052
1783245561139287800,3.653287841796875,-0.17965196073055267,-0.29787954688072205,-0.0634741559624672
1783245561149300000,3.663300048828125,-0.22931347787380219,-0.33038708567619324,0.008150503039360046
1783245561159312000,3.673311767578125,-0.2898050546646118,-0.33616456389427185,0.0714583694934845
1783245561169323800,3.68332373046875,-0.3477173447608948,-0.3062569797039032,0.12780334055423737
1783245561179335000,3.6933349609375,-0.40437743067741394,-0.25096604228019714,0.18673136830329895
1783245561189346800,3.703346923828125,-0.46757543087005615,-0.20714975893497467,0.2550116181373596
1783245561199358700,3.713358642578125,-0.5387303233146667,-0.18145504593849182,0.34070149064064026
1783245561209371000,3.723370849609375,-0.6133232116699219,-0.15745984017848969,0.4331338107585907
1783245561219381800,3.7333818359375,-0.6968407034873962,-0.14002758264541626,0.518186092376709
1783245561229393700,3.7433935546875,-0.7773668169975281,-0.09334565699100494,0.5780178904533386
1783245561239405800,3.75340576171875,-0.8485264778137207,-0.03444238752126694,0.6148036122322083
1783245561249417700,3.763417724609375,-0.8953857421875,0.009847193025052547,0.6148195862770081
1783245561259428900,3.773428955078125,-0.9157078266143799,0.06594641506671906,0.5819021463394165
1783245561269440800,3.783440673828125,-0.9038015604019165,0.12639330327510834,0.5216813087463379
1783245561279453000,3.793452880859375,-0.8576462864875793,0.16574282944202423,0.4421292543411255
1783245561289464800,3.80346484375,-0.7735559344291687,0.17119480669498444,0.35021117329597473
1783245561299476000,3.81347607421875,-0.6640861630439758,0.1446489542722702,0.2605723738670349
1783245561309487900,3.82348779296875,-0.5322058200836182,0.07547858357429504,0.18560990691184998
1783245561319499800,3.833499755859375,-0.402608722448349,-0.03558455407619476,0.13294589519500732
1783245561329512000,3.843511962890625,-0.30338403582572937,-0.16482190787792206,0.10354100912809372
1783245561339522800,3.853522705078125,-0.2499104142189026,-0.27492284774780273,0.09625007212162018
1783245561349534700,3.86353466796875,-0.2378416657447815,-0.3390020430088043,0.10161419957876205
1783245561359547000,3.873546875,-0.25014227628707886,-0.3694014847278595,0.10572265833616257
1783245561369558800,3.883558837890625,-0.26150569319725037,-0.36916324496269226,0.08967040479183197
1783245561379569700,3.893569580078125,-0.282038152217865,-0.3471367657184601,0.055690065026283264
1783245561389581600,3.90358154296875,-0.31262752413749695,-0.2637927234172821,0.013731906190514565
1783245561399593700,3.91359375,-0.34108659625053406,-0.14386658370494843,-0.016101356595754623
1783245561409605600,3.923605712890625,-0.36914512515068054,-0.03487314283847809,-0.018265994265675545
1783245561419617800,3.93361767578125,-0.4058869183063507,0.06600633263587952,0.017950333654880524
1783245561429629000,3.94362890625,-0.4232333302497864,0.1453695297241211,0.08339682966470718
1783245561439640800,3.953640869140625,-0.4249257743358612,0.18010461330413818,0.1496506780385971
1783245561449653000,3.963653076171875,-0.4061349034309387,0.15738658607006073,0.1887883096933365
1783245561459664000,3.973663818359375,-0.37466832995414734,0.06922024488449097,0.1885233223438263
1783245561469675800,3.98367578125,-0.34276673197746277,-0.060930896550416946,0.16568700969219208
1783245561479687700,3.993687744140625,-0.30967697501182556,-0.1709364950656891,0.13324971497058868
1783245561489699800,4.003699951171875,-0.26465874910354614,-0.2178420126438141,0.09792020916938782
1783245561499711700,4.013711669921875,-0.22227878868579865,-0.20851269364356995,0.06078775227069855
1783245561509722600,4.02372265625,-0.18312761187553406,-0.15966330468654633,0.01658979430794716
1783245561519734800,4.03373486328125,-0.1460697203874588,-0.0940222442150116,-0.031035250052809715
1783245561529746700,4.04374658203125,-0.10209230333566666,-0.07133098691701889,-0.07798890024423599
1783245561539757800,4.0537578125,-0.05333168804645538,-0.0954539030790329,-0.12375292927026749
1783245561549770000,4.06377001953125,0.008829742670059204,-0.15818610787391663,-0.18567143380641937
1783245561559782000,4.073781982421875,0.09166496992111206,-0.2562333047389984,-0.27282842993736267
1783245561569793800,4.083793701171875,0.18281693756580353,-0.39530205726623535,-0.377597838640213
1783245561579806000,4.093805908203125,0.27695754170417786,-0.5526187419891357,-0.482461154460907
1783245561589816800,4.10381689453125,0.3606870174407959,-0.6934017539024353,-0.5718926191329956
1783245561599828700,4.113828857421875,0.4241591989994049,-0.8191367983818054,-0.6262935400009155
1783245561609841000,4.1238408203125,0.46101391315460205,-0.8992569446563721,-0.6312016248703003
1783245561619852800,4.133852783203125,0.47349563241004944,-0.9266667366027832,-0.589984655380249
1783245561629863700,4.14386376953125,0.4637403190135956,-0.9059421420097351,-0.520033597946167
1783245561639875800,4.153875732421875,0.43188729882240295,-0.8494812250137329,-0.4314115345478058
1783245561649887700,4.1638876953125,0.3733372688293457,-0.7703420519828796,-0.33822908997535706
1783245561659899600,4.173899658203125,0.2888906002044678,-0.685871422290802,-0.24704350531101227
1783245561669910800,4.183910888671875,0.1957695335149765,-0.6042478084564209,-0.17191287875175476
1783245561679923000,4.1939228515625,0.10133251547813416,-0.512195348739624,-0.11617983132600784
1783245561689934800,4.203934814453125,0.004526499193161726,-0.3941676616668701,-0.08691421896219254
1783245561699947000,4.213947021484375,-0.09086740016937256,-0.2783193588256836,-0.05691797286272049
1783245561709958000,4.2239580078125,-0.1692398637533188,-0.17435801029205322,-0.017804386094212532
1783245561719969800,4.2339697265625,-0.2264232635498047,-0.08418469876050949,0.02469460479915142
1783245561729982000,4.24398193359375,-0.26792410016059875,-0.03890605270862579,0.05969038978219032
1783245561739993900,4.253993896484375,-0.2866740822792053,-0.08275952935218811,0.09011167287826538
1783245561750004700,4.264004638671875,-0.2837887704372406,-0.18719518184661865,0.09804598242044449
1783245561760016600,4.2740166015625,-0.26797038316726685,-0.29574349522590637,0.07416035234928131
1783245561770028800,4.28402880859375,-0.25306466221809387,-0.37424492835998535,0.023948246613144875
1783245561780040700,4.294040771484375,-0.2451135367155075,-0.4179471433162689,-0.04002221301198006
1783245561790051600,4.304051513671875,-0.2457028329372406,-0.4307667016983032,-0.10649120062589645
1783245561800063700,4.314063720703125,-0.2608913779258728,-0.406462162733078,-0.16999027132987976
1783245561810075600,4.32407568359375,-0.3004249930381775,-0.33421310782432556,-0.2245345413684845
1783245561820087300,4.33408740234375,-0.37079527974128723,-0.23873691260814667,-0.26449713110923767
1783245561830098400,4.344098388671875,-0.45171883702278137,-0.1419197916984558,-0.29467153549194336
1783245561840110300,4.3541103515625,-0.5203416347503662,-0.04970703646540642,-0.3043111264705658
1783245561850122200,4.364122314453125,-0.5667299628257751,0.03675136715173721,-0.28924715518951416
1783245561860134400,4.374134521484375,-0.6027121543884277,0.061921168118715286,-0.23967532813549042
1783245561870145300,4.384145263671875,-0.6340234875679016,0.07218371331691742,-0.15386097133159637
1783245561880157200,4.3941572265625,-0.6360278129577637,0.0396401546895504,-0.036404646933078766
1783245561890169300,4.40416943359375,-0.6192219257354736,0.020897092297673225,0.09617869555950165
1783245561900181200,4.41418115234375,-0.5807645320892334,0.01803099736571312,0.2235579639673233
1783245561910192000,4.424192138671875,-0.5267019867897034,-0.0034984995145350695,0.3329227864742279
1783245561920204300,4.434204345703125,-0.4671023190021515,-0.03526148945093155,0.41503310203552246
1783245561930216200,4.44421630859375,-0.41275152564048767,-0.035496409982442856,0.4474104940891266
1783245561940228000,4.45422802734375,-0.3754579424858093,-0.030974093824625015,0.43840208649635315
1783245561950239200,4.4642392578125,-0.3494749367237091,-0.048464495688676834,0.39438116550445557
1783245561960251400,4.47425146484375,-0.33234813809394836,-0.07426546514034271,0.33676794171333313
1783245561970263300,4.48426318359375,-0.3169882595539093,-0.1046762764453888,0.27686378359794617
1783245561980275500,4.494275390625,-0.30865707993507385,-0.11734040826559067,0.2301330417394638
1783245561990286300,4.504286376953125,-0.30976375937461853,-0.10138843208551407,0.20468126237392426
1783245562000298200,4.51429833984375,-0.3108481764793396,-0.06239735335111618,0.19672614336013794
1783245562010310400,4.524310302734375,-0.31891942024230957,0.024268267676234245,0.19089841842651367
1783245562020322300,4.534322265625,-0.33492210507392883,0.13862067461013794,0.16090670228004456
1783245562030333200,4.544333251953125,-0.3549812436103821,0.25993645191192627,0.11422421783208847
1783245562040345000,4.554344970703125,-0.3585972785949707,0.3361009955406189,0.06294451653957367
1783245562050357200,4.564357177734375,-0.34094324707984924,0.36823633313179016,0.015108143910765648
1783245562060369200,4.574369140625,-0.3128514289855957,0.37607747316360474,-0.016609307378530502
1783245562070380300,4.58438037109375,-0.2735762596130371,0.3427095413208008,-0.028707114979624748
1783245562080392400,4.594392333984375,-0.21871890127658844,0.2727392613887787,-0.02161644771695137
1783245562090404400,4.604404296875,-0.15187141299247742,0.1875220239162445,-0.010296271182596684
1783245562100416300,4.614416259765625,-0.08574246615171432,0.08829264342784882,0.004385735373944044
1783245562110427400,4.624427490234375,-0.03685241937637329,-0.025834165513515472,0.021070368587970734
1783245562120439300,4.634439208984375,-0.01049058698117733,-0.12458205223083496,0.04187285155057907
1783245562130451200,4.644451171875,-0.002040165476500988,-0.18712115287780762,0.07036348432302475
1783245562140463400,4.65446337890625,-0.002284910064190626,-0.20704078674316406,0.10222873836755753
1783245562150474200,4.66447412109375,-0.011342162266373634,-0.18195365369319916,0.12731878459453583
1783245562160486100,4.674486083984375,-0.022678706794977188,-0.11997152119874954,0.14607009291648865
1783245562170498300,4.684498291015625,-0.022752419114112854,-0.04757124185562134,0.1510755568742752
1783245562180510200,4.69451025390625,-0.013196464627981186,0.029933670535683632,0.13461802899837494
1783245562190521300,4.704521240234375,0.005769019015133381,0.08459582179784775,0.10926435887813568
1783245562200533500,4.714533447265625,0.030916184186935425,0.09938035905361176,0.0750504583120346
1783245562210545400,4.72454541015625,0.055487312376499176,0.1039997935295105,0.03737056627869606
1783245562220557300,4.734557373046875,0.06990832835435867,0.06990760564804077,-0.0002188882790505886
1783245562230568400,4.744568359375,0.0734347254037857,0.014395872130990028,-0.024580009281635284
1783245562240580400,4.754580322265625,0.06527373939752579,-0.016352185979485512,-0.03693521022796631
1783245562250592300,4.76459228515625,0.0514153391122818,-0.009797940030694008,-0.039162155240774155
1783245562260604400,4.7746044921875,0.0288557019084692,0.03129463270306587,-0.03264966234564781
1783245562270615300,4.784615234375,0.005290347151458263,0.09767031669616699,-0.017994612455368042
1783245562280627200,4.794627197265625,-0.0175771526992321,0.18349707126617432,-0.0036433700006455183
1783245562290639400,4.804639404296875,-0.03634870797395706,0.2737239599227905,0.011793039739131927
1783245562300651300,4.8146513671875,-0.05312236398458481,0.3543998897075653,0.03184930607676506
1783245562310662100,4.824662109375,-0.06357233971357346,0.4402436316013336,0.05458797514438629
1783245562320674300,4.83467431640625,-0.07002171874046326,0.5076040029525757,0.08011890947818756
1783245562330686200,4.844686279296875,-0.06100286915898323,0.5088397860527039,0.10531287640333176
1783245562340698400,4.854698486328125,-0.035453032702207565,0.4414066970348358,0.13852114975452423
1783245562350709200,4.864709228515625,0.015704745426774025,0.3172758221626282,0.1564091444015503
1783245562360721400,4.874721435546875,0.0873059630393982,0.16457229852676392,0.13842721283435822
1783245562370733300,4.8847333984375,0.16113229095935822,0.05940113216638565,0.08275177329778671
1783245562380745500,4.894745361328125,0.22211389243602753,0.012126295827329159,0.002656135242432356
1783245562390756400,4.90475634765625,0.26252952218055725,0.027953017503023148,-0.07176338136196136
1783245562400768300,4.914768310546875,0.28901493549346924,0.07651709020137787,-0.11472815275192261
1783245562410780200,4.9247802734375,0.3072636127471924,0.1359647661447525,-0.11865223944187164
1783245562420792300,4.934792236328125,0.31111881136894226,0.18674831092357635,-0.09012339264154434
1783245562430803200,4.94480322265625,0.3057168126106262,0.20245005190372467,-0.03885655477643013
1783245562440815000,4.954815185546875,0.2885977327823639,0.19325709342956543,0.01974816992878914
1783245562450827300,4.9648271484375,0.2641436755657196,0.19061098992824554,0.07783381640911102
1783245562460839200,4.974839111328125,0.23339961469173431,0.20042100548744202,0.12755395472049713
1783245562470850300,4.984850341796875,0.20534445345401764,0.2285960167646408,0.1664561927318573
1783245562480862500,4.994862548828125,0.1846700757741928,0.28291812539100647,0.19156579673290253
1783245562490874400,5.004874267578125,0.17556822299957275,0.34545525908470154,0.19896066188812256
1783245562500886300,5.01488623046875,0.177549347281456,0.3851723074913025,0.1968839317560196
1783245562510898400,5.0248984375,0.18265095353126526,0.3891979455947876,0.18740181624889374
1783245562520909300,5.034909423828125,0.19870902597904205,0.3527269959449768,0.17742855846881866
1783245562530921200,5.044921142578125,0.23454275727272034,0.2615865170955658,0.16194820404052734
1783245562540933400,5.054933349609375,0.2793262004852295,0.1916140615940094,0.12208389490842819
1783245562550944300,5.0649443359375,0.3053562045097351,0.16759806871414185,0.054437439888715744
1783245562560956200,5.0749560546875,0.30774614214897156,0.16577646136283875,-0.035439714789390564
1783245562570968300,5.08496826171875,0.30993738770484924,0.1821420043706894,-0.13573221862316132
1783245562580980200,5.094980224609375,0.3239120543003082,0.2333524525165558,-0.22251051664352417
1783245562590992100,5.1049921875,0.34916841983795166,0.3183806538581848,-0.2919093072414398
1783245562601003500,5.11500341796875,0.38539832830429077,0.43190109729766846,-0.35303977131843567
1783245562611015400,5.125015380859375,0.41283559799194336,0.5446763634681702,-0.4211452007293701
1783245562621027300,5.13502734375,0.41843941807746887,0.6150176525115967,-0.472443550825119
1783245562631038200,5.1450380859375,0.3999846279621124,0.6173744201660156,-0.4792282283306122
1783245562641050400,5.15505029296875,0.3786364495754242,0.5804933905601501,-0.4227825105190277
1783245562651062300,5.165062255859375,0.35465511679649353,0.5619155764579773,-0.3165453374385834
1783245562661074400,5.175074462890625,0.3128400146961212,0.543495774269104,-0.2029724419116974
1783245562671086300,5.18508642578125,0.2782115340232849,0.49289336800575256,-0.11230245977640152
1783245562681097200,5.19509716796875,0.27330732345581055,0.364947646856308,-0.05025985836982727
1783245562691109000,5.205109130859375,0.28997546434402466,0.15788534283638,-0.0015439388807862997
1783245562701121300,5.215121337890625,0.28278490900993347,-0.09433333575725555,0.05100662261247635
1783245562711133200,5.22513330078125,0.2482202798128128,-0.31989505887031555,0.11635866016149521
1783245562721144300,5.235144287109375,0.19378633797168732,-0.5216694474220276,0.20756153762340546
1783245562731156200,5.24515625,0.13190601766109467,-0.6505003571510315,0.31692174077033997
1783245562741168400,5.25516845703125,0.06469183415174484,-0.6769279837608337,0.4316834807395935
1783245562751180300,5.26518017578125,-0.01175650954246521,-0.6335774064064026,0.5249673128128052
1783245562761191400,5.27519140625,-0.1120319813489914,-0.5330281257629395,0.5963783860206604
1783245562771203300,5.285203369140625,-0.1976354420185089,-0.35089847445487976,0.628796398639679
1783245562781215200,5.29521533203125,-0.2647643983364105,-0.13567590713500977,0.6226958632469177
1783245562791227400,5.305227294921875,-0.32762452960014343,0.09285339713096619,0.5800268054008484
1783245562801238300,5.31523828125,-0.35925382375717163,0.31972941756248474,0.4995042681694031
1783245562811250200,5.325250244140625,-0.35042649507522583,0.5185685753822327,0.3942127823829651
1783245562821262800,5.335262939453125,-0.28923264145851135,0.6587294340133667,0.27596548199653625
1783245562831274800,5.345274658203125,-0.16992881894111633,0.7135898470878601,0.15920844674110413
1783245562841285600,5.35528564453125,-0.008079199120402336,0.6888024806976318,0.021675359457731247
1783245562851297800,5.3652978515625,0.17652122676372528,0.5912097096443176,-0.12457850575447083
1783245562861309700,5.375309814453125,0.365185409784317,0.4376984238624573,-0.26266422867774963
1783245562871321600,5.385321533203125,0.5527505874633789,0.2234371155500412,-0.37563571333885193
1783245562881333000,5.3953330078125,0.7238080501556396,-0.027698170393705368,-0.4423636198043823
1783245562891345000,5.405344970703125,0.8637613654136658,-0.24131415784358978,-0.4635312855243683
1783245562901356800,5.415356689453125,0.9629193544387817,-0.395867258310318,-0.4504024386405945
1783245562911369000,5.425368896484375,1.01128089427948,-0.4995184540748596,-0.4147452116012573
1783245562921379800,5.4353798828125,1.0116620063781738,-0.5296803712844849,-0.3838917016983032
1783245562931391700,5.445391845703125,0.9713801145553589,-0.4845083951950073,-0.364734411239624
1783245562941404000,5.45540380859375,0.9013382196426392,-0.4016239047050476,-0.33716562390327454
1783245562951415800,5.465415771484375,0.8203305602073669,-0.30229148268699646,-0.2939601540565491
1783245562961426700,5.4754267578125,0.7386388778686523,-0.20535346865653992,-0.23216548562049866
1783245562971438800,5.48543896484375,0.6665546894073486,-0.14250332117080688,-0.16496682167053223
1783245562981450800,5.49545068359375,0.5996728539466858,-0.10796531289815903,-0.10617859661579132
1783245562991462700,5.505462646484375,0.5299288630485535,-0.07820584625005722,-0.07797899842262268
1783245563001473800,5.515473876953125,0.46320703625679016,-0.05909047648310661,-0.08071353286504745
1783245563011485700,5.525485595703125,0.3966143727302551,-0.05645829811692238,-0.11359357833862305
1783245563021497600,5.53549755859375,0.3300281763076782,-0.05091386288404465,-0.15986385941505432
1783245563031509800,5.545509765625,0.2696405053138733,-0.0257912278175354,-0.20855802297592163
1783245563041521000,5.55552099609375,0.2074575573205948,0.010298334062099457,-0.24517196416854858
1783245563051532800,5.56553271484375,0.15548191964626312,0.012715093791484833,-0.2533656358718872
1783245563061545000,5.575544921875,0.11752388626337051,0.007386641576886177,-0.21053694188594818
1783245563071556900,5.585556884765625,0.10502573102712631,0.0027872719801962376,-0.1341218799352646
1783245563081567700,5.595567626953125,0.0996922180056572,-0.02614930458366871,-0.04370890185236931
1783245563091579600,5.60557958984375,0.08733653277158737,-0.05837562307715416,0.01573890820145607
1783245563101591800,5.615591796875,0.07580584287643433,-0.13563020527362823,0.030258195474743843
1783245563111603700,5.625603759765625,0.0560414083302021,-0.2314031571149826,-0.001202120678499341
1783245563121614600,5.635614501953125,0.026590311899781227,-0.32648757100105286,-0.06892524659633636
1783245563131626800,5.645626708984375,-0.013265173882246017,-0.4085211753845215,-0.1387147158384323
1783245563141638700,5.655638671875,-0.05137154832482338,-0.43877121806144714,-0.18529446423053741
1783245563151650800,5.66565087890625,-0.08127879351377487,-0.44813090562820435,-0.1978437304496765
1783245563161662000,5.675661865234375,-0.10996423661708832,-0.4424072206020355,-0.18448425829410553
1783245563171673900,5.685673828125,-0.1309640109539032,-0.4247745871543884,-0.14298395812511444
1783245563181685800,5.695685791015625,-0.15334227681159973,-0.40447649359703064,-0.08154989778995514
1783245563191698000,5.705697998046875,-0.19082584977149963,-0.3534452021121979,-0.018056854605674744
1783245563201708800,5.715708740234375,-0.2395252138376236,-0.28371432423591614,0.02871251478791237
1783245563211720700,5.725720703125,-0.29824626445770264,-0.23928038775920868,0.05985550954937935
1783245563221732900,5.73573291015625,-0.3560749292373657,-0.20586837828159332,0.0835331380367279
1783245563231744800,5.745744873046875,-0.40850910544395447,-0.1820179522037506,0.09628895670175552
1783245563241755600,5.755755615234375,-0.44196268916130066,-0.1674557775259018,0.09359969198703766
1783245563251767800,5.765767822265625,-0.47411906719207764,-0.17048539221286774,0.07446027547121048
1783245563261779700,5.77577978515625,-0.5068240165710449,-0.17348703742027283,0.048750121146440506
1783245563271791600,5.78579150390625,-0.5241199135780334,-0.17475390434265137,0.032916102558374405
1783245563281803000,5.795802978515625,-0.5139977335929871,-0.17568548023700714,0.03522320091724396
1783245563291815000,5.80581494140625,-0.4834783673286438,-0.18465997278690338,0.049981504678726196
1783245563301826800,5.815826904296875,-0.4140779972076416,-0.17007729411125183,0.06997890770435333
1783245563311839000,5.8258388671875,-0.31923869252204895,-0.1312493532896042,0.07755474746227264
1783245563321849900,5.835849853515625,-0.23188194632530212,-0.0869402214884758,0.05189758539199829
1783245563331861800,5.84586181640625,-0.14937694370746613,-0.02718926966190338,0.004552707076072693
1783245563341874000,5.8558740234375,-0.07670007646083832,-0.0030519766733050346,-0.057953014969825745
1783245563351885800,5.8658857421875,-0.032350555062294006,0.003898549359291792,-0.1285313218832016
1783245563361896700,5.875896728515625,-0.014462903141975403,0.01600288227200508,-0.19333641231060028
1783245563371908900,5.885908935546875,-0.023386148735880852,-0.02735062502324581,-0.2483375370502472
1783245563381920800,5.895920654296875,-0.09643985331058502,-0.030822856351733208,-0.2824707329273224
1783245563391932700,5.9059326171875,-0.23904716968536377,-0.059155430644750595,-0.27512669563293457
1783245563401943800,5.91594384765625,-0.4095264971256256,-0.11473453044891357,-0.2209976613521576
1783245563411955700,5.925955810546875,-0.5866791009902954,-0.14187029004096985,-0.12372136861085892
1783245563421968000,5.9359677734375,-0.7428218722343445,-0.10295004397630692,0.018493028357625008
1783245563431979800,5.945979736328125,-0.8572281002998352,-0.027002666145563126,0.19668054580688477
1783245563441991000,5.955990966796875,-0.9048608541488647,0.04422730207443237,0.4003993272781372
1783245563452002800,5.9660029296875,-0.8615300059318542,0.06247838959097862,0.6040949821472168
1783245563462014700,5.9760146484375,-0.7558776140213013,-0.008096709847450256,0.7668090462684631
1783245563472027000,5.98602685546875,-0.6277018189430237,-0.11948569864034653,0.8589805364608765
1783245563482037800,5.996037841796875,-0.5114931464195251,-0.2702541947364807,0.8715517520904541
1783245563492049700,6.006049560546875,-0.41836339235305786,-0.42672204971313477,0.8113422393798828
1783245563502061800,6.016061767578125,-0.35243579745292664,-0.5198666453361511,0.688198447227478
1783245563512073700,6.02607373046875,-0.3163291811943054,-0.5291426777839661,0.5452039837837219
1783245563522084600,6.036084716796875,-0.3097144067287445,-0.5131762027740479,0.41207069158554077
1783245563532096800,6.0460966796875,-0.317173570394516,-0.49323105812072754,0.2945122718811035
1783245563542108700,6.056108642578125,-0.33662715554237366,-0.4129708409309387,0.18106535077095032
1783245563552120600,6.06612060546875,-0.3588069975376129,-0.29068174958229065,0.07948293536901474
1783245563562132000,6.076132080078125,-0.36315780878067017,-0.15366582572460175,0.0029894933104515076
1783245563572143900,6.086143798828125,-0.3378261625766754,-0.00394078716635704,-0.046848706901073456
1783245563582155800,6.09615576171875,-0.29091590642929077,0.13337178528308868,-0.05687391012907028
1783245563592168000,6.10616796875,-0.22853504121303558,0.22854484617710114,-0.04953216016292572
1783245563602178800,6.1161787109375,-0.16808554530143738,0.27909138798713684,-0.04430331289768219
1783245563612190700,6.126190673828125,-0.11630367487668991,0.3069080710411072,-0.06759832799434662
1783245563622203000,6.136202880859375,-0.06966853141784668,0.30287978053092957,-0.1108054518699646
1783245563632214800,6.14621484375,-0.006128381006419659,0.27246516942977905,-0.14910224080085754
1783245563642225700,6.1562255859375,0.061735089868307114,0.20032387971878052,-0.17114202678203583
1783245563652237800,6.16623779296875,0.11733901500701904,0.10508523136377335,-0.16193459928035736
1783245563662249700,6.176249755859375,0.14475864171981812,-0.05211743712425232,-0.12175096571445465
1783245563672261600,6.18626171875,0.15640737116336823,-0.20382735133171082,-0.052934467792510986
1783245563682273000,6.19627294921875,0.16589780151844025,-0.3156723976135254,0.03137429058551788
1783245563692285000,6.206284912109375,0.16542527079582214,-0.354858934879303,0.11047926545143127
1783245563702296800,6.216296875,0.1558530628681183,-0.30074456334114075,0.16468603909015656
1783245563712309000,6.22630908203125,0.1457398682832718,-0.22550661861896515,0.1872422993183136
1783245563722320000,6.23631982421875,0.1418127715587616,-0.20160448551177979,0.18314315378665924
1783245563732331800,6.246331787109375,0.1547374129295349,-0.1756061464548111,0.14448124170303345
1783245563742344000,6.256343994140625,0.17106285691261292,-0.15629608929157257,0.0972900241613388
1783245563752355800,6.26635595703125,0.17714375257492065,-0.16371899843215942,0.06860604882240295
1783245563762366700,6.27636669921875,0.19630412757396698,-0.19022516906261444,0.050879254937171936
1783245563772378600,6.286378662109375,0.1944308578968048,-0.20040017366409302,0.044667184352874756
1783245563782390800,6.296390869140625,0.19325986504554749,-0.19442883133888245,0.033820927143096924
1783245563792402700,6.306402587890625,0.18006832897663116,-0.17236770689487457,0.022687893360853195
1783245563802413800,6.316413818359375,0.17846430838108063,-0.1323941946029663,0.009293260052800179
1783245563812425700,6.32642578125,0.19379091262817383,-0.07186847180128098,-0.008413826115429401
1783245563822438000,6.33643798828125,0.21957483887672424,0.03420310094952583,-0.029401134699583054
1783245563832449800,6.34644970703125,0.2530176341533661,0.14354412257671356,-0.06249397248029709
1783245563842460700,6.356460693359375,0.2827715277671814,0.22876235842704773,-0.09864052385091782
1783245563852472800,6.366472900390625,0.3137553632259369,0.2798914313316345,-0.13246341049671173
1783245563862484700,6.376484619140625,0.33188560605049133,0.2836534082889557,-0.15003441274166107
1783245563872496600,6.38649658203125,0.33703649044036865,0.24780163168907166,-0.14767524600028992
1783245563882507500,6.396507568359375,0.3417438864707947,0.2064073234796524,-0.12993726134300232
1783245563892519700,6.406519775390625,0.34693413972854614,0.17150822281837463,-0.09976104646921158
1783245563902531600,6.416531494140625,0.33940112590789795,0.1587122678756714,-0.0671415850520134
1783245563912543700,6.426543701171875,0.3174278438091278,0.1945813000202179,-0.041323307901620865
1783245563922554600,6.4365546875,0.2892870306968689,0.24722640216350555,-0.016850989311933517
1783245563932566500,6.44656640625,0.26904746890068054,0.3069923222064972,0.009093385189771652
1783245563942578400,6.456578369140625,0.270356684923172,0.36817657947540283,0.023371923714876175
1783245563952590600,6.466590576171875,0.2858121395111084,0.4125489890575409,0.021899478510022163
1783245563962601700,6.476601806640625,0.3043464124202728,0.4221837520599365,0.00727046700194478
1783245563972613600,6.486613525390625,0.32394689321517944,0.3948737382888794,-0.020404700189828873
1783245563982625800,6.496625732421875,0.34426093101501465,0.34780848026275635,-0.05728469043970108
1783245563992637700,6.5066376953125,0.37692925333976746,0.278272807598114,-0.09307825565338135
1783245564002648600,6.516648681640625,0.4149610698223114,0.21165381371974945,-0.12399888783693314
1783245564012660700,6.52666064453125,0.4438905417919159,0.15433655679225922,-0.14607203006744385
1783245564022672600,6.536672607421875,0.4689386487007141,0.11679397523403168,-0.15115253627300262
1783245564032684500,6.5466845703125,0.4886298179626465,0.10858311504125595,-0.14360873401165009
1783245564042695700,6.55669580078125,0.500554084777832,0.14382818341255188,-0.12829582393169403
1783245564052707600,6.56670751953125,0.5001117587089539,0.2196395993232727,-0.11895398795604706
1783245564062719500,6.576719482421875,0.49303650856018066,0.28582823276519775,-0.11878141760826111
1783245564072731600,6.586731689453125,0.49621516466140747,0.30242466926574707,-0.139690101146698
1783245564082742800,6.59674267578125,0.5155571699142456,0.2927137017250061,-0.17711016535758972
1783245564092754700,6.606754638671875,0.5485072731971741,0.28051528334617615,-0.23129019141197205
1783245564102766800,6.616766845703125,0.580410897731781,0.2721865177154541,-0.29761645197868347
1783245564112778800,6.62677880859375,0.6053686141967773,0.28051257133483887,-0.3556508421897888
1783245564122789600,6.63678955078125,0.614145040512085,0.3212765157222748,-0.3968893587589264
1783245564132801800,6.6468017578125,0.6224268674850464,0.3825179636478424,-0.41400042176246643
1783245564142813700,6.656813720703125,0.6314853429794312,0.40138885378837585,-0.41004350781440735
1783245564152825600,6.66682568359375,0.6540220379829407,0.3827975392341614,-0.39812517166137695
1783245564162836500,6.67683642578125,0.6882420778274536,0.2837820053100586,-0.37295830249786377
1783245564172848600,6.6868486328125,0.7157887816429138,0.0936724916100502,-0.32407379150390625
1783245564182860500,6.696860595703125,0.727505087852478,-0.13716498017311096,-0.2771742045879364
1783245564192872700,6.706872802734375,0.6916288733482361,-0.4166661500930786,-0.27352389693260193
1783245564202884600,6.716884521484375,0.5791353583335876,-0.6830416321754456,-0.2939751148223877
1783245564212895700,6.726895751953125,0.44870880246162415,-0.8531087636947632,-0.2874598503112793
1783245564222908000,6.736907958984375,0.32671764492988586,-0.9528742432594299,-0.23004449903964996
1783245564232919800,6.746919921875,0.2823507785797119,-0.8618752360343933,0.02283037267625332
1783245564242930700,6.7569306640625,0.34805014729499817,-0.4446122646331787,0.2669120132923126
1783245564252942600,6.766942626953125,0.3773813545703888,0.10234741866588593,0.3580920398235321
1783245564262954800,6.776954833984375,0.283704936504364,0.45939183235168457,0.3348162770271301
1783245564272966700,6.786966552734375,0.17923060059547424,0.5489053130149841,0.22513388097286224
1783245564282978800,6.796978759765625,0.14493681490421295,0.4625595211982727,0.13488201797008514
1783245564292989700,6.80698974609375,0.160103902220726,0.30803948640823364,0.1356205940246582
1783245564303001600,6.817001708984375,0.19377663731575012,0.16415902972221375,0.1913222074508667
