time,seconds_elapsed,z,y,x
1783245480252497400,0.058497314453125,-0.3121591806411743,0.006279550958424807,-0.2959217429161072
1783245480262508500,0.068508544921875,-0.2915084958076477,-0.013247278518974781,-0.3005375266075134
1783245480272520400,0.0785205078125,-0.2733031213283539,-0.034286018460989,-0.2589545249938965
1783245480282531600,0.088531494140625,-0.27272918820381165,-0.040049631148576736,-0.19119836390018463
1783245480292543700,0.098543701171875,-0.28538891673088074,-0.03223966807126999,-0.1169939711689949
1783245480302555600,0.1085556640625,-0.302855521440506,-0.018146488815546036,-0.051782481372356415
1783245480312566500,0.11856640625,-0.3221130669116974,-0.011630957946181297,-0.00030218716710805893
1783245480322578400,0.128578369140625,-0.3357258141040802,-0.014528476633131504,0.04333849996328354
1783245480332590600,0.138590576171875,-0.34172743558883667,-0.012722102925181389,0.08682245016098022
1783245480342601500,0.1486015625,-0.34359803795814514,-0.00659257173538208,0.12741488218307495
1783245480352613400,0.15861328125,-0.3376901149749756,-0.022455453872680664,0.1627834290266037
1783245480362624800,0.168624755859375,-0.3347736895084381,-0.051587771624326706,0.18620674312114716
1783245480372636700,0.17863671875,-0.3347174823284149,-0.07787846773862839,0.19119198620319366
1783245480382648600,0.188648681640625,-0.35021841526031494,-0.09550699591636658,0.19176936149597168
1783245480392659700,0.19865966796875,-0.38412079215049744,-0.10068108886480331,0.1953670084476471
1783245480402671600,0.208671630859375,-0.4292565882205963,-0.09342397004365921,0.2097531408071518
1783245480412682500,0.2186826171875,-0.46986153721809387,-0.057916309684515,0.2189924418926239
1783245480422694400,0.2286943359375,-0.5083375573158264,-0.006812647916376591,0.21833224594593048
1783245480432706600,0.23870654296875,-0.5395008325576782,0.012778106145560741,0.22965440154075623
1783245480442717400,0.248717529296875,-0.5446577668190002,-0.011495808139443398,0.2579645812511444
1783245480452729300,0.258729248046875,-0.5200904011726379,-0.04243291914463043,0.2789027690887451
1783245480462741500,0.268741455078125,-0.4716104567050934,-0.05410901457071304,0.26746875047683716
1783245480472752600,0.278752685546875,-0.42215123772621155,-0.03416795656085014,0.21791402995586395
1783245480482764500,0.2887646484375,-0.38962793350219727,0.0026278728619217873,0.14681881666183472
1783245480492775400,0.298775390625,-0.3723420798778534,0.039935674518346786,0.06760422140359879
1783245480502787600,0.30878759765625,-0.3595711588859558,0.07746520638465881,-0.010209349915385246
1783245480512799500,0.318799560546875,-0.3498859703540802,0.1130823865532875,-0.07385579496622086
1783245480522810400,0.328810302734375,-0.3402019143104553,0.13884659111499786,-0.11862246692180634
1783245480532822500,0.338822509765625,-0.33791583776474,0.17231710255146027,-0.14745473861694336
1783245480542833700,0.348833740234375,-0.3338153660297394,0.20880453288555145,-0.17253266274929047
1783245480552845600,0.358845458984375,-0.3290672302246094,0.22226007282733917,-0.19185569882392883
1783245480562857700,0.368857666015625,-0.3162486255168915,0.1866285800933838,-0.21245472133159637
1783245480572868600,0.37886865234375,-0.30464258790016174,0.14652840793132782,-0.22309665381908417
1783245480582880500,0.388880615234375,-0.29634761810302734,0.10973843932151794,-0.22470253705978394
1783245480592892700,0.398892578125,-0.28859710693359375,0.09222535043954849,-0.21838539838790894
1783245480602903600,0.408903564453125,-0.2840697467327118,0.08707133680582047,-0.20657694339752197
1783245480612915500,0.41891552734375,-0.29217028617858887,0.07692069560289383,-0.18300184607505798
1783245480622926600,0.428926513671875,-0.31304681301116943,0.04967202991247177,-0.14346136152744293
1783245480632938500,0.4389384765625,-0.3355681300163269,0.010212855413556099,-0.09337452054023743
1783245480642950700,0.44895068359375,-0.3588143289089203,-0.013627497479319572,-0.04517316445708275
1783245480652961500,0.45896142578125,-0.384485125541687,-0.032868482172489166,-0.00583241693675518
1783245480662973700,0.4689736328125,-0.4035688042640686,-0.08272898197174072,0.0207776241004467
1783245480672985600,0.478985595703125,-0.4186265468597412,-0.1559322029352188,0.03921353071928024
1783245480682996500,0.48899658203125,-0.4282884895801544,-0.21181491017341614,0.04461894929409027
1783245480693008600,0.499008544921875,-0.43105217814445496,-0.21585020422935486,0.03936595469713211
1783245480703019500,0.50901953125,-0.4366714358329773,-0.17265133559703827,0.029024897143244743
1783245480713031400,0.519031494140625,-0.4422762393951416,-0.09806030988693237,0.013686035759747028
1783245480723043300,0.529043212890625,-0.45163193345069885,-0.00028900778852403164,-0.014700864441692829
1783245480733054700,0.5390546875,-0.46496185660362244,0.08442389965057373,-0.04346628487110138
1783245480743066600,0.549066650390625,-0.48431503772735596,0.1285865753889084,-0.06713034212589264
1783245480753077500,0.559077392578125,-0.5058640241622925,0.1403142511844635,-0.08301656693220139
1783245480763089400,0.56908935546875,-0.5261988639831543,0.12445592880249023,-0.08479209244251251
1783245480773101600,0.5791015625,-0.541527509689331,0.0946093499660492,-0.07602257281541824
1783245480783112400,0.589112548828125,-0.545274019241333,0.05095615237951279,-0.061347492039203644
1783245480793124400,0.599124267578125,-0.5494630932807922,0.007870489731431007,-0.04541773349046707
1783245480803136300,0.60913623046875,-0.5541630387306213,-0.01799892447888851,-0.02778014913201332
1783245480813147600,0.619147705078125,-0.5537189841270447,-0.0075743719935417175,-0.01151285134255886
1783245480823159600,0.62915966796875,-0.5450882315635681,0.021210672333836555,-0.011018568649888039
1783245480833170400,0.63917041015625,-0.5284470915794373,0.06791835278272629,-0.02485206350684166
1783245480843182600,0.6491826171875,-0.512387216091156,0.1312754899263382,-0.04858668893575668
1783245480853194500,0.659194580078125,-0.5005541443824768,0.1917123645544052,-0.06496752798557281
1783245480863205400,0.669205322265625,-0.4939199388027191,0.22810792922973633,-0.06557659059762955
1783245480873217500,0.679217529296875,-0.4916837811470032,0.23605877161026,-0.04534357786178589
1783245480883229400,0.6892294921875,-0.48977747559547424,0.22494326531887054,-0.016095411032438278
1783245480893240600,0.699240478515625,-0.4903832972049713,0.1923850178718567,0.020325301215052605
1783245480903252500,0.70925244140625,-0.49080806970596313,0.1624196618795395,0.04651402682065964
1783245480913263600,0.719263671875,-0.4849115312099457,0.14356572926044464,0.06295031309127808
1783245480923275500,0.729275634765625,-0.4829900562763214,0.1335487812757492,0.06545209139585495
1783245480933287400,0.739287353515625,-0.4860650897026062,0.11984875053167343,0.05332076922059059
1783245480943298600,0.749298583984375,-0.4896835386753082,0.11810651421546936,0.022283494472503662
1783245480953310500,0.759310546875,-0.4868951141834259,0.1354895979166031,-0.025828350335359573
1783245480963321300,0.7693212890625,-0.4676995873451233,0.15988175570964813,-0.07244725525379181
1783245480973333200,0.779333251953125,-0.428754985332489,0.16047567129135132,-0.11025715619325638
1783245480983345400,0.789345458984375,-0.3702213764190674,0.12752969563007355,-0.12728248536586761
1783245480993356500,0.7993564453125,-0.3045118451118469,0.06720665842294693,-0.11642035841941833
1783245481003368400,0.809368408203125,-0.2463923543691635,-0.007711790502071381,-0.07114902138710022
1783245481013380600,0.819380615234375,-0.18723028898239136,-0.08343659341335297,0.00042012473568320274
1783245481023391500,0.8293916015625,-0.14049074053764343,-0.13543641567230225,0.08204414695501328
1783245481033403400,0.8394033203125,-0.10193756222724915,-0.14010614156723022,0.15573789179325104
1783245481043414300,0.849414306640625,-0.07892385870218277,-0.1076643168926239,0.21578870713710785
1783245481053426400,0.859426513671875,-0.06109149381518364,-0.07776829600334167,0.262677937746048
1783245481063438300,0.869438232421875,-0.049268387258052826,-0.056643299758434296,0.28856411576271057
1783245481073449500,0.879449462890625,-0.05533941462635994,-0.026867613196372986,0.2944205105304718
1783245481083461600,0.889461669921875,-0.07755124568939209,-0.005172970704734325,0.29367563128471375
1783245481093472500,0.899472412109375,-0.11971398442983627,0.005207272712141275,0.29027488827705383
1783245481103484400,0.909484375,-0.1794007569551468,0.002389115747064352,0.2916967570781708
1783245481113496600,0.91949658203125,-0.25041624903678894,-0.0006448857020586729,0.2971001863479614
1783245481123507500,0.929507568359375,-0.31385698914527893,0.0065957168117165565,0.3028281331062317
1783245481133519400,0.939519287109375,-0.3603425920009613,0.009810359217226505,0.3058144152164459
1783245481143531500,0.949531494140625,-0.38449984788894653,0.004473650828003883,0.29227569699287415
1783245481153542400,0.95954248046875,-0.39128872752189636,0.0000050854869186878204,0.26013705134391785
1783245481163554300,0.96955419921875,-0.38408195972442627,0.004036845173686743,0.22332417964935303
1783245481173565400,0.9795654296875,-0.35369873046875,-0.0180702842772007,0.19018153846263885
1783245481183577600,0.98957763671875,-0.31260138750076294,-0.0595783106982708,0.16274164617061615
1783245481193589500,0.999589599609375,-0.2741928994655609,-0.11568725109100342,0.14337556064128876
1783245481203600400,1.009600341796875,-0.24347546696662903,-0.16808761656284332,0.12740059196949005
1783245481213612500,1.019612548828125,-0.22696948051452637,-0.19724754989147186,0.10900343954563141
1783245481223624400,1.02962451171875,-0.22074487805366516,-0.21165044605731964,0.08197607845067978
1783245481233635300,1.03963525390625,-0.23165683448314667,-0.21740072965621948,0.04646638408303261
1783245481243647500,1.0496474609375,-0.26452159881591797,-0.20880644023418427,0.005796987563371658
1783245481253658600,1.05965869140625,-0.30732831358909607,-0.20106837153434753,-0.03846108168363571
1783245481263670500,1.06967041015625,-0.34453320503234863,-0.23192907869815826,-0.07741860300302505
1783245481273682400,1.079682373046875,-0.36846280097961426,-0.28301361203193665,-0.114187091588974
1783245481283693600,1.089693603515625,-0.37737613916397095,-0.3276929259300232,-0.14846490323543549
1783245481293705500,1.09970556640625,-0.38124847412109375,-0.37366968393325806,-0.16477102041244507
1783245481303716400,1.10971630859375,-0.37589871883392334,-0.41892239451408386,-0.14361406862735748
1783245481313728500,1.119728515625,-0.35801181197166443,-0.42473751306533813,-0.10873501002788544
1783245481323740400,1.129740478515625,-0.3277202248573303,-0.3878854811191559,-0.08301659673452377
1783245481333751600,1.13975146484375,-0.3004157841205597,-0.3591969609260559,-0.06892344355583191
1783245481343763500,1.149763427734375,-0.28772929310798645,-0.3540525436401367,-0.05841807276010513
1783245481353775600,1.159775634765625,-0.28059160709381104,-0.360524445772171,-0.06152009218931198
1783245481363786500,1.169786376953125,-0.28359323740005493,-0.3765137791633606,-0.06733297556638718
1783245481373798400,1.17979833984375,-0.29894787073135376,-0.3911600112915039,-0.08236675709486008
1783245481383809500,1.1898095703125,-0.32729217410087585,-0.4027138650417328,-0.09838700294494629
1783245481393821400,1.199821533203125,-0.37076517939567566,-0.4174194633960724,-0.11323225498199463
1783245481403833300,1.209833251953125,-0.41715720295906067,-0.42295271158218384,-0.1289379894733429
1783245481413844200,1.21984423828125,-0.4554895758628845,-0.4179146885871887,-0.14654609560966492
1783245481423856400,1.2298564453125,-0.48725470900535583,-0.40965569019317627,-0.16465187072753906
1783245481433868300,1.239868408203125,-0.5090486407279968,-0.3870582580566406,-0.17297346889972687
1783245481443879400,1.24987939453125,-0.5248169302940369,-0.3419211208820343,-0.17190927267074585
1783245481453891600,1.2598916015625,-0.5280577540397644,-0.290444940328598,-0.1574854552745819
1783245481463902500,1.26990234375,-0.5147120952606201,-0.25391167402267456,-0.13430875539779663
1783245481473914400,1.279914306640625,-0.49293240904808044,-0.24198511242866516,-0.1075771301984787
1783245481483926500,1.289926513671875,-0.4738956093788147,-0.2525506913661957,-0.08033564686775208
1783245481493937400,1.2999375,-0.46264588832855225,-0.27536097168922424,-0.060654740780591965
1783245481503949300,1.30994921875,-0.46541157364845276,-0.3246898949146271,-0.05025642737746239
1783245481513960400,1.31996044921875,-0.4749464988708496,-0.3796769380569458,-0.052488841116428375
1783245481523972600,1.32997265625,-0.4817966818809509,-0.43380624055862427,-0.05487902835011482
1783245481533984500,1.339984619140625,-0.48532652854919434,-0.48537084460258484,-0.048353422433137894
1783245481543995400,1.349995361328125,-0.48639416694641113,-0.5148605704307556,-0.0252118818461895
1783245481554007600,1.360007568359375,-0.47825419902801514,-0.5202751159667969,0.009925592690706253
1783245481564019500,1.37001953125,-0.47309058904647827,-0.5088009238243103,0.06197947636246681
1783245481574030300,1.3800302734375,-0.4734724164009094,-0.4888690710067749,0.12418879568576813
1783245481584042500,1.39004248046875,-0.47825679183006287,-0.4615112245082855,0.18786470592021942
1783245481594053600,1.4000537109375,-0.49086958169937134,-0.43731874227523804,0.24890142679214478
1783245481604065500,1.4100654296875,-0.503606915473938,-0.4058244526386261,0.2959517538547516
1783245481614077700,1.42007763671875,-0.520658552646637,-0.35489436984062195,0.3169911801815033
1783245481624088600,1.430088623046875,-0.5399597883224487,-0.31429874897003174,0.31073328852653503
1783245481634100500,1.4401005859375,-0.552264392375946,-0.28951355814933777,0.27055928111076355
1783245481644111400,1.450111328125,-0.554503858089447,-0.2870568037033081,0.19268019497394562
1783245481654123500,1.46012353515625,-0.5517445802688599,-0.2912578582763672,0.08737744390964508
1783245481664135400,1.470135498046875,-0.5544721484184265,-0.29611948132514954,-0.0271198358386755
1783245481674146300,1.480146240234375,-0.566614031791687,-0.294256329536438,-0.1294795274734497
1783245481684158500,1.490158447265625,-0.5833703875541687,-0.271095871925354,-0.20238035917282104
1783245481694170400,1.50017041015625,-0.5983841419219971,-0.24709391593933105,-0.23985332250595093
1783245481704181500,1.510181396484375,-0.614161491394043,-0.2549622356891632,-0.23784902691841125
1783245481714193700,1.520193603515625,-0.6331294178962708,-0.3144543468952179,-0.18839818239212036
1783245481724204500,1.53020458984375,-0.6481876969337463,-0.4575851261615753,-0.09878946840763092
1783245481734216400,1.540216552734375,-0.6472402215003967,-0.6497756838798523,0.02489897981286049
1783245481744228000,1.55022802734375,-0.6324085593223572,-0.7733069062232971,0.1530662626028061
1783245481754239200,1.5602392578125,-0.6154248118400574,-0.7704710364341736,0.24579545855522156
1783245481764251100,1.570251220703125,-0.6188347339630127,-0.6483781337738037,0.2751520276069641
1783245481774263000,1.580262939453125,-0.6441028714179993,-0.4579795300960541,0.23251448571681976
1783245481784274200,1.590274169921875,-0.6793820261955261,-0.2626132369041443,0.1289510726928711
1783245481794286300,1.600286376953125,-0.7211111783981323,-0.1258859932422638,0.008128052577376366
1783245481804297200,1.610297119140625,-0.753715991973877,-0.07747610658407211,-0.0869569182395935
1783245481814309000,1.62030908203125,-0.7805540561676025,-0.11420470476150513,-0.10425698757171631
1783245481824321300,1.6303212890625,-0.8090437650680542,-0.2211114466190338,-0.023236703127622604
1783245481834332200,1.640332275390625,-0.8426011204719543,-0.3810291588306427,0.13071148097515106
1783245481844344000,1.650343994140625,-0.8709914684295654,-0.5712550282478333,0.30943596363067627
1783245481854355200,1.660355224609375,-0.8855272531509399,-0.750045657157898,0.47595933079719543
1783245481864367400,1.670367431640625,-0.8980206847190857,-0.8896235227584839,0.6076867580413818
1783245481874379300,1.680379150390625,-0.9167550206184387,-0.9780879020690918,0.699529230594635
1783245481884390100,1.69039013671875,-0.934741199016571,-1.0263633728027344,0.7590048313140869
1783245481894402300,1.70040234375,-0.9323352575302124,-1.0304564237594604,0.7894004583358765
1783245481904414200,1.710414306640625,-0.9170116782188416,-1.0034685134887695,0.8022531270980835
1783245481914425000,1.720425048828125,-0.8977031707763672,-0.9633651971817017,0.8037775158882141
1783245481924437200,1.730437255859375,-0.8757182359695435,-0.9075877070426941,0.785252034664154
1783245481934448000,1.7404482421875,-0.8461199998855591,-0.8405684232711792,0.7384634613990784
1783245481944460000,1.7504599609375,-0.8097707629203796,-0.7826515436172485,0.6680649518966675
1783245481954472200,1.76047216796875,-0.7738391160964966,-0.7229547500610352,0.5721377730369568
1783245481964483300,1.7704833984375,-0.7489779591560364,-0.6504419445991516,0.45850199460983276
1783245481974495200,1.7804951171875,-0.7277725338935852,-0.5574960708618164,0.3248930871486664
1783245481984507400,1.79050732421875,-0.7178227305412292,-0.4618166387081146,0.18089650571346283
1783245481994518300,1.800518310546875,-0.7197415232658386,-0.39964139461517334,0.03414728119969368
1783245482004530200,1.8105302734375,-0.7355692386627197,-0.3585147261619568,-0.1008283793926239
1783245482014541000,1.820541015625,-0.7555179595947266,-0.3335808515548706,-0.21337823569774628
1783245482024553200,1.83055322265625,-0.7823573350906372,-0.28544050455093384,-0.310213178396225
1783245482034565000,1.840565185546875,-0.8057618737220764,-0.17559173703193665,-0.4049145579338074
1783245482044576300,1.850576171875,-0.8120200634002686,-0.055459991097450256,-0.4821148216724396
1783245482054588400,1.86058837890625,-0.7902833819389343,-0.0036058365367352962,-0.5281959772109985
1783245482064599300,1.870599365234375,-0.7377213835716248,-0.03542501851916313,-0.5473814010620117
1783245482074611200,1.880611083984375,-0.6561889052391052,-0.14764271676540375,-0.5280324220657349
1783245482084623000,1.890623046875,-0.570879340171814,-0.3101844787597656,-0.45935165882110596
1783245482094634200,1.90063427734375,-0.5009821653366089,-0.4795188307762146,-0.35637015104293823
1783245482104646100,1.910646240234375,-0.46877309679985046,-0.6122614145278931,-0.24578291177749634
1783245482114658000,1.920657958984375,-0.470458447933197,-0.7273433208465576,-0.13714197278022766
1783245482124669400,1.93066943359375,-0.5074580311775208,-0.8090725541114807,-0.04783046990633011
1783245482134681300,1.940681396484375,-0.5599406361579895,-0.8373991250991821,0.01780109480023384
1783245482144692200,1.950692138671875,-0.6204322576522827,-0.8053176403045654,0.060116589069366455
1783245482154704400,1.960704345703125,-0.6842162609100342,-0.7302023768424988,0.09218942373991013
1783245482164716300,1.97071630859375,-0.7388965487480164,-0.647018313407898,0.11688278615474701
1783245482174727200,1.98072705078125,-0.7761136293411255,-0.578165590763092,0.12815240025520325
1783245482184739000,1.990739013671875,-0.795583963394165,-0.5130837559700012,0.11942709237337112
1783245482194751200,2.000751220703125,-0.7991755604743958,-0.45814135670661926,0.09030967950820923
1783245482204762000,2.01076220703125,-0.789799153804779,-0.41823282837867737,0.05403982475399971
1783245482214774000,2.02077392578125,-0.7714366316795349,-0.3818179965019226,-0.0004985504783689976
1783245482224785400,2.030785400390625,-0.7425168752670288,-0.32117515802383423,-0.0836445689201355
1783245482234797300,2.04079736328125,-0.7105339765548706,-0.23653778433799744,-0.20363007485866547
1783245482244809200,2.050809326171875,-0.6800892353057861,-0.1545819193124771,-0.3463160991668701
1783245482254820000,2.060820068359375,-0.6471232771873474,-0.1116308867931366,-0.48081958293914795
1783245482264832300,2.070832275390625,-0.6072008609771729,-0.09923519939184189,-0.5775269269943237
1783245482274843100,2.080843017578125,-0.5666762590408325,-0.12409030646085739,-0.6272827982902527
1783245482284855000,2.09085498046875,-0.5350850224494934,-0.156650111079216,-0.6254606246948242
1783245482294867200,2.1008671875,-0.5174497365951538,-0.17549476027488708,-0.57874995470047
1783245482304878300,2.11087841796875,-0.5184531807899475,-0.17970895767211914,-0.4978727102279663
1783245482314890200,2.12089013671875,-0.5276781320571899,-0.16625013947486877,-0.40242767333984375
1783245482324902400,2.13090234375,-0.5376378297805786,-0.12012046575546265,-0.31862038373947144
1783245482334913300,2.140913330078125,-0.544205367565155,-0.030297458171844482,-0.26525917649269104
1783245482344925200,2.15092529296875,-0.5473734736442566,0.06096348166465759,-0.23548342287540436
1783245482354936000,2.16093603515625,-0.5497112274169922,0.11935051530599594,-0.20826812088489532
1783245482364948200,2.1709482421875,-0.5379672646522522,0.12593518197536469,-0.18038108944892883
1783245482374960000,2.180960205078125,-0.514919102191925,0.10485994815826416,-0.1552545428276062
1783245482384971300,2.19097119140625,-0.49761709570884705,0.07540405541658401,-0.1364547610282898
1783245482394983200,2.200983154296875,-0.4874684512615204,0.026992954313755035,-0.10824411362409592
1783245482404995300,2.210995361328125,-0.4727209210395813,-0.06825046986341476,-0.0686492994427681
1783245482415006200,2.221006103515625,-0.4561755061149597,-0.19859997928142548,-0.013274237513542175
1783245482425018400,2.231018310546875,-0.4376516044139862,-0.31996873021125793,0.05355192720890045
1783245482435029200,2.241029296875,-0.4287123382091522,-0.3849816918373108,0.1178455799818039
1783245482445041200,2.251041259765625,-0.4320138394832611,-0.39053067564964294,0.17382629215717316
1783245482455053300,2.26105322265625,-0.4416039288043976,-0.3688482940196991,0.2151366025209427
1783245482465064200,2.271064208984375,-0.44018471240997314,-0.3471837639808655,0.24339380860328674
1783245482475076000,2.281076171875,-0.42455407977104187,-0.3563401997089386,0.26371195912361145
1783245482485088000,2.291087890625,-0.4022711217403412,-0.37497541308403015,0.2622152864933014
1783245482495099400,2.301099365234375,-0.37659314274787903,-0.376359224319458,0.22969472408294678
1783245482505111300,2.311111328125,-0.34134912490844727,-0.3342605233192444,0.14754259586334229
1783245482515122200,2.3211220703125,-0.2976267337799072,-0.24814637005329132,0.014171270653605461
1783245482525134300,2.33113427734375,-0.24816036224365234,-0.15379084646701813,-0.15404143929481506
1783245482535146200,2.341146240234375,-0.19718356430530548,-0.08807513862848282,-0.33243221044540405
1783245482545157000,2.3511572265625,-0.14262525737285614,-0.07390446215867996,-0.49177980422973633
1783245482555169000,2.3611689453125,-0.08458708971738815,-0.10929485410451889,-0.5907064080238342
1783245482565180400,2.371180419921875,-0.030031703412532806,-0.21570411324501038,-0.6019489169120789
1783245482575192300,2.3811923828125,0.017130538821220398,-0.38338595628738403,-0.5189005732536316
1783245482585204200,2.391204345703125,0.06179521232843399,-0.5601998567581177,-0.36742955446243286
1783245482595215400,2.40121533203125,0.0860147774219513,-0.6962053179740906,-0.1744191199541092
1783245482605227300,2.411227294921875,0.07904048264026642,-0.7551053762435913,0.02151629328727722
1783245482615239200,2.4212392578125,0.025011010468006134,-0.7542988657951355,0.2011728733778
1783245482625250000,2.43125,-0.06541475653648376,-0.7093747854232788,0.34299978613853455
1783245482635262200,2.44126220703125,-0.17476508021354675,-0.6134944558143616,0.43787458539009094
1783245482645273000,2.451273193359375,-0.2767772078514099,-0.4980054199695587,0.497081995010376
1783245482655285200,2.46128515625,-0.3642449676990509,-0.3815354108810425,0.5339484810829163
1783245482665297200,2.471297119140625,-0.42430272698402405,-0.27782073616981506,0.5552204251289368
1783245482675308300,2.481308349609375,-0.4510309398174286,-0.18670159578323364,0.5454878211021423
1783245482685320200,2.4913203125,-0.4419008493423462,-0.09839090704917908,0.4903353750705719
1783245482695332400,2.501332275390625,-0.4014320969581604,-0.023554274812340736,0.38705435395240784
1783245482705343200,2.51134326171875,-0.3367044925689697,0.027057504281401634,0.2444378137588501
1783245482715355100,2.521355224609375,-0.24928152561187744,0.045229822397232056,0.07746925204992294
1783245482725366000,2.531365966796875,-0.14278782904148102,0.04353472217917442,-0.09986132383346558
1783245482735378200,2.541378173828125,-0.03099052794277668,0.021003931760787964,-0.25841501355171204
1783245482745390300,2.551390380859375,0.07771117985248566,-0.017325347289443016,-0.3829982280731201
1783245482755401500,2.5614013671875,0.17800210416316986,-0.08058527857065201,-0.45444977283477783
1783245482765413600,2.57141357421875,0.25716346502304077,-0.17363394796848297,-0.4679308533668518
1783245482775424500,2.581424560546875,0.30992627143859863,-0.28061917424201965,-0.42077746987342834
1783245482785436400,2.5914365234375,0.3281460106372833,-0.36457160115242004,-0.32811757922172546
1783245482795448600,2.601448486328125,0.30288705229759216,-0.4142109751701355,-0.21511773765087128
1783245482805459500,2.61145947265625,0.23551757633686066,-0.4213082790374756,-0.09994214028120041
1783245482815471400,2.621471435546875,0.13078570365905762,-0.37838634848594666,-0.005165917798876762
1783245482825483300,2.631483154296875,0.01780136302113533,-0.30650681257247925,0.06820842623710632
1783245482835494400,2.641494384765625,-0.08877228200435638,-0.22565026581287384,0.11954314261674881
1783245482845506300,2.65150634765625,-0.17402566969394684,-0.1459951102733612,0.15323026478290558
1783245482855517400,2.661517333984375,-0.22385954856872559,-0.07921462506055832,0.1730988621711731
1783245482865529600,2.671529541015625,-0.2491060495376587,-0.028593258932232857,0.17345254123210907
1783245482875541500,2.68154150390625,-0.24906326830387115,0.0003465993795543909,0.15331503748893738
1783245482885552400,2.691552490234375,-0.23973502218723297,0.005586901679635048,0.11522943526506424
1783245482895564300,2.701564208984375,-0.2201557606458664,0.0012529520317912102,0.06172437220811844
1783245482905576400,2.711576416015625,-0.19365811347961426,0.008599547669291496,-0.0074243382550776005
1783245482915587300,2.72158740234375,-0.1623084545135498,0.032063715159893036,-0.0794166848063469
1783245482925599200,2.73159912109375,-0.1251525580883026,0.052215322852134705,-0.14040173590183258
1783245482935610600,2.741610595703125,-0.08489829301834106,0.06667357683181763,-0.17996394634246826
1783245482945622500,2.75162255859375,-0.041922856122255325,0.08042080700397491,-0.18900005519390106
1783245482955634400,2.761634521484375,0.003903826931491494,0.09782934933900833,-0.18023082613945007
1783245482965645300,2.771645263671875,0.0557238794863224,0.09464287757873535,-0.16379858553409576
1783245482975657500,2.781657470703125,0.10885181277990341,0.07583963125944138,-0.1594371348619461
1783245482985669400,2.79166943359375,0.15473967790603638,0.045271337032318115,-0.1692495495080948
1783245482995680300,2.80168017578125,0.18785089254379272,-0.008432846516370773,-0.18801505863666534
1783245483005692400,2.8116923828125,0.2156156748533249,-0.06388518214225769,-0.201468825340271
1783245483015703600,2.82170361328125,0.23603059351444244,-0.11492492258548737,-0.20117957890033722
1783245483025715500,2.831715576171875,0.24384990334510803,-0.14977559447288513,-0.18068601191043854
1783245483035727600,2.8417275390625,0.23160898685455322,-0.15673968195915222,-0.1445309966802597
1783245483045738500,2.851738525390625,0.20567698776721954,-0.14300309121608734,-0.09941545873880386
1783245483055750400,2.86175048828125,0.16115674376487732,-0.09536968916654587,-0.04955226182937622
1783245483065761300,2.87176123046875,0.10587271302938461,-0.018329238519072533,-0.0039014199282974005
1783245483075773400,2.8817734375,0.05396066978573799,0.07402250915765762,0.03701000288128853
1783245483085785300,2.891785400390625,0.0030135989654809237,0.160599485039711,0.0629851371049881
1783245483095796200,2.901796142578125,-0.04023909196257591,0.21503856778144836,0.059354424476623535
1783245483105808400,2.911808349609375,-0.07600189000368118,0.200795978307724,0.03294731676578522
1783245483115820300,2.9218203125,-0.10108917951583862,0.12046325206756592,-0.00593956746160984
1783245483125831400,2.93183154296875,-0.11506837606430054,0.008331655524671078,-0.04895308241248131
1783245483135843600,2.941843505859375,-0.12019773572683334,-0.1262996941804886,-0.07693737000226974
1783245483145854500,2.9518544921875,-0.11430549621582031,-0.25872188806533813,-0.08229432255029678
1783245483155866400,2.961866455078125,-0.10424499213695526,-0.3801621198654175,-0.05169317498803139
1783245483165878500,2.97187841796875,-0.0869794562458992,-0.47324198484420776,0.009916923940181732
1783245483175889400,2.981889404296875,-0.07118424773216248,-0.4994136691093445,0.08993452787399292
1783245483185901300,2.9919013671875,-0.07565782219171524,-0.45258569717407227,0.1674487590789795
1783245483195913200,3.001913330078125,-0.09815371036529541,-0.3568962812423706,0.22512803971767426
1783245483205924600,3.011924560546875,-0.1419975906610489,-0.2497221827507019,0.27076423168182373
1783245483215936500,3.0219365234375,-0.20182113349437714,-0.15711839497089386,0.3113720118999481
1783245483225947400,3.031947509765625,-0.26598334312438965,-0.07020507007837296,0.3532227873802185
1783245483235959600,3.04195947265625,-0.33330991864204407,0.01581263169646263,0.38960742950439453
1783245483245971500,3.051971435546875,-0.39601218700408936,0.0765145942568779,0.4096525311470032
1783245483255982300,3.061982421875,-0.4441032409667969,0.07342338562011719,0.40750816464424133
1783245483265994200,3.071994140625,-0.4694261848926544,-0.005691405385732651,0.3807101249694824
1783245483276006400,3.08200634765625,-0.46877872943878174,-0.1275627315044403,0.33620119094848633
1783245483286017500,3.092017578125,-0.44177213311195374,-0.25912901759147644,0.2805027961730957
1783245483296029400,3.102029541015625,-0.39926445484161377,-0.39320623874664307,0.24169903993606567
1783245483306040600,3.11204052734375,-0.35673457384109497,-0.5141790509223938,0.2463683784008026
1783245483316052500,3.122052490234375,-0.32061004638671875,-0.5994723439216614,0.3038492202758789
1783245483326064400,3.132064453125,-0.29548099637031555,-0.6457391977310181,0.39136335253715515
1783245483336075300,3.1420751953125,-0.289443701505661,-0.6494250297546387,0.4761632978916168
1783245483346087400,3.15208740234375,-0.31009435653686523,-0.6383683681488037,0.5400053858757019
1783245483356098300,3.162098388671875,-0.3520757555961609,-0.6070091128349304,0.5775489211082458
1783245483366110200,3.172110107421875,-0.4072149097919464,-0.5380532145500183,0.5837532877922058
1783245483376122400,3.182122314453125,-0.46257084608078003,-0.4455028772354126,0.5603930354118347
1783245483386133500,3.192133544921875,-0.5146498084068298,-0.3484743535518646,0.524064302444458
1783245483396145400,3.2021455078125,-0.5570247769355774,-0.2618929147720337,0.4753207266330719
1783245483406157600,3.212157470703125,-0.5785945057868958,-0.18025320768356323,0.4106232225894928
1783245483416168400,3.22216845703125,-0.5846989154815674,-0.11515354365110397,0.321872353553772
1783245483426180400,3.232180419921875,-0.5769008994102478,-0.06475135684013367,0.22089940309524536
1783245483436192500,3.242192626953125,-0.5535745620727539,-0.03550079092383385,0.11961086839437485
1783245483446203400,3.252203369140625,-0.4980047345161438,-0.028678571805357933,0.04013868421316147
1783245483456215300,3.26221533203125,-0.4129497706890106,-0.06633628159761429,-0.000018293969333171844
1783245483466226400,3.272226318359375,-0.3125097155570984,-0.1388845145702362,0.008976532146334648
1783245483476238600,3.282238525390625,-0.22105063498020172,-0.21820440888404846,0.06154908239841461
1783245483486250500,3.29225048828125,-0.1581963151693344,-0.26779061555862427,0.13091695308685303
1783245483496261400,3.302261474609375,-0.1309930384159088,-0.24510955810546875,0.17333440482616425
1783245483506273500,3.3122734375,-0.13971063494682312,-0.19862301647663116,0.1801702082157135
1783245483516284400,3.322284423828125,-0.16990439593791962,-0.17652273178100586,0.162009134888649
1783245483526296300,3.33229638671875,-0.20913009345531464,-0.18353670835494995,0.14204075932502747
1783245483536308500,3.34230859375,-0.24366582930088043,-0.18739089369773865,0.12979909777641296
1783245483546319400,3.3523193359375,-0.2726689875125885,-0.18775175511837006,0.13660560548305511
1783245483556331500,3.36233154296875,-0.2894741892814636,-0.2094259411096573,0.16737478971481323
1783245483566343400,3.372343505859375,-0.29495951533317566,-0.22090895473957062,0.2068910300731659
1783245483576354600,3.3823544921875,-0.29371681809425354,-0.20271669328212738,0.2424834966659546
1783245483586366500,3.392366455078125,-0.29435038566589355,-0.17607496678829193,0.27761512994766235
1783245483596377300,3.40237744140625,-0.30007174611091614,-0.15939049422740936,0.3129574656486511
1783245483606389500,3.412389404296875,-0.3009029030799866,-0.1406828612089157,0.3428133726119995
1783245483616401400,3.4224013671875,-0.29682233929634094,-0.11785352975130081,0.36254632472991943
1783245483626412300,3.432412353515625,-0.2857814133167267,-0.06966176629066467,0.3569699227809906
1783245483636424400,3.442424560546875,-0.2734702229499817,-0.017330870032310486,0.32348641753196716
1783245483646436400,3.452436279296875,-0.2570403814315796,0.02572285570204258,0.2649429440498352
1783245483656447500,3.462447509765625,-0.22997795045375824,0.0472804456949234,0.18672005832195282
1783245483666459400,3.47245947265625,-0.187334343791008,0.05276735499501228,0.09460238367319107
1783245483676470500,3.482470458984375,-0.12752191722393036,0.05129275098443031,-0.008378341794013977
1783245483686482400,3.492482421875,-0.06405612826347351,0.04212481901049614,-0.11953841894865036
1783245483696494300,3.502494384765625,0.004044522996991873,0.02824072167277336,-0.23424336314201355
1783245483706505500,3.51250537109375,0.06692974269390106,0.014086286537349224,-0.3534057140350342
1783245483716517400,3.522517333984375,0.12268057465553284,0.006815743632614613,-0.47036993503570557
1783245483726529300,3.532529296875,0.16925659775733948,0.006090831011533737,-0.5827332139015198
1783245483736540400,3.54254052734375,0.2090860903263092,-0.00728737935423851,-0.6838710308074951
1783245483746552800,3.552552734375,0.2360290288925171,-0.011513548903167248,-0.7634752988815308
1783245483756563700,3.562563720703125,0.24533577263355255,-0.013308946043252945,-0.7982137799263
1783245483766575900,3.572575927734375,0.24137724936008453,-0.013929462060332298,-0.7782174348831177
1783245483776587800,3.582587890625,0.22526167333126068,-0.005189352203160524,-0.7045944333076477
1783245483786598700,3.5925986328125,0.1924573928117752,0.0243845172226429,-0.589727520942688
1783245483796610800,3.60261083984375,0.15030543506145477,0.07016753405332565,-0.4639571011066437
1783245483806622700,3.612622802734375,0.1051589846611023,0.13754285871982574,-0.34508904814720154
1783245483816633600,3.622633544921875,0.06300532817840576,0.21184074878692627,-0.24011185765266418
1783245483826645500,3.6326455078125,0.023956725373864174,0.28230130672454834,-0.15659911930561066
1783245483836657000,3.642656982421875,-0.0012009425554424524,0.33354753255844116,-0.08674744516611099
1783245483846668800,3.652668701171875,-0.0159591156989336,0.32597988843917847,-0.02583322860300541
1783245483856680700,3.6626806640625,-0.02004200592637062,0.25186216831207275,0.024960767477750778
1783245483866691800,3.67269189453125,-0.023207971826195717,0.14446967840194702,0.07259459793567657
1783245483876703700,3.682703857421875,-0.026817942038178444,0.05276947468519211,0.1140783280134201
1783245483886715600,3.692715576171875,-0.03220977634191513,0.0080704465508461,0.14988985657691956
1783245483896726500,3.7027265625,-0.040024589747190475,0.01621367409825325,0.16545386612415314
1783245483906738700,3.71273876953125,-0.044063273817300797,0.058007724583148956,0.157563716173172
1783245483916749800,3.722749755859375,-0.051176708191633224,0.11332540959119797,0.13117049634456635
1783245483926761700,3.73276171875,-0.05107897147536278,0.16828319430351257,0.09054238349199295
1783245483936774000,3.74277392578125,-0.03650905564427376,0.2141512781381607,0.04383908957242966
1783245483946784800,3.75278466796875,-0.005039546173065901,0.2467435747385025,0.0026461142115294933
1783245483956796700,3.762796630859375,0.041686393320560455,0.2565678358078003,-0.03232535719871521
1783245483966808800,3.772808837890625,0.09467717260122299,0.2610930800437927,-0.06929989159107208
1783245483976819700,3.78281982421875,0.14901237189769745,0.2552437484264374,-0.10895507782697678
1783245483986831600,3.79283154296875,0.19673115015029907,0.2393646389245987,-0.1575942486524582
1783245483996842500,3.802842529296875,0.23261432349681854,0.2465113252401352,-0.23778922855854034
1783245484006854700,3.812854736328125,0.2509872019290924,0.23866352438926697,-0.33604151010513306
1783245484016866600,3.822866455078125,0.24971701204776764,0.17189688980579376,-0.4140639007091522
1783245484026877700,3.832877685546875,0.21662217378616333,0.0582779198884964,-0.4308985471725464
1783245484036889900,3.842889892578125,0.17447751760482788,-0.06530231982469559,-0.36717143654823303
1783245484046901800,3.85290185546875,0.13111406564712524,-0.15243402123451233,-0.2340347021818161
1783245484056912600,3.86291259765625,0.08333089202642441,-0.16150982677936554,-0.05662878230214119
1783245484066924800,3.8729248046875,0.035426750779151917,-0.09564479440450668,0.12100273370742798
1783245484076935700,3.882935791015625,-0.011812904849648476,0.018356870859861374,0.2767707109451294
1783245484086947600,3.892947509765625,-0.04582146927714348,0.16922920942306519,0.4011496603488922
1783245484096959700,3.902959716796875,-0.056671902537345886,0.33235877752304077,0.494717001914978
1783245484106971000,3.912970947265625,-0.028980353847146034,0.4659562408924103,0.5542892217636108
1783245484116982800,3.922982666015625,0.03459276258945465,0.5429778099060059,0.5717356204986572
1783245484126993700,3.93299365234375,0.1281232386827469,0.5735024213790894,0.5379334092140198
1783245484137005800,3.943005859375,0.24276596307754517,0.5586166381835938,0.45889800786972046
1783245484147017700,3.953017822265625,0.3682149648666382,0.5151144862174988,0.34290218353271484
1783245484157028600,3.963028564453125,0.4927521347999573,0.46503663063049316,0.20368964970111847
1783245484167040800,3.973040771484375,0.6081311702728271,0.42894840240478516,0.05402931943535805
1783245484177052700,3.983052734375,0.7029863595962524,0.3931043744087219,-0.09444735944271088
1783245484187063800,3.993063720703125,0.7692079544067383,0.336243212223053,-0.21604037284851074
1783245484197075700,4.00307568359375,0.8122576475143433,0.24921578168869019,-0.29237568378448486
1783245484207087900,4.013087890625,0.8503944277763367,0.1417633593082428,-0.3219791054725647
1783245484217098800,4.0230986328125,0.8757134079933167,0.03473760560154915,-0.31396451592445374
1783245484227110700,4.033110595703125,0.8837100863456726,-0.04536175727844238,-0.27600568532943726
1783245484237121800,4.043121826171875,0.8650131225585938,-0.09226889163255692,-0.22583088278770447
1783245484247133700,4.0531337890625,0.8363641500473022,-0.1160498559474945,-0.1757621318101883
1783245484257145600,4.0631455078125,0.8007521629333496,-0.09378194808959961,-0.14278030395507812
1783245484267156500,4.073156494140625,0.7649645805358887,-0.037922680377960205,-0.11472442746162415
1783245484277168600,4.083168701171875,0.7294130325317383,0.02477569878101349,-0.08879130333662033
1783245484287180500,4.0931806640625,0.698430597782135,0.0871535912156105,-0.058120209723711014
1783245484297191700,4.103191650390625,0.6712609529495239,0.16479037702083588,-0.037527430802583694
1783245484307203800,4.113203857421875,0.6459609270095825,0.24996812641620636,-0.03472338989377022
1783245484317214700,4.123214599609375,0.6124567985534668,0.302240788936615,-0.04642970487475395
1783245484327226600,4.1332265625,0.5784010887145996,0.3021702170372009,-0.06567636877298355
1783245484337238800,4.14323876953125,0.5626468658447266,0.266539603471756,-0.10311722010374069
1783245484347249700,4.153249755859375,0.5625240802764893,0.22649018466472626,-0.15532822906970978
1783245484357261600,4.163261474609375,0.5658330321311951,0.1777757704257965,-0.22096572816371918
1783245484367273700,4.173273681640625,0.5695470571517944,0.1450766772031784,-0.2910694479942322
1783245484377284900,4.183284912109375,0.5682135224342346,0.1325918585062027,-0.3534207046031952
1783245484387296800,4.193296875,0.5630062222480774,0.1331668347120285,-0.39429545402526855
1783245484397307600,4.2033076171875,0.5482589602470398,0.14369381964206696,-0.41213899850845337
1783245484407319800,4.21331982421875,0.5268679261207581,0.13325396180152893,-0.4022267162799835
1783245484417331700,4.223331787109375,0.4983213245868683,0.11502960324287415,-0.37008076906204224
1783245484427342600,4.233342529296875,0.4591882824897766,0.11004497110843658,-0.32877352833747864
1783245484437354800,4.243354736328125,0.41035574674606323,0.11679813265800476,-0.28067949414253235
1783245484447366000,4.253365966796875,0.3560009002685547,0.13331133127212524,-0.22783412039279938
1783245484457377800,4.263377685546875,0.30002373456954956,0.15733888745307922,-0.17511367797851562
1783245484467389700,4.2733896484375,0.24999651312828064,0.18803128600120544,-0.13171879947185516
1783245484477400800,4.28340087890625,0.21577368676662445,0.20322883129119873,-0.10327664017677307
1783245484487412700,4.293412841796875,0.1990508884191513,0.18325085937976837,-0.08943566679954529
1783245484497424600,4.303424560546875,0.20162591338157654,0.1324775367975235,-0.09227880835533142
1783245484507435800,4.313435791015625,0.20535753667354584,0.07394286245107651,-0.11237634718418121
1783245484517447700,4.32344775390625,0.2056414783000946,0.025472106412053108,-0.1482434719800949
1783245484527459600,4.33345947265625,0.18739217519760132,0.00996052473783493,-0.191701740026474
1783245484537470700,4.343470703125,0.1534806340932846,0.020324045792222023,-0.2346654236316681
1783245484547482600,4.353482666015625,0.11510208249092102,0.04833943396806717,-0.27403518557548523
1783245484557493800,4.36349365234375,0.07721957564353943,0.08907224982976913,-0.3002645969390869
1783245484567505700,4.373505615234375,0.04483020678162575,0.1204642578959465,-0.3127007782459259
1783245484577517800,4.383517822265625,0.011213704943656921,0.14132939279079437,-0.30406418442726135
1783245484587528700,4.39352880859375,-0.02549717202782631,0.15259934961795807,-0.2868165075778961
1783245484597540600,4.40354052734375,-0.06052433326840401,0.12467948347330093,-0.2592642307281494
1783245484607552800,4.413552734375,-0.09159916639328003,0.060295961797237396,-0.2244894802570343
1783245484617563600,4.423563720703125,-0.11256641149520874,-0.023289930075407028,-0.17306523025035858
1783245484627575600,4.433575439453125,-0.11928743124008179,-0.13460153341293335,-0.08636946976184845
1783245484637587000,4.4435869140625,-0.12173864245414734,-0.30593252182006836,0.04877753555774689
1783245484647598800,4.453598876953125,-0.12559649348258972,-0.4946960508823395,0.21097123622894287
1783245484657610800,4.46361083984375,-0.14327581226825714,-0.6064202189445496,0.3672192692756653
1783245484667621600,4.47362158203125,-0.18647655844688416,-0.6155067086219788,0.488241046667099
1783245484677633800,4.4836337890625,-0.2544809877872467,-0.5600149035453796,0.5665708184242249
1783245484687645700,4.493645751953125,-0.32931822538375854,-0.42656129598617554,0.5852457284927368
1783245484697656600,4.503656494140625,-0.40291982889175415,-0.2470354437828064,0.5574653744697571
1783245484707668700,4.513668701171875,-0.4703771471977234,-0.07796225696802139,0.49034383893013
1783245484717679600,4.5236796875,-0.5315245985984802,0.05224229767918587,0.406585156917572
1783245484727691800,4.53369189453125,-0.5815550088882446,0.10871409624814987,0.335866779088974
1783245484737703700,4.54370361328125,-0.6153577566146851,0.07552175968885422,0.30466029047966003
1783245484747714800,4.55371484375,-0.6260871291160583,-0.0211629718542099,0.32038119435310364
1783245484757726700,4.563726806640625,-0.6161247491836548,-0.15026648342609406,0.3658417761325836
1783245484767739000,4.57373876953125,-0.5879822969436646,-0.2867388427257538,0.4262302815914154
1783245484777749800,4.583749755859375,-0.5509017109870911,-0.40147528052330017,0.47702261805534363
1783245484787761700,4.59376171875,-0.5168817043304443,-0.4723963141441345,0.5270823240280151
1783245484797772500,4.6037724609375,-0.5003092288970947,-0.4965674877166748,0.5811238288879395
1783245484807784700,4.61378466796875,-0.49534136056900024,-0.4975893497467041,0.6388728618621826
1783245484817796600,4.623796630859375,-0.5059800744056702,-0.47426387667655945,0.6666102409362793
1783245484827807700,4.633807861328125,-0.5314870476722717,-0.42882609367370605,0.6562318801879883
1783245484837820000,4.64381982421875,-0.5873019099235535,-0.3670964539051056,0.6108376979827881
1783245484847831800,4.653831787109375,-0.6665549278259277,-0.2885843515396118,0.5538098216056824
1783245484857842700,4.6638427734375,-0.7396236658096313,-0.1978718340396881,0.5142168402671814
1783245484867854800,4.673854736328125,-0.7914336323738098,-0.11222457140684128,0.5189599394798279
1783245484877865700,4.68386572265625,-0.8027753829956055,-0.02391313947737217,0.5678442120552063
1783245484887877600,4.693877685546875,-0.7777667045593262,0.061016932129859924,0.6281046271324158
1783245484897889500,4.7038896484375,-0.720909833908081,0.12196874618530273,0.6739444732666016
1783245484907901000,4.71390087890625,-0.6393681168556213,0.13672612607479095,0.6927309036254883
1783245484917912800,4.723912841796875,-0.5430266857147217,0.099190354347229,0.6827296018600464
1783245484927924700,4.7339248046875,-0.42589691281318665,0.04322482645511627,0.6454057097434998
1783245484937936000,4.743935791015625,-0.30391281843185425,-0.009969894774258137,0.5801426768302917
1783245484947947800,4.75394775390625,-0.17488640546798706,-0.07501760125160217,0.4942975640296936
1783245484957958700,4.763958740234375,-0.05199228972196579,-0.16848556697368622,0.41454529762268066
1783245484967970600,4.773970458984375,0.06449543684720993,-0.26224029064178467,0.35728707909584045
1783245484977982700,4.783982666015625,0.16657300293445587,-0.3340938687324524,0.33195722103118896
1783245484987993600,4.79399365234375,0.24552828073501587,-0.35946980118751526,0.3279030919075012
1783245484998005500,4.804005615234375,0.2908937633037567,-0.3394645154476166,0.3311617076396942
1783245485008017700,4.814017578125,0.30323803424835205,-0.2910090982913971,0.34391266107559204
1783245485018028800,4.82402880859375,0.28176072239875793,-0.22313204407691956,0.3610841929912567
1783245485028040700,4.834040771484375,0.23848594725131989,-0.13523121178150177,0.38455942273139954
1783245485038051600,4.844051513671875,0.1805504411458969,-0.04097743704915047,0.41492417454719543
1783245485048063700,4.854063720703125,0.12467572093009949,0.04265940189361572,0.45178550481796265
1783245485058075600,4.86407568359375,0.08795682340860367,0.1073492169380188,0.4840106666088104
1783245485068086500,4.87408642578125,0.07557232677936554,0.14837388694286346,0.5170583724975586
1783245485078098700,4.8840986328125,0.0847223699092865,0.18572783470153809,0.549967348575592
1783245485088110600,4.894110595703125,0.11579133570194244,0.2204573154449463,0.5679847002029419
1783245485098121700,4.904121826171875,0.16382792592048645,0.27359941601753235,0.5544527769088745
1783245485108134000,4.9141337890625,0.21337683498859406,0.3435308337211609,0.49469223618507385
1783245485118144800,4.924144775390625,0.2678457498550415,0.4075097143650055,0.39301300048828125
1783245485128156700,4.93415673828125,0.32094037532806396,0.4542601704597473,0.2636912167072296
1783245485138168800,4.9441689453125,0.37971752882003784,0.4889482259750366,0.1309417337179184
1783245485148179700,4.9541796875,0.44595301151275635,0.5209572911262512,0.010352211073040962
1783245485158191600,4.964191650390625,0.5187649726867676,0.5484321117401123,-0.07942700386047363
1783245485168203800,4.974203857421875,0.5886742472648621,0.580959677696228,-0.13458800315856934
1783245485178215000,4.98421484375,0.6525540351867676,0.6276059746742249,-0.16341274976730347
1783245485188226800,4.994226806640625,0.697498083114624,0.6911575198173523,-0.18098615109920502
1783245485198237700,5.00423779296875,0.7203236222267151,0.754807710647583,-0.20170673727989197
1783245485208249900,5.014249755859375,0.7300297617912292,0.8162891864776611,-0.2230815291404724
1783245485218261800,5.02426171875,0.7354894280433655,0.8674591183662415,-0.23842941224575043
1783245485228272600,5.034272705078125,0.7511091828346252,0.9080935716629028,-0.2368038147687912
1783245485238284800,5.044284912109375,0.7751447558403015,0.9408820271492004,-0.22058948874473572
1783245485248296700,5.054296630859375,0.8059951066970825,0.9914674162864685,-0.203552708029747
1783245485258307600,5.0643076171875,0.836401104927063,1.0820136070251465,-0.2049664407968521
1783245485268319500,5.074319580078125,0.8730161190032959,1.195388913154602,-0.2352132797241211
1783245485278331000,5.084330810546875,0.9164147973060608,1.2694289684295654,-0.27544739842414856
1783245485288342800,5.0943427734375,0.9719601273536682,1.31919527053833,-0.3151242434978485
1783245485298354700,5.104354736328125,1.0292067527770996,1.3041692972183228,-0.336414098739624
1783245485308365800,5.11436572265625,1.0906256437301636,1.203292727470398,-0.33254265785217285
1783245485318377700,5.124377685546875,1.1612651348114014,1.0621167421340942,-0.3116156756877899
1783245485328389600,5.1343896484375,1.239101529121399,0.9357737302780151,-0.3051828145980835
1783245485338400500,5.144400390625,1.31623113155365,0.8806771636009216,-0.3395371437072754
1783245485348412700,5.15441259765625,1.3853790760040283,0.9254688620567322,-0.43243780732154846
1783245485358423800,5.164423828125,1.4616869688034058,1.1083916425704956,-0.5926843881607056
1783245485368435700,5.174435791015625,1.5540187358856201,1.3729695081710815,-0.8145113587379456
1783245485378448000,5.18444775390625,1.666154146194458,1.5935004949569702,-1.0379725694656372
1783245485388458800,5.194458740234375,1.7839378118515015,1.6741801500320435,-1.180712342262268
1783245485398470700,5.204470703125,1.911200761795044,1.6037342548370361,-1.184270977973938
1783245485408482800,5.21448291015625,2.040323495864868,1.402613878250122,-1.0515835285186768
1783245485418493700,5.22449365234375,2.1401870250701904,1.130179524421692,-0.8184431195259094
1783245485428505600,5.234505615234375,2.19181752204895,0.852292001247406,-0.5449623465538025
1783245485438516700,5.244516845703125,2.1951181888580322,0.6425453424453735,-0.2954905033111572
1783245485448528600,5.254528564453125,2.15114688873291,0.5491421818733215,-0.10226856917142868
1783245485458540800,5.264540771484375,2.0795743465423584,0.5810161828994751,0.02775138057768345
1783245485468551700,5.2745517578125,1.9927632808685303,0.7027127742767334,0.10615590214729309
1783245485478563800,5.284563720703125,1.914271593093872,0.8869240283966064,0.1591295748949051
1783245485488575700,5.29457568359375,1.8355329036712646,1.0873570442199707,0.20301954448223114
1783245485498586600,5.304586669921875,1.748375654220581,1.2540174722671509,0.24434131383895874
1783245485508598800,5.314598876953125,1.6517071723937988,1.3605891466140747,0.28306129574775696
1783245485518609700,5.324609619140625,1.5508071184158325,1.4136542081832886,0.3121476471424103
1783245485528621600,5.33462158203125,1.45119047164917,1.4491595029830933,0.329130619764328
1783245485538633700,5.3446337890625,1.372711181640625,1.4714388847351074,0.3382578492164612
1783245485548644900,5.354644775390625,1.3235286474227905,1.4809855222702026,0.3487488329410553
1783245485558656800,5.36465673828125,1.3196089267730713,1.4863073825836182,0.3583938181400299
1783245485568668700,5.374668701171875,1.3577741384506226,1.5241645574569702,0.35206136107444763
1783245485578679800,5.3846796875,1.4273258447647095,1.591309905052185,0.33061671257019043
1783245485588691700,5.394691650390625,1.5064531564712524,1.66481614112854,0.28019455075263977
1783245485598702600,5.40470263671875,1.5981484651565552,1.7169084548950195,0.20589283108711243
1783245485608714800,5.41471484375,1.7055771350860596,1.7274303436279297,0.10604239255189896
1783245485618726700,5.4247265625,1.8239915370941162,1.6805753707885742,-0.010300345718860626
1783245485628737800,5.43473779296875,1.942724585533142,1.570538878440857,-0.133377805352211
1783245485638749700,5.444749755859375,2.0464727878570557,1.3884105682373047,-0.24267348647117615
1783245485648761900,5.454761962890625,2.116854429244995,1.1639089584350586,-0.32626453042030334
1783245485658772700,5.464772705078125,2.14274263381958,0.9794096350669861,-0.38970887660980225
1783245485668784600,5.47478466796875,2.1243820190429688,0.8622824549674988,-0.43639278411865234
1783245485678796800,5.484796875,2.074108123779297,0.8170502185821533,-0.46705448627471924
1783245485688807700,5.4948076171875,1.9956209659576416,0.8456323742866516,-0.49182990193367004
1783245485698819600,5.504819580078125,1.9189380407333374,0.9131709933280945,-0.48887524008750916
1783245485708830700,5.514830810546875,1.8538365364074707,0.9730087518692017,-0.4405665695667267
1783245485718842600,5.524842529296875,1.7910970449447632,1.0048861503601074,-0.3338789939880371
1783245485728854800,5.534854736328125,1.726351261138916,1.0208193063735962,-0.1907183825969696
1783245485738865700,5.54486572265625,1.65559983253479,1.0055657625198364,-0.03657596930861473
1783245485748878300,5.55487841796875,1.5724023580551147,0.9667606353759766,0.10673750936985016
1783245485758890200,5.56489013671875,1.4906970262527466,0.9083132743835449,0.2246951013803482
1783245485768901000,5.574901123046875,1.4133532047271729,0.8374654650688171,0.3106409013271332
1783245485778913300,5.584913330078125,1.3454623222351074,0.7800881862640381,0.36976900696754456
1783245485788924200,5.594924072265625,1.2731058597564697,0.7601416110992432,0.4057246148586273
1783245485798936000,5.60493603515625,1.200870394706726,0.7636492252349854,0.4375215172767639
1783245485808948200,5.6149482421875,1.138046145439148,0.7688394784927368,0.46575289964675903
1783245485818959400,5.62495947265625,1.0936484336853027,0.801500678062439,0.4876934885978699
1783245485828971300,5.63497119140625,1.068234920501709,0.8551764488220215,0.5081151723861694
1783245485838983200,5.644983154296875,1.0497503280639648,0.8998854756355286,0.5316260457038879
1783245485848994300,5.654994384765625,1.0437602996826172,0.9555268883705139,0.5502442121505737
1783245485859006200,5.665006103515625,1.049202799797058,0.9963081479072571,0.5602368116378784
1783245485869017000,5.67501708984375,1.0687466859817505,1.0080870389938354,0.558242678642273
1783245485879029200,5.685029296875,1.0925853252410889,0.9808526039123535,0.5402701497077942
1783245485889041200,5.695041259765625,1.1111561059951782,0.904154896736145,0.5209143161773682
1783245485899052000,5.705052001953125,1.1310431957244873,0.790938675403595,0.5132235884666443
1783245485909064200,5.715064208984375,1.1561120748519897,0.6650183200836182,0.5310172438621521
1783245485919076000,5.725076171875,1.1866776943206787,0.5576448440551758,0.5772837400436401
1783245485929087200,5.735087158203125,1.213039517402649,0.4945327639579773,0.6325646042823792
1783245485939099100,5.74509912109375,1.2284034490585327,0.4845682978630066,0.6829456090927124
1783245485949110300,5.7551103515625,1.2225905656814575,0.5197055339813232,0.7135048508644104
1783245485959122200,5.7651220703125,1.1941404342651367,0.5857334733009338,0.7230138778686523
1783245485969134000,5.775134033203125,1.158416509628296,0.6632833480834961,0.7155247926712036
1783245485979145200,5.785145263671875,1.1162002086639404,0.7345613241195679,0.7005422115325928
1783245485989157000,5.7951572265625,1.0655500888824463,0.7876506447792053,0.6869337558746338
1783245485999169000,5.8051689453125,1.018316626548767,0.8037633299827576,0.6836243867874146
1783245486009180200,5.81518017578125,0.9844649434089661,0.7859324216842651,0.6855418682098389
1783245486019192300,5.8251923828125,0.96663498878479,0.7692763805389404,0.6849921345710754
1783245486029203200,5.835203125,0.9612452387809753,0.754960298538208,0.6681226491928101
1783245486039215000,5.845215087890625,0.9468463063240051,0.7576029300689697,0.6306277513504028
1783245486049227300,5.855227294921875,0.9173475503921509,0.748088002204895,0.574284553527832
1783245486059238100,5.865238037109375,0.8755213618278503,0.7480694055557251,0.5092916488647461
1783245486069250000,5.87525,0.8345949649810791,0.7796949744224548,0.4372648596763611
1783245486079262200,5.88526220703125,0.8124648332595825,0.8285996913909912,0.3656884431838989
1783245486089273000,5.895273193359375,0.7919845581054688,0.86552494764328,0.30989333987236023
1783245486099285200,5.90528515625,0.7636258602142334,0.9244030117988586,0.2727840542793274
1783245486109296000,5.915296142578125,0.7354695796966553,0.9956724047660828,0.24559533596038818
1783245486119308300,5.925308349609375,0.7159926891326904,1.052456259727478,0.23118199408054352
1783245486129320200,5.9353203125,0.7125992774963379,1.0830078125,0.22684156894683838
1783245486139331000,5.9453310546875,0.7123996615409851,1.0682765245437622,0.23338179290294647
1783245486149343200,5.95534326171875,0.7142825126647949,1.0274502038955688,0.23267045617103577
1783245486159355100,5.965355224609375,0.7315580248832703,0.9866270422935486,0.1977204978466034
1783245486169366000,5.975365966796875,0.7545823454856873,0.9227761626243591,0.13931018114089966
1783245486179378200,5.985378173828125,0.7770298719406128,0.8268714547157288,0.08024891465902328
1783245486189389300,5.995389404296875,0.7992798089981079,0.7492858171463013,0.033636674284935
1783245486199401200,6.005401123046875,0.8188810348510742,0.7669039368629456,-0.02661619335412979
1783245486209413400,6.015413330078125,0.8163904547691345,0.9092764854431152,-0.11409943550825119
1783245486219424300,6.02542431640625,0.7852985262870789,1.1149029731750488,-0.23346342146396637
1783245486229436200,6.035436279296875,0.7303524613380432,1.3261239528656006,-0.37987789511680603
1783245486239448000,6.045447998046875,0.6672050356864929,1.5204291343688965,-0.5278061032295227
1783245486249459200,6.055459228515625,0.6134690642356873,1.6680177450180054,-0.6468856334686279
1783245486259471000,6.06547119140625,0.5819175243377686,1.7610374689102173,-0.6978667974472046
1783245486269482200,6.075482177734375,0.5824568271636963,1.7854413986206055,-0.6815294027328491
1783245486279494400,6.085494384765625,0.5877715945243835,1.7335410118103027,-0.6193290948867798
1783245486289506300,6.09550634765625,0.604251503944397,1.6297595500946045,-0.5276854634284973
1783245486299517200,6.10551708984375,0.6630470752716064,1.5013033151626587,-0.43665552139282227
1783245486309529000,6.115529052734375,0.7579962015151978,1.3935086727142334,-0.35794687271118164
1783245486319541200,6.125541259765625,0.8799513578414917,1.3183636665344238,-0.3041025996208191
1783245486329552100,6.13555224609375,1.026394009590149,1.2515270709991455,-0.25216537714004517
1783245486339564000,6.14556396484375,1.177947998046875,1.178138256072998,-0.20482313632965088
1783245486349576200,6.155576171875,1.3134642839431763,1.0763235092163086,-0.16914528608322144
1783245486359587000,6.165587158203125,1.4104410409927368,0.9270198941230774,-0.15518461167812347
1783245486369599000,6.175598876953125,1.453091025352478,0.7494198083877563,-0.17202244699001312
1783245486379610000,6.185610107421875,1.438976764678955,0.5955443978309631,-0.23105308413505554
1783245486389622300,6.195622314453125,1.3854293823242188,0.5115871429443359,-0.33466628193855286
1783245486399634200,6.20563427734375,1.3295016288757324,0.4725378751754761,-0.4642018675804138
1783245486409645000,6.21564501953125,1.2938472032546997,0.45973631739616394,-0.5958845615386963
1783245486419657200,6.2256572265625,1.2832621335983276,0.44446492195129395,-0.6930121779441833
1783245486429669000,6.235669189453125,1.2800203561782837,0.44288861751556396,-0.7283928394317627
1783245486439680000,6.245679931640625,1.2843201160430908,0.4578063488006592,-0.7081764340400696
1783245486449692200,6.255692138671875,1.3101767301559448,0.4725503921508789,-0.6643951535224915
1783245486459703300,6.265703369140625,1.3437081575393677,0.4969293773174286,-0.6163347363471985
1783245486469715200,6.275715087890625,1.3766485452651978,0.5422974228858948,-0.5845823884010315
1783245486479727400,6.285727294921875,1.4033056497573853,0.6051290035247803,-0.5876330733299255
1783245486489738200,6.29573828125,1.4150166511535645,0.6659913063049316,-0.6049151420593262
1783245486499750100,6.305750244140625,1.4213474988937378,0.6949136853218079,-0.6205916404724121
1783245486509762300,6.31576220703125,1.417892575263977,0.6948050260543823,-0.6137579679489136
1783245486519773200,6.325773193359375,1.4215656518936157,0.6694953441619873,-0.5866227746009827
1783245486529785000,6.33578515625,1.428740382194519,0.6118221879005432,-0.5470327734947205
1783245486539796200,6.345796142578125,1.426900029182434,0.5277215838432312,-0.5028563737869263
1783245486549808400,6.355808349609375,1.3964604139328003,0.4416210353374481,-0.44689270853996277
1783245486559820300,6.3658203125,1.3385646343231201,0.39490699768066406,-0.383976548910141
1783245486569831200,6.3758310546875,1.2563650608062744,0.38103246688842773,-0.33927246928215027
1783245486579843300,6.38584326171875,1.1569339036941528,0.38561713695526123,-0.29892697930336
1783245486589855200,6.395855224609375,1.0621041059494019,0.384772926568985,-0.2629053294658661
1783245486599866000,6.4058662109375,0.9865955114364624,0.38678544759750366,-0.23622433841228485
1783245486609878000,6.4158779296875,0.9386516809463501,0.4370696544647217,-0.21515554189682007
1783245486619889200,6.42588916015625,0.8980852365493774,0.536895751953125,-0.18578940629959106
1783245486629901000,6.435901123046875,0.8696299195289612,0.6525285840034485,-0.15654496848583221
1783245486639913000,6.445912841796875,0.856991708278656,0.7610477209091187,-0.12434201687574387
1783245486649924400,6.45592431640625,0.8625993132591248,0.8040769696235657,-0.08374665677547455
1783245486659936300,6.465936279296875,0.8673839569091797,0.738575279712677,-0.030945422127842903
1783245486669948200,6.4759482421875,0.8820249438285828,0.5826959609985352,0.031559769064188004
1783245486679959000,6.485958984375,0.9092209339141846,0.39512762427330017,0.08826854079961777
1783245486689971200,6.49597119140625,0.9396621584892273,0.21479405462741852,0.11790180206298828
1783245486699983000,6.505983154296875,0.9511746764183044,0.06892497837543488,0.11194052547216415
1783245486709994000,6.515993896484375,0.9356092810630798,-0.05377670377492905,0.07275424152612686
1783245486720006100,6.526006103515625,0.8856165409088135,-0.13067670166492462,0.00644370261579752
1783245486730017300,6.536017333984375,0.8053078651428223,-0.11214376240968704,-0.08775176852941513
1783245486740029200,6.546029296875,0.7012384533882141,-0.013228340074419975,-0.17940808832645416
1783245486750041000,6.556041015625,0.6022801995277405,0.12925317883491516,-0.24454952776432037
1783245486760052000,6.566052001953125,0.52842116355896,0.3047889471054077,-0.262651264667511
1783245486770064100,6.576064208984375,0.48603877425193787,0.4831176996231079,-0.2373184859752655
1783245486780076000,6.586075927734375,0.4793664813041687,0.6091512441635132,-0.1767154186964035
1783245486790087000,6.5960869140625,0.49007102847099304,0.6424386501312256,-0.09162580966949463
1783245486800099000,6.60609912109375,0.5049800276756287,0.6198982000350952,0.009633217006921768
1783245486810110200,6.616110107421875,0.5084823369979858,0.5434223413467407,0.11102721095085144
1783245486820122000,6.6261220703125,0.4943951964378357,0.4429170787334442,0.18998266756534576
1783245486830134300,6.63613427734375,0.4778180718421936,0.36225420236587524,0.22933326661586761
1783245486840145200,6.646145263671875,0.4469045400619507,0.32810863852500916,0.22467191517353058
1783245486850157000,6.656156982421875,0.40345239639282227,0.33447280526161194,0.18264751136302948
1783245486860169000,6.6661689453125,0.35744088888168335,0.3697029650211334,0.12458635121583939
1783245486870180000,6.67618017578125,0.30209213495254517,0.4170800745487213,0.06148701161146164
1783245486880192000,6.68619189453125,0.24584734439849854,0.4493214786052704,0.011373395100235939
1783245486890204000,6.696203857421875,0.2065044790506363,0.4688799977302551,-0.019283851608633995
1783245486900215000,6.706215087890625,0.1890014410018921,0.48069846630096436,-0.03131922334432602
1783245486910227000,6.71622705078125,0.1846913844347,0.48829808831214905,-0.02325250580906868
1783245486920238000,6.726238037109375,0.19528116285800934,0.49029242992401123,-0.0033038794063031673
1783245486930250200,6.736250244140625,0.19495199620723724,0.49891918897628784,0.03505922481417656
1783245486940262100,6.74626220703125,0.18443921208381653,0.5112246870994568,0.07821622490882874
1783245486950273000,6.75627294921875,0.16352194547653198,0.5265807509422302,0.12684473395347595
1783245486960285000,6.766284912109375,0.1336643248796463,0.5286832451820374,0.16635946929454803
1783245486970297000,6.776297119140625,0.08983029425144196,0.5172250270843506,0.1972803771495819
1783245486980308000,6.786307861328125,0.051357753574848175,0.5108433365821838,0.21098852157592773
1783245486990319900,6.79631982421875,0.043473996222019196,0.533092737197876,0.1953973025083542
1783245487000332000,6.80633203125,0.06108226627111435,0.5735594034194946,0.16187870502471924
1783245487010343200,6.81634326171875,0.09478083997964859,0.6320953965187073,0.12839984893798828
1783245487020355000,6.82635498046875,0.12700647115707397,0.6855629086494446,0.11115235090255737
1783245487030366000,6.836365966796875,0.13329099118709564,0.7291055917739868,0.12454912066459656
1783245487040378000,6.846378173828125,0.1306643933057785,0.7518013715744019,0.15451817214488983
1783245487050390000,6.85639013671875,0.11809827387332916,0.7432336807250977,0.1876652091741562
1783245487060401000,6.86640087890625,0.1080610603094101,0.7473834753036499,0.2045578807592392
1783245487070413000,6.8764130859375,0.10325458645820618,0.7581850290298462,0.18640576303005219
1783245487080425000,6.886425048828125,0.1172037422657013,0.7790541052818298,0.1276923269033432
1783245487090436000,6.89643603515625,0.15413512289524078,0.8044731616973877,0.03478849306702614
1783245487100448300,6.9064482421875,0.20882591605186462,0.8411157131195068,-0.06601197272539139
1783245487110459100,6.916459228515625,0.275779664516449,0.884207010269165,-0.14264842867851257
1783245487120471000,6.926470947265625,0.3410228490829468,0.9121275544166565,-0.17260846495628357
1783245487130483200,6.936483154296875,0.39585867524147034,0.8811608552932739,-0.14426124095916748
1783245487140494000,6.946494140625,0.43537113070487976,0.7705932855606079,-0.07001544535160065
1783245487150506000,6.956506103515625,0.4592170715332031,0.6004718542098999,0.02847783826291561
1783245487160518000,6.966517822265625,0.4672221541404724,0.4318665564060211,0.11048197746276855
1783245487170529000,6.976529052734375,0.45821961760520935,0.28783613443374634,0.16866432130336761
1783245487180541000,6.986541015625,0.4295397102832794,0.18701550364494324,0.20376338064670563
1783245487190552000,6.996552001953125,0.390239417552948,0.13020361959934235,0.23073402047157288
1783245487200564200,7.006564208984375,0.34647998213768005,0.14454621076583862,0.25882652401924133
1783245487210576100,7.016576171875,0.31748244166374207,0.2198857069015503,0.2824937701225281
1783245487220587000,7.0265869140625,0.30315226316452026,0.3318726718425751,0.2913205325603485
1783245487230599200,7.03659912109375,0.30189844965934753,0.44750261306762695,0.27196332812309265
1783245487240611000,7.046611083984375,0.294189453125,0.5289334058761597,0.22079168260097504
1783245487250622000,7.0566220703125,0.28651687502861023,0.5495728850364685,0.1364661455154419
1783245487260633900,7.0666337890625,0.2873847782611847,0.5190408825874329,0.028562821447849274
1783245487270646000,7.07664599609375,0.2988869845867157,0.4640945792198181,-0.08221323043107986
1783245487280657200,7.0866572265625,0.3281589448451996,0.38357654213905334,-0.1757846176624298
1783245487290669000,7.0966689453125,0.3784378170967102,0.27730175852775574,-0.24326752126216888
1783245487300680200,7.10668017578125,0.43408843874931335,0.16310298442840576,-0.27471762895584106
1783245487310692000,7.116692138671875,0.48514389991760254,0.03726703301072121,-0.278306245803833
1783245487320704000,7.1267041015625,0.5296266674995422,-0.07351874560117722,-0.26866471767425537
1783245487330715000,7.13671484375,0.5611898899078369,-0.1405947059392929,-0.2508321702480316
1783245487340727000,7.14672705078125,0.5729247331619263,-0.18240229785442352,-0.2311994433403015
1783245487350739000,7.156739013671875,0.5697680711746216,-0.20333899557590485,-0.22208291292190552
1783245487360750000,7.16675,0.5560656785964966,-0.20887485146522522,-0.22907298803329468
1783245487370762000,7.176761962890625,0.5264156460762024,-0.22937053442001343,-0.24407245218753815
1783245487380774100,7.186774169921875,0.48183760046958923,-0.2661086916923523,-0.25434213876724243
1783245487390785000,7.196784912109375,0.4211241602897644,-0.29648682475090027,-0.24972902238368988
1783245487400797200,7.206797119140625,0.3560328781604767,-0.3162889778614044,-0.2346263974905014
1783245487410808000,7.21680810546875,0.2938579022884369,-0.32518765330314636,-0.2277381271123886
1783245487420820000,7.226820068359375,0.233583465218544,-0.3420087993144989,-0.2298206239938736
1783245487430832000,7.23683203125,0.17947575449943542,-0.39579451084136963,-0.23115485906600952
1783245487440843000,7.246843017578125,0.1574353724718094,-0.4849759042263031,-0.23230567574501038
1783245487450855000,7.25685498046875,0.16928698122501373,-0.5453420281410217,-0.24653680622577667
1783245487460867000,7.2668671875,0.1937161684036255,-0.572150468826294,-0.26885876059532166
1783245487470878200,7.276878173828125,0.20675553381443024,-0.5976192951202393,-0.2851048409938812
1783245487480890000,7.28689013671875,0.20456725358963013,-0.6160166263580322,-0.2922738790512085
1783245487490901000,7.29690087890625,0.19672319293022156,-0.5914981961250305,-0.29750698804855347
1783245487500913200,7.3069130859375,0.16599348187446594,-0.568311333656311,-0.1906713843345642
1783245487510925000,7.316925048828125,0.1764594316482544,-0.36204954981803894,-0.06397256255149841
1783245487520936000,7.32693603515625,0.18007344007492065,-0.02774491347372532,-0.06563262641429901
1783245487530948000,7.336947998046875,0.12833328545093536,0.2066444307565689,-0.17678311467170715
1783245487540960000,7.3469599609375,0.020067410543560982,0.31658822298049927,-0.38960328698158264
1783245487550971100,7.35697119140625,-0.0597429983317852,0.34602227807044983,-0.5758682489395142
1783245487560983000,7.366983154296875,-0.09040036797523499,0.3385366201400757,-0.6304262280464172
1783245487570995200,7.3769951171875,-0.06512697041034698,0.25780075788497925,-0.5438492298126221
1783245487581006000,7.387006103515625,0.016120677813887596,0.1335587352514267,-0.39752116799354553
