time,seconds_elapsed,z,y,x
1783245480252497400,0.058497314453125,-0.3249135066449642,-0.5388458879217505,-0.6447046287748962
1783245480262508500,0.068508544921875,-0.4906429980278015,-0.45239013200104233,-0.47325624828860163
1783245480272520400,0.0785205078125,-0.6346171691983938,-0.3646256315693259,-0.3852520938821137
1783245480282531600,0.088531494140625,-0.7471464007914066,-0.28827479781657456,-0.40324915753938256
1783245480292543700,0.098543701171875,-0.7847206369042397,-0.23863836798816918,-0.4594955800920725
1783245480302555600,0.1085556640625,-0.8435130176126956,-0.25797961279600856,-0.4835939562991261
1783245480312566500,0.11856640625,-0.7985270439386367,-0.344125279854238,-0.45629466515891254
1783245480322578400,0.128578369140625,-0.6336737508684397,-0.3963353595629334,-0.48124096343219275
1783245480332590600,0.138590576171875,-0.4711795881450176,-0.44017567033320665,-0.49834407392442226
1783245480342601500,0.1486015625,-0.426916668048501,-0.4543929962560534,-0.4898625882398337
1783245480352613400,0.15861328125,-0.37077217150032515,-0.4640606960505247,-0.47547575096897776
1783245480362624800,0.168624755859375,-0.218828628885746,-0.4374824857264757,-0.4580304029103368
1783245480372636700,0.17863671875,-0.00367255103290081,-0.35266923631578684,-0.5078765299666672
1783245480382648600,0.188648681640625,0.10717676464915275,-0.36804070070981976,-0.6434552132356911
1783245480392659700,0.19865966796875,0.12360592140257358,-0.4786889408618211,-0.8819684935394674
1783245480402671600,0.208671630859375,0.1685959867298603,-0.5567462862715125,-1.0958074974443763
1783245480412682500,0.2186826171875,0.2551145787537098,-0.465410357093811,-1.1625250451289117
1783245480422694400,0.2286943359375,0.31318507492840286,-0.3830652513623237,-1.1226505692496895
1783245480432706600,0.23870654296875,0.22403613440096376,-0.46325464036464686,-1.006581253897026
1783245480442717400,0.248717529296875,0.20003741917610168,-0.5783335564404726,-0.8631293530348688
1783245480452729300,0.258729248046875,0.28583178857862945,-0.579226121366024,-0.6898677125815301
1783245480462741500,0.268741455078125,0.44055122564733024,-0.5469254417419434,-0.5438121320270002
1783245480472752600,0.278752685546875,0.589731733289361,-0.6045400108426809,-0.5101072116281837
1783245480482764500,0.2887646484375,0.6944079132944345,-0.7704676551461219,-0.6041192281473428
1783245480492775400,0.298775390625,0.7889239338129759,-0.8809609969973564,-0.7274154260136186
1783245480502787600,0.30878759765625,0.8898486523300408,-0.8645791865170002,-0.7750002570744603
1783245480512799500,0.318799560546875,0.9197522076845168,-0.7750532293707132,-0.728711018782109
1783245480522810400,0.328810302734375,0.9450298568040132,-0.6655220105499029,-0.7080169711258262
1783245480532822500,0.338822509765625,0.963572060188651,-0.569101033192873,-0.7442933494478464
1783245480542833700,0.348833740234375,0.9713841952443122,-0.5306657963365317,-0.7363420251172036
1783245480552845600,0.358845458984375,0.9939607687115669,-0.5135650239318609,-0.7259210958026349
1783245480562857700,0.368857666015625,0.9922375981807708,-0.5403390490889549,-0.7088841824144124
1783245480572868600,0.37886865234375,0.9436737660199404,-0.5940817451924085,-0.6482710890848189
1783245480582880500,0.388880615234375,0.7762439004600048,-0.6131324826210737,-0.6130867437832057
1783245480592892700,0.398892578125,0.6579279021590948,-0.6062070672720671,-0.6124201696332544
1783245480602903600,0.408903564453125,0.5453653528183698,-0.5848556516855955,-0.6708269850902259
1783245480612915500,0.41891552734375,0.4427940361380577,-0.6093804366111755,-0.7773346183061599
1783245480622926600,0.428926513671875,0.3966781816512346,-0.5877750462636351,-0.8437947571635246
1783245480632938500,0.4389384765625,0.41752690841257567,-0.5074205298274755,-0.862553745104
1783245480642950700,0.44895068359375,0.4647276355266571,-0.4190694616794586,-0.8592506849706173
1783245480652961500,0.45896142578125,0.4818991350799799,-0.4230395343542099,-0.8455834672112017
1783245480662973700,0.4689736328125,0.5224392352610826,-0.5196016737475991,-0.7937909553274511
1783245480672985600,0.478985595703125,0.6736386815100908,-0.5775400679752231,-0.7617395012240856
1783245480682996500,0.48899658203125,0.8078595204293727,-0.5790753147184848,-0.7405442260473967
1783245480693008600,0.499008544921875,0.9267711465358733,-0.5527493255898356,-0.7659632563989609
1783245480703019500,0.50901953125,0.9667471830934286,-0.609637041720748,-0.8510540806420147
1783245480713031400,0.519031494140625,1.033067621219158,-0.6884001973122358,-0.9669001086328178
1783245480723043300,0.529043212890625,1.0854022040903568,-0.7275801150560378,-1.0206449236281216
1783245480733054700,0.5390546875,1.0526181248635054,-0.7644467874214053,-1.0779078297469764
1783245480743066600,0.549066650390625,0.9421054937899113,-0.8014207195535301,-1.1240957265567033
1783245480753077500,0.559077392578125,0.7768301759153604,-0.8141676806628704,-1.0909632722835987
1783245480763089400,0.56908935546875,0.6043418579220772,-0.7580456882074474,-1.0605098279614
1783245480773101600,0.5791015625,0.4531465033262968,-0.7135667872726917,-0.9840128637362271
1783245480783112400,0.589112548828125,0.3135182524055242,-0.6807333159461617,-0.8878205805685371
1783245480793124400,0.599124267578125,0.19398644857406616,-0.6874772372484207,-0.8063094414431601
1783245480803136300,0.60913623046875,0.10554536405503749,-0.7065355734616517,-0.7692293455228209
1783245480813147600,0.619147705078125,0.03884264861345291,-0.7424670108035206,-0.7673265075761825
1783245480823159600,0.62915966796875,-0.031465397843718525,-0.7664300701931118,-0.7189711305342614
1783245480833170400,0.63917041015625,-0.10737725565731525,-0.8413757133230566,-0.6915871567852795
1783245480843182600,0.6491826171875,-0.236065010368824,-0.8732526145771146,-0.6056483374107628
1783245480853194500,0.659194580078125,-0.44632221026420593,-0.8592553611457348,-0.5477832276150584
1783245480863205400,0.669205322265625,-0.7027449490070342,-0.8666016322553157,-0.48768009310159827
1783245480873217500,0.679217529296875,-0.9570160626739262,-0.8071163008466362,-0.4205963789857924
1783245480883229400,0.6892294921875,-1.204724749085307,-0.7174518120124935,-0.3720406935987994
1783245480893240600,0.699240478515625,-1.436660696825385,-0.6658809069901704,-0.3042900765394792
1783245480903252500,0.70925244140625,-1.5575228724777697,-0.6002510814771056,-0.21771431096829472
1783245480913263600,0.719263671875,-1.6443056683957575,-0.5080193725034594,-0.16007004084903745
1783245480923275500,0.729275634765625,-1.6437217310279606,-0.3855798645317554,-0.119600046762079
1783245480933287400,0.739287353515625,-1.562213076120615,-0.3176163353741169,-0.08162745898142457
1783245480943298600,0.749298583984375,-1.411578278017044,-0.22427432707101105,0.008034691765159368
1783245480953310500,0.759310546875,-1.2571002484887837,-0.11561346134394407,0.2300439965136349
1783245480963321300,0.7693212890625,-1.09362058185935,0.025362989315390584,0.47931963998079297
1783245480973333200,0.779333251953125,-0.9699942021906375,0.17111352250874043,0.7317573276754469
1783245480983345400,0.789345458984375,-0.8554337570309638,0.2708960852533579,0.9038006783802062
1783245480993356500,0.7993564453125,-0.7514379605054855,0.38154315636157987,0.9951156378351151
1783245481003368400,0.809368408203125,-0.6227507903158664,0.5246320691302419,0.9798683112774044
1783245481013380600,0.819380615234375,-0.5007137256652117,0.6579895692184567,0.913387129632011
1783245481023391500,0.8293916015625,-0.3248457021057606,0.8036112153351307,0.818172167063877
1783245481033403400,0.8394033203125,-0.1127688855677843,0.8959232960686087,0.7335379274819046
1783245481043414300,0.849414306640625,-0.01245499242544174,0.8870204431667923,0.6146827808029949
1783245481053426400,0.859426513671875,0.06432955656945705,0.8274462644308805,0.42872452118806537
1783245481063438300,0.869438232421875,0.181265498688817,0.7923588766977191,0.19677257216125726
1783245481073449500,0.879449462890625,0.18585224195718764,0.7754688244342803,-0.005725684170424938
1783245481083461600,0.889461669921875,0.14442834467887877,0.7540390829145908,-0.22742424246929585
1783245481093472500,0.899472412109375,0.10500117417573929,0.7274643797218799,-0.4631130399368703
1783245481103484400,0.909484375,0.07258066756427288,0.7020540441334248,-0.6682148298304528
1783245481113496600,0.91949658203125,0.010758709901571272,0.7167512625277042,-0.7705446659050882
1783245481123507500,0.929507568359375,-0.052207157099246976,0.7259159812361001,-0.7756105709925294
1783245481133519400,0.939519287109375,-0.08546294549107551,0.719306792229414,-0.6959034856144338
1783245481143531500,0.949531494140625,-0.013635142120718955,0.6597936960309744,-0.5775858798783272
1783245481153542400,0.95954248046875,0.022723872983455656,0.5470008450657129,-0.4940129128523171
1783245481163554300,0.96955419921875,-0.06085574297904968,0.43669513474106786,-0.3736136054713279
1783245481173565400,0.9795654296875,-0.13585866925418377,0.35641689841151236,-0.2510784551054239
1783245481183577600,0.98957763671875,-0.13385960439145564,0.3931815717071295,-0.12579517507515847
1783245481193589500,0.999589599609375,-0.13327040632665157,0.459373415017128,-0.04379712921567261
1783245481203600400,1.009600341796875,-0.08616846341192722,0.5251496632635593,-0.07764138501994311
1783245481213612500,1.019612548828125,-0.026330957564711568,0.5356558597087859,-0.21110073804743587
1783245481223624400,1.02962451171875,0.06870821004509925,0.5278957471013069,-0.38097982339039443
1783245481233635300,1.03963525390625,0.21034896983206272,0.5390291355341672,-0.5493985538572073
1783245481243647500,1.0496474609375,0.3582482054919004,0.5535515818834305,-0.7069660007681697
1783245481253658600,1.05965869140625,0.39205402898192404,0.5378817190647125,-0.8183341526925564
1783245481263670500,1.06967041015625,0.43994624549150463,0.46979602483212946,-0.8297648435715586
1783245481273682400,1.079682373046875,0.5567535927951336,0.4384007696151733,-0.7477957315456122
1783245481283693600,1.089693603515625,0.6480220096945762,0.4185182575374841,-0.5978034691292792
1783245481293705500,1.09970556640625,0.6066296765983105,0.3430950600236654,-0.4647318733103573
1783245481303716400,1.10971630859375,0.5548831227481364,0.23425708416402338,-0.40283750799857077
1783245481313728500,1.119728515625,0.48221886855363844,0.18983926576673985,-0.321375980168581
1783245481323740400,1.129740478515625,0.4262725249260664,0.21958909186422823,-0.1991168702650815
1783245481333751600,1.13975146484375,0.43295185655951496,0.18654490039646623,-0.19064327562600372
1783245481343763500,1.149763427734375,0.4716407759159803,0.08434475511610508,-0.29097521588169034
1783245481353775600,1.159775634765625,0.46443654362559317,0.030030396604537962,-0.4039426196962595
1783245481363786500,1.169786376953125,0.4968389300584793,0.040347792479395864,-0.49654513474367556
1783245481373798400,1.17979833984375,0.5494470691740513,0.09898176775574684,-0.5923984682805836
1783245481383809500,1.1898095703125,0.5816267527669667,0.1245849955677986,-0.6504068590044975
1783245481393821400,1.199821533203125,0.5825649103999138,0.09732698628604411,-0.7156514115270227
1783245481403833300,1.209833251953125,0.6026625265330076,0.07519932563006877,-0.7503658012293278
1783245481413844200,1.21984423828125,0.5937497367590665,0.03037467999756336,-0.7491433467622846
1783245481423856400,1.2298564453125,0.5354512770473957,-0.052397126713395116,-0.6936025882609188
1783245481433868300,1.239868408203125,0.5310796378344297,-0.1209489771530032,-0.585777004314214
1783245481443879400,1.24987939453125,0.4355792824536562,-0.15775427471995354,-0.4600029450923204
1783245481453891600,1.2598916015625,0.3069453037559986,-0.16339754130393266,-0.28003903052136303
1783245481463902500,1.26990234375,0.23825346032381056,-0.18586685500442982,-0.10915566350668668
1783245481473914400,1.279914306640625,0.20493571261167526,-0.21098171477764843,-0.00535663166232407
1783245481483926500,1.289926513671875,0.1961667152225971,-0.20786475180089473,0.037505993182212115
1783245481493937400,1.2999375,0.19612170703709125,-0.20072598596215246,0.04674092758260667
1783245481503949300,1.30994921875,0.20115385598540306,-0.1855313394397497,0.017613836493343114
1783245481513960400,1.31996044921875,0.2537549808382988,-0.20211860936433076,0.040868966809287664
1783245481523972600,1.32997265625,0.26411855394244194,-0.245563491076231,0.1082106377415359
1783245481533984500,1.339984619140625,0.2599292855590582,-0.30801439429223537,0.1644354329843074
1783245481543995400,1.349995361328125,0.25641981613337994,-0.3433578026130795,0.24173085411079226
1783245481554007600,1.360007568359375,0.22055063037276268,-0.3359858125403523,0.28633323529474436
1783245481564019500,1.37001953125,0.1480132174283266,-0.36326778721958397,0.273825343638286
1783245481574030300,1.3800302734375,0.1593371599972248,-0.4445020090997219,0.18157288413755596
1783245481584042500,1.39004248046875,0.19119360298514365,-0.4912582073166966,0.06393314113039524
1783245481594053600,1.4000537109375,0.2137555634051561,-0.5124839506968856,-0.06233648305609822
1783245481604065500,1.4100654296875,0.2922621138870716,-0.49933250043988225,-0.1598867567040026
1783245481614077700,1.42007763671875,0.43304888719320295,-0.4773711362615227,-0.2137958954155445
1783245481624088600,1.430088623046875,0.5107546426862478,-0.5107926366090775,-0.30530181086529046
1783245481634100500,1.4401005859375,0.5620972919106483,-0.622197540347278,-0.3922609862634912
1783245481644111400,1.450111328125,0.6108148533284664,-0.6899187851816415,-0.41948279172070324
1783245481654123500,1.46012353515625,0.6157084705889224,-0.7339122406870127,-0.433441210979037
1783245481664135400,1.470135498046875,0.49697453913688655,-0.825240863341093,-0.48138252732735126
1783245481674146300,1.480146240234375,0.25028818151056764,-0.9326213338688015,-0.576917259901762
1783245481684158500,1.490158447265625,-0.14027239404320715,-0.977315338858962,-0.5995744243245571
1783245481694170400,1.50017041015625,-0.6010264497637748,-0.9282733677923679,-0.5108674554109573
1783245481704181500,1.510181396484375,-1.0000625927180051,-0.8057073108315468,-0.39515879006423055
1783245481714193700,1.520193603515625,-1.3550900825977326,-0.753221921312809,-0.3267092674879357
1783245481724204500,1.53020458984375,-1.6341472624748945,-0.7332917707011103,-0.3068993822550401
1783245481734216400,1.540216552734375,-1.6970985164284704,-0.7001297980725765,-0.33857002034727485
1783245481744228000,1.55022802734375,-1.6160376052886247,-0.6273907250761985,-0.39398886950202283
1783245481754239200,1.5602392578125,-1.4500865801095961,-0.48440030424594877,-0.5937370234079659
1783245481764251100,1.570251220703125,-1.228971886113286,-0.4179784515723586,-0.8484574882775545
1783245481774263000,1.580262939453125,-1.008511272111535,-0.4697384494259953,-1.1018393249545246
1783245481784274200,1.590274169921875,-0.8086381035864353,-0.5725716319128871,-1.348454443975538
1783245481794286300,1.600286376953125,-0.6923989115595817,-0.5695093217328191,-1.451914380058646
1783245481804297200,1.610297119140625,-0.7619143463343382,-0.40908348971605296,-1.3553984178945422
1783245481814309000,1.62030908203125,-0.9644669632017612,-0.044826691459119314,-1.1213669591799378
1783245481824321300,1.6303212890625,-1.1871534365594387,0.3602759119272232,-0.8907479392573237
1783245481834332200,1.640332275390625,-1.3699480445116758,0.6958268401816486,-0.7676988480199128
1783245481844344000,1.650343994140625,-1.3225263681232928,0.9831354233145714,-0.6096958957685157
1783245481854355200,1.660355224609375,-1.0736977377712726,1.233019115677476,-0.4842033569017425
1783245481864367400,1.670367431640625,-0.6524439177900553,1.385818982860446,-0.46533298100866377
1783245481874379300,1.680379150390625,-0.19266133745014666,1.3222639177948237,-0.581041134898737
1783245481884390100,1.69039013671875,0.2120364845275879,1.1443903996318578,-0.7487202990446239
1783245481894402300,1.70040234375,0.6360445716530084,1.0462672945320606,-0.8385399784404783
1783245481904414200,1.710414306640625,0.9621253685116767,1.084250695967674,-0.8415107378795742
1783245481914425000,1.720425048828125,1.1966647767484186,1.1104214945346116,-0.8536775610134005
1783245481924437200,1.730437255859375,1.3596879317820072,1.0868594171613455,-0.8722183030933142
1783245481934448000,1.7404482421875,1.443175193285942,1.0294248808026314,-0.8678573314048349
1783245481944460000,1.7504599609375,1.4787170467883348,0.9221107535094022,-0.8751770798336714
1783245481954472200,1.76047216796875,1.4213257650494575,0.8455448157012462,-0.8260930231910198
1783245481964483300,1.7704833984375,1.29515320802927,0.8300538165807724,-0.7735626254867762
1783245481974495200,1.7804951171875,1.1282131718128918,0.8272124556750059,-0.7593159273389727
1783245481984507400,1.79050732421875,0.8560977738976479,0.7694885809808969,-0.8440956398062407
1783245481994518300,1.800518310546875,0.5634498755633831,0.600630728444457,-1.0393465553581713
1783245482004530200,1.8105302734375,0.2589081258177757,0.46783612293601035,-1.2320260129868983
1783245482014541000,1.820541015625,-0.07399228792786598,0.3827490250200033,-1.404064249125123
1783245482024553200,1.83055322265625,-0.3815174373984337,0.3963479267835617,-1.4760820221096276
1783245482034565000,1.840565185546875,-0.6391185722708702,0.45898938413560386,-1.4525669987484813
1783245482044576300,1.850576171875,-0.9805956757038831,0.4677981290131807,-1.327877812153846
1783245482054588400,1.86058837890625,-1.2684639385461807,0.45542496965229506,-1.0155104833491146
1783245482064599300,1.870599365234375,-1.4910866990178822,0.5247182861089706,-0.6049713149320334
1783245482074611200,1.880611083984375,-1.6858178284794092,0.6624450873225927,-0.24470362284388392
1783245482084623000,1.890623046875,-1.8389923741936682,0.7830185091614723,-0.07256283964663744
1783245482094634200,1.90063427734375,-1.8914339245706795,0.9156354200154543,-0.05269936106298118
1783245482104646100,1.910646240234375,-1.8530472030311822,1.0798942543238401,-0.15914496189337224
1783245482114658000,1.920657958984375,-1.6818536010235547,1.1378501842081545,-0.34672914220970125
1783245482124669400,1.93066943359375,-1.2550398088276387,1.1405132659375667,-0.6570565261520445
1783245482134681300,1.940681396484375,-0.739683809825778,1.108044828531146,-0.9418693469464778
1783245482144692200,1.950692138671875,-0.2780138083040714,1.0115712442040443,-1.180342076044157
1783245482154704400,1.960704345703125,0.11985913608968257,0.8452706749349832,-1.409707807970047
1783245482164716300,1.97071630859375,0.46589258765280245,0.7066331886172295,-1.5116779438868164
1783245482174727200,1.98072705078125,0.7865034286677837,0.6539151593863963,-1.4466317634806036
1783245482184739000,1.990739013671875,1.0981108790159224,0.6739484781116247,-1.2902218891069293
1783245482194751200,2.000751220703125,1.3354852184176444,0.6545838524281978,-1.0932543788954614
1783245482204762000,2.01076220703125,1.4698293914556502,0.5292711271077394,-0.9703206576660275
1783245482214774000,2.02077392578125,1.6021721615433693,0.4084691572099924,-0.8699361104402691
1783245482224785400,2.030785400390625,1.7018892578363418,0.3286877644866705,-0.7691741812694818
1783245482234797300,2.04079736328125,1.7663561770498752,0.23421499858796596,-0.7139269258219748
1783245482244809200,2.050809326171875,1.7337702507436275,0.016952303844690323,-0.6920053821973502
1783245482254820000,2.060820068359375,1.522107860225439,-0.2523556354343891,-0.7248356386534869
1783245482264832300,2.070832275390625,1.1216828932613134,-0.42620238229930396,-0.6945313204783946
1783245482274843100,2.080843017578125,0.6344792220324278,-0.449835771343112,-0.5748228083731606
1783245482284855000,2.09085498046875,0.23425065442323684,-0.3730588211327791,-0.4681601672586053
1783245482294867200,2.1008671875,-0.17203063735365867,-0.3321241686761379,-0.4461845188265666
1783245482304878300,2.11087841796875,-0.5439923108994961,-0.3174672822922468,-0.47950701577905563
1783245482314890200,2.12089013671875,-0.8513841893792152,-0.3525184296682477,-0.5455100219860672
1783245482324902400,2.13090234375,-1.015559437057376,-0.39613165368437764,-0.6084981373513118
1783245482334913300,2.140913330078125,-1.1280337235927582,-0.4493988412305712,-0.6768341165505349
1783245482344925200,2.15092529296875,-1.284164781025052,-0.6049217036366462,-0.7184861234962939
1783245482354936000,2.16093603515625,-1.4384505028516053,-0.7601777318000793,-0.7197447452552617
1783245482364948200,2.1709482421875,-1.628116750138998,-0.8015650964602827,-0.6255419554043561
1783245482374960000,2.180960205078125,-1.7408336132586002,-0.7031827559024095,-0.46330903743300583
1783245482384971300,2.19097119140625,-1.8310989905953405,-0.5979609247133135,-0.32072014660835263
1783245482394983200,2.200983154296875,-1.9328788646370172,-0.5457534753531217,-0.2510295013971627
1783245482404995300,2.210995361328125,-2.0230717612594367,-0.5282774398952722,-0.18902736486196517
1783245482415006200,2.221006103515625,-2.0263100125283002,-0.436767615455389,-0.11559965201430022
1783245482425018400,2.231018310546875,-1.9827467651337385,-0.34485037925839424,-0.08263583230637013
1783245482435029200,2.241029296875,-1.8358879784375428,-0.2781663685172796,-0.13551380133926869
1783245482445041200,2.251041259765625,-1.5869196473538876,-0.23448913935422896,-0.23843984974138438
1783245482455053300,2.26105322265625,-1.297102588531375,-0.19855419488102197,-0.30918409565873445
1783245482465064200,2.271064208984375,-0.9345914648979902,-0.13494126214832067,-0.2945687833942473
1783245482475076000,2.281076171875,-0.5770955390781164,-0.09337123439759015,-0.2235880253072828
1783245482485088000,2.291087890625,-0.18650924456119536,-0.08081073577105999,-0.19522804613299666
1783245482495099400,2.301099365234375,0.1706827298760414,-0.12752484841197728,-0.18325393255967645
1783245482505111300,2.311111328125,0.47708910444974895,-0.16902356449216605,-0.1264623337469995
1783245482515122200,2.3211220703125,0.7298293552875519,-0.20471973177343605,-0.024992365904711187
1783245482525134300,2.33113427734375,0.8573094877749681,-0.26295009468495845,0.10856493107192218
1783245482535146200,2.341146240234375,0.8598124105066061,-0.3302884776815772,0.27558161272108556
1783245482545157000,2.3511572265625,0.6767232035219669,-0.30538609161525965,0.4986215391589328
1783245482555169000,2.3611689453125,0.3255108880162239,-0.198345228305459,0.7098636949710547
1783245482565180400,2.371180419921875,-0.13944003487229348,-0.04889525607228279,0.9022242959089577
1783245482575192300,2.3811923828125,-0.5992179390370845,0.14373130232542752,1.046467054887861
1783245482585204200,2.391204345703125,-0.9346154302954673,0.4001008495762944,1.1629613907195626
1783245482595215400,2.40121533203125,-1.1395558190822601,0.5919502861216664,1.1393545974217354
1783245482605227300,2.411227294921875,-1.1244190402269363,0.7449769477978349,0.9332857891269027
1783245482615239200,2.4212392578125,-0.9884346987664699,0.7885819885075092,0.6236036077529191
1783245482625250000,2.43125,-0.7339478965222835,0.7225988195121288,0.29617521394388746
1783245482635262200,2.44126220703125,-0.43605040709674353,0.673328592647612,0.09257658602171577
1783245482645273000,2.451273193359375,-0.17794716792106627,0.6100149351224303,0.018626237539434803
1783245482655285200,2.46128515625,0.009693711018562316,0.5065957694411277,0.010937628398742526
1783245482665297200,2.471297119140625,0.11208674852252005,0.4416507113218307,0.16286442080792038
1783245482675308300,2.481308349609375,0.19644377859830855,0.42206776671260593,0.42382476644776756
1783245482685320200,2.4913203125,0.3291296630352735,0.41754327502548694,0.7232009501237422
1783245482695332400,2.501332275390625,0.4457493788123131,0.28781711717694997,1.010144718532264
1783245482705343200,2.51134326171875,0.5425467882663011,0.10352437962144613,1.2385231199212372
1783245482715355100,2.521355224609375,0.6239817934155464,0.0011196516796946525,1.4729447469972072
1783245482725366000,2.531365966796875,0.6358183616816997,-0.02326660155802965,1.6991688929617403
1783245482735378200,2.541378173828125,0.5428834728747606,0.006943535527586937,1.8642985187552867
1783245482745390300,2.551390380859375,0.41479602214396,0.11149345880448817,1.9241056294642387
1783245482755401500,2.5614013671875,0.19513971026241778,0.22596856376826763,1.8496768498152494
1783245482765413600,2.57141357421875,-0.045613165661692615,0.2868000490888953,1.6321034816876052
1783245482775424500,2.581424560546875,-0.25798399671018124,0.3393427217528224,1.3503833662115037
1783245482785436400,2.5914365234375,-0.3833095815122127,0.4352478585422039,1.0282920773804187
1783245482795448600,2.601448486328125,-0.3531833233177662,0.6040948974236846,0.6536995438743383
1783245482805459500,2.61145947265625,-0.14469605570435523,0.7385808170199394,0.29874444337738676
1783245482815471400,2.621471435546875,0.11035714825093745,0.7753308772683143,-0.06559267184045166
1783245482825483300,2.631483154296875,0.3810726162403822,0.6812924111336469,-0.31927897135671224
1783245482835494400,2.641494384765625,0.6627040305197238,0.5588216312408447,-0.45602198569737373
1783245482845506300,2.65150634765625,0.9180757989048958,0.44480040752440686,-0.43667489567063744
1783245482855517400,2.661517333984375,1.1014753870129586,0.34556554179042576,-0.3035403358844109
1783245482865529600,2.671529541015625,1.226899756014347,0.3070478873476386,-0.06806976601108908
1783245482875541500,2.68154150390625,1.3577812213778495,0.25774726534485815,0.1893968192288652
1783245482885552400,2.691552490234375,1.4901415271222591,0.16016075133979318,0.39826632762551306
1783245482895564300,2.701564208984375,1.5991887618184089,0.041215807485580444,0.5283066294571385
1783245482905576400,2.711576416015625,1.6333108116507529,-0.12574790186733006,0.6094064843678847
1783245482915587300,2.72158740234375,1.6174948183596134,-0.26519553552418945,0.7165355739504099
1783245482925599200,2.73159912109375,1.523342370456457,-0.37587358629256484,0.8262113888736814
1783245482935610600,2.741610595703125,1.3866753074288367,-0.4374360162362456,0.9349183587647973
1783245482945622500,2.75162255859375,1.2167010180830955,-0.45521132690161464,0.9951857804618776
1783245482955634400,2.761634521484375,1.0164555091142653,-0.47240211567729706,1.0536755249619483
1783245482965645300,2.771645263671875,0.8802087173253297,-0.4485387172698974,1.102598107432574
1783245482975657500,2.781657470703125,0.8682131591051816,-0.428697706246376,1.098181752295047
1783245482985669400,2.79166943359375,0.8956202214688063,-0.46636926525384187,1.0623565518066287
1783245482995680300,2.80168017578125,0.9338555518388748,-0.553297022600472,0.9675631025861948
1783245483005692400,2.8116923828125,0.9576520224899053,-0.5984440320551395,0.8594885123144834
1783245483015703600,2.82170361328125,0.8849228863656521,-0.6199865862995386,0.7539965589471161
1783245483025715500,2.831715576171875,0.7943687552154064,-0.6085960082352161,0.6209121036466211
1783245483035727600,2.8417275390625,0.7178712064683437,-0.591087531812489,0.4146930732261389
1783245483045738500,2.851738525390625,0.6438479388803243,-0.6268108793616295,0.16138453924739732
1783245483055750400,2.86175048828125,0.5791589013487101,-0.6982058442726731,-0.10721379045760258
1783245483065761300,2.87176123046875,0.45930444143414495,-0.7622250197187066,-0.28372878841739146
1783245483075773400,2.8817734375,0.2821311804950237,-0.8259133557751774,-0.39319055873118336
1783245483085785300,2.891785400390625,0.0996107133090496,-0.9098132897332311,-0.4892660836514085
1783245483095796200,2.901796142578125,-0.15082944389283656,-0.9844877147063612,-0.5127439533399417
1783245483105808400,2.911808349609375,-0.3902560396492481,-1.0845385729983448,-0.4915813017912209
1783245483115820300,2.9218203125,-0.5776023195564747,-1.1591174286425112,-0.42528866498786955
1783245483125831400,2.93183154296875,-0.8381593816250562,-1.1595622498005629,-0.30332753338394686
1783245483135843600,2.941843505859375,-1.1365677431821823,-1.1603723971396684,-0.18578359716776757
1783245483145854500,2.9518544921875,-1.3992548030167817,-1.1843059381738303,-0.0817432947802823
1783245483155866400,2.961866455078125,-1.6751228314638136,-1.1766539621159433,-0.0740292772036977
1783245483165878500,2.97187841796875,-1.877989921107888,-1.207932605215907,-0.11859620348177849
1783245483175889400,2.981889404296875,-1.9513474182635544,-1.2466814380660651,-0.30559178852150215
1783245483185901300,2.9919013671875,-1.9774930823892354,-1.2292387203559278,-0.5690466726571322
1783245483195913200,3.001913330078125,-1.890771076747775,-1.1642591754451392,-0.8496656950235366
1783245483205924600,3.011924560546875,-1.7747405590355396,-1.126940959919989,-1.06641532567814
1783245483215936500,3.0219365234375,-1.6759814941197633,-1.1094260537564753,-1.2428431750774382
1783245483225947400,3.031947509765625,-1.5745768831312656,-1.0003133526086807,-1.3461048121094703
1783245483235959600,3.04195947265625,-1.4960446136862038,-0.7142240821376442,-1.3324481888093054
1783245483245971500,3.051971435546875,-1.4172791200071573,-0.40530075630694623,-1.223120383606106
1783245483255982300,3.061982421875,-1.2316752998530864,-0.13997019622623919,-1.0439012229878455
1783245483265994200,3.071994140625,-0.9859837984830141,0.007654606406390666,-0.8500001876749098
1783245483276006400,3.08200634765625,-0.74855743663311,0.09176555276662111,-0.5757460972305387
1783245483286017500,3.092017578125,-0.572497105371952,0.16143851619064806,-0.3307010770704597
1783245483296029400,3.102029541015625,-0.4472907630354166,0.21438217087090014,-0.19246639939993618
1783245483306040600,3.11204052734375,-0.38414135616123674,0.23422172058969734,-0.1719178794278763
1783245483316052500,3.122052490234375,-0.4164811987519264,0.30202509074956174,-0.25624093416882676
1783245483326064400,3.132064453125,-0.45772740137577056,0.4300526279866695,-0.38286465075630693
1783245483336075300,3.1420751953125,-0.43219548523426055,0.5348357754975557,-0.5648438872050494
1783245483346087400,3.15208740234375,-0.2976911531984806,0.5623848766803741,-0.763388948931545
1783245483356098300,3.162098388671875,-0.13768880729079247,0.5269727870374917,-1.0101420881837606
1783245483366110200,3.172110107421875,-0.07140928569734097,0.48597851334810255,-1.174579640059918
1783245483376122400,3.182122314453125,-0.06541501371860504,0.4185808013796806,-1.2888045696549117
1783245483386133500,3.192133544921875,-0.04411737414598465,0.34236090053021906,-1.3260431440725922
1783245483396145400,3.2021455078125,-0.07358429164886474,0.2893979566276073,-1.2867545052573084
1783245483406157600,3.212157470703125,-0.1384802499294281,0.34383331117033955,-1.1064968684367835
1783245483416168400,3.22216845703125,-0.21362872215509413,0.41589433877468107,-0.8138757119789719
1783245483426180400,3.232180419921875,-0.34398061068654057,0.38156478367149826,-0.49306945798974483
1783245483436192500,3.242192626953125,-0.5267962614268065,0.31534429878890513,-0.17995131081771104
1783245483446203400,3.252203369140625,-0.7321820558935404,0.24544775574207303,0.10321399849802255
1783245483456215300,3.26221533203125,-0.9613117140412331,0.22328736186027526,0.38618100876267997
1783245483466226400,3.272226318359375,-1.1540122144579887,0.2396329319834709,0.5635562220146879
1783245483476238600,3.282238525390625,-1.281514558777213,0.3621124797046184,0.6579036445006727
1783245483486250500,3.29225048828125,-1.284871467989683,0.5746738648891448,0.607901778893359
1783245483496261400,3.302261474609375,-1.1014379776120184,0.7809925562918185,0.4664434630012139
1783245483506273500,3.3122734375,-0.892250452774763,0.8798468982756137,0.2700815174674615
1783245483516284400,3.322284423828125,-0.6574813274353742,0.8860738099664449,0.08181494437754154
1783245483526296300,3.33229638671875,-0.4000532110422849,0.9139321232289075,-0.02481679014209658
1783245483536308500,3.34230859375,-0.21826807239353654,1.0471481690198183,-0.03245079215187579
1783245483546319400,3.3523193359375,-0.10629238303005695,1.183266365993023,0.05631820914726704
1783245483556331500,3.36233154296875,0.03885667713880539,1.2617600569933651,0.18444690520390866
1783245483566343400,3.372343505859375,0.272885797765851,1.3139385725200174,0.28120274053849276
1783245483576354600,3.3823544921875,0.4649830715924501,1.3020441365867852,0.36720688023418185
1783245483586366500,3.392366455078125,0.6927905412256717,1.258813482147455,0.4038197970341891
1783245483596377300,3.40237744140625,0.963268108806014,1.2058411858946085,0.4116698529474437
1783245483606389500,3.412389404296875,1.1365835252732037,1.1076298179894686,0.47589657019693404
1783245483616401400,3.4224013671875,1.3681594075292347,1.0510627121150493,0.531231540460512
1783245483626412300,3.432412353515625,1.5854051511377096,1.0189613544553517,0.5650691107956692
1783245483636424400,3.442424560546875,1.7477169430315493,0.9344476725131273,0.5381414294468239
1783245483646436400,3.452436279296875,1.8848077844291924,0.7648959924936294,0.5326337354086339
1783245483656447500,3.462447509765625,2.0141735845327378,0.6079600484192371,0.5570097229806706
1783245483666459400,3.47245947265625,2.0776696128875014,0.4966331783533096,0.6138111125349998
1783245483676470500,3.482470458984375,2.1194453923434016,0.40520752506554125,0.6661060940481722
1783245483686482400,3.492482421875,2.1192712048202753,0.31656302692890165,0.6804534760914742
1783245483696494300,3.502494384765625,2.044846955215931,0.16358897222280502,0.624150793306902
1783245483706505500,3.51250537109375,1.9584487747013568,0.03767068222463131,0.5316198091257364
1783245483716517400,3.522517333984375,1.8269792803168297,-0.058145899498462675,0.41221090102158486
1783245483726529300,3.532529296875,1.611413452619314,-0.11919161209166049,0.3204160490952432
1783245483736540400,3.54254052734375,1.3225976797938346,-0.185422618368268,0.2443566360371187
1783245483746552800,3.552552734375,0.9981453609198331,-0.2974076600819826,0.12014350598901509
1783245483756563700,3.562563720703125,0.5317196893036366,-0.44044776527285573,-0.07260408497247844
1783245483766575900,3.572575927734375,0.07266659228205681,-0.532265048226714,-0.26153204458057877
1783245483776587800,3.582587890625,-0.3643184653162956,-0.5590642078250646,-0.45584823656566437
1783245483786598700,3.5925986328125,-0.7559077993959188,-0.5758493384093046,-0.5993303499029949
1783245483796610800,3.60261083984375,-1.0233359162777662,-0.6186170515120029,-0.7566586908284574
1783245483806622700,3.612622802734375,-1.1560849290788173,-0.7170423544287681,-0.8497118722528219
1783245483816633600,3.622633544921875,-1.2662018388330936,-0.8578665371358394,-0.927048282976821
1783245483826645500,3.6326455078125,-1.383073483544588,-0.978969535806775,-0.986805490129441
1783245483836657000,3.642656982421875,-1.4617992297351359,-0.9981272407412528,-0.9217870745129882
1783245483846668800,3.652668701171875,-1.5514754090070724,-0.9559633387506008,-0.7955335612110793
1783245483856680700,3.6626806640625,-1.5482242982566357,-0.9168418731957674,-0.6595270079188048
1783245483866691800,3.67269189453125,-1.4763035559058189,-0.9043734367668628,-0.5528603116836398
1783245483876703700,3.682703857421875,-1.4155851755708455,-0.8951292230814695,-0.4941925072029233
1783245483886715600,3.692715576171875,-1.2557944265872238,-0.838993494361639,-0.4734957561329007
1783245483896726500,3.7027265625,-1.0439829829871654,-0.7170663198262452,-0.4176511193141341
1783245483906738700,3.71273876953125,-0.8267752333015203,-0.6030792906403541,-0.3476901692615822
1783245483916749800,3.722749755859375,-0.5974941839843988,-0.561482374882698,-0.26509834049372
1783245483926761700,3.73276171875,-0.371177245169878,-0.5171411288529634,-0.16760173326181246
1783245483936774000,3.74277392578125,-0.15637538758218286,-0.368086877939105,0.020668529622536153
1783245483946784800,3.75278466796875,-0.04538111047148704,-0.15283143136501312,0.2634274481394328
1783245483956796700,3.762796630859375,0.02179915935397148,0.06274257963895798,0.5016036967748776
1783245483966808800,3.772808837890625,0.07464987505376339,0.27013796036243437,0.6866498465135693
1783245483976819700,3.78281982421875,0.09470365204513072,0.46053369096815583,0.7977485338468104
1783245483986831600,3.79283154296875,0.18814999750554562,0.6134598148792981,0.84554474263601
1783245483996842500,3.802842529296875,0.2712076354205608,0.7809183220118284,0.8481739951610565
1783245484006854700,3.812854736328125,0.21372867539823054,0.8952274227589369,0.8015968798380345
1783245484016866600,3.822866455078125,0.10643325280547142,0.8920277499347925,0.6870553585745394
1783245484026877700,3.832877685546875,-0.11741934172213077,0.9030687839090824,0.5702575097516179
1783245484036889900,3.842889892578125,-0.44843233428597445,0.9616793783098458,0.5096507000323385
1783245484046901800,3.85290185546875,-0.7558218746781349,1.070011742734909,0.4805226590950042
1783245484056912600,3.86291259765625,-0.9691051443964243,1.1387795740127562,0.47234183685742315
1783245484066924800,3.8729248046875,-1.0457400557875633,1.1046294671297072,0.4758032293576747
1783245484076935700,3.882935791015625,-0.9221879103988408,0.9649269819289445,0.4495410992454737
1783245484086947600,3.892947509765625,-0.7039554938405752,0.7542167775690555,0.47430813196171073
1783245484096959700,3.902959716796875,-0.510381133198738,0.5589660081475972,0.5646588860269636
1783245484106971000,3.912970947265625,-0.3334896118104458,0.421153866738081,0.7295197048164904
1783245484116982800,3.922982666015625,-0.15162205557525157,0.34407413418889043,0.9377170495726168
1783245484126993700,3.93299365234375,0.05340191984176636,0.31669395983219145,1.205658084412664
1783245484137005800,3.943005859375,0.28590602285861966,0.30872166577875615,1.4389596214175224
1783245484147017700,3.953017822265625,0.45976446016132827,0.27463994795680047,1.569572206711769
1783245484157028600,3.963028564453125,0.6003834756851196,0.29527883135974403,1.6242402009665966
1783245484167040800,3.973040771484375,0.6593149726033211,0.3321381972014904,1.6210712155416607
1783245484177052700,3.983052734375,0.6314952377855777,0.36792730346322056,1.5532761748187243
1783245484187063800,3.993063720703125,0.5507973147392272,0.3950274918347597,1.398083859541267
1783245484197075700,4.00307568359375,0.38296997429430485,0.43772623135447497,1.2120076726350932
1783245484207087900,4.013087890625,0.23996260232925415,0.524933974686265,1.0700539013762027
1783245484217098800,4.0230986328125,0.1655418598562479,0.6436427716970443,0.9184974583830684
1783245484227110700,4.033110595703125,0.12091536714434623,0.7340086867988109,0.7241016983557492
1783245484237121800,4.043121826171875,0.1091875199496746,0.7707336126059293,0.5207959980987013
1783245484247133700,4.0531337890625,0.23524901781082153,0.7175117255061865,0.34826194126754995
1783245484257145600,4.0631455078125,0.44495209095478055,0.6471949112206697,0.1931860554439947
1783245484267156500,4.073156494140625,0.6004243922173976,0.5399181933283805,0.07606323071671649
1783245484277168600,4.083168701171875,0.7046592581957578,0.42403029895722866,-0.004309625093732029
1783245484287180500,4.0931806640625,0.8154396002948283,0.3601262743234634,-0.05574775231555104
1783245484297191700,4.103191650390625,0.9259621682405471,0.3386661376655102,-0.08624952929150313
1783245484307203800,4.113203857421875,1.036018287718296,0.27675299458801744,-0.13371709064822643
1783245484317214700,4.123214599609375,1.1209008029729126,0.22324995245933532,-0.19313052586447446
1783245484327226600,4.1332265625,1.1737392437130212,0.14777414797544478,-0.18884444604311137
1783245484337238800,4.14323876953125,1.226004268479347,0.12939794880747793,-0.06140731244720518
1783245484347249700,4.153249755859375,1.2814707196354864,0.15644143855571746,0.08835983597636222
1783245484357261600,4.163261474609375,1.310146194499731,0.12468319524526596,0.18351561570316552
1783245484367273700,4.173273681640625,1.340129829353094,0.03587736906707287,0.1962707235863432
1783245484377284900,4.183284912109375,1.2696435037195681,-0.06516600739359855,0.16105411998294292
1783245484387296800,4.193296875,1.1833856084585188,-0.12570844663977623,0.11145305372886359
1783245484397307600,4.2033076171875,1.0308622201293707,-0.14337445171177388,0.07449731484055519
1783245484407319800,4.21331982421875,0.8543500534474849,-0.13068798861801623,0.05695595906153321
1783245484417331700,4.223331787109375,0.6705646808922291,-0.13814298079907894,0.05010050367619842
1783245484427342600,4.233342529296875,0.549869093978405,-0.14055121098458767,-0.004506298443302512
1783245484437354800,4.243354736328125,0.5079220496088266,-0.1838058308213949,-0.09989175874013453
1783245484447366000,4.253365966796875,0.49857028389573094,-0.26848990089446306,-0.21781349702645092
1783245484457377800,4.263377685546875,0.5424234541475772,-0.34764000997692346,-0.28629491257835177
1783245484467389700,4.2733896484375,0.5802092871844768,-0.362363239595294,-0.2896246049903333
1783245484477400800,4.28340087890625,0.6461532932132482,-0.4307397334679961,-0.2414609145956114
1783245484487412700,4.293412841796875,0.7139128242313861,-0.5125751361116767,-0.1508466142233461
1783245484497424600,4.303424560546875,0.7551607804208993,-0.5871490233197808,-0.08497198363635688
1783245484507435800,4.313435791015625,0.810274180355668,-0.6627440702691674,-0.08044814953636377
1783245484517447700,4.32344775390625,0.8791343660920858,-0.7616001658186317,-0.18309983797650783
1783245484527459600,4.33345947265625,0.8799474360406399,-0.8552113464519381,-0.33241924263257533
1783245484537470700,4.343470703125,0.8034124778926373,-0.9239841461658477,-0.5124791649239138
1783245484547482600,4.353482666015625,0.6859504660725593,-1.0314037796601652,-0.6606962708938866
1783245484557493800,4.36349365234375,0.4524257878363132,-1.168228371337056,-0.7947112850427627
1783245484567505700,4.373505615234375,0.09044716364443302,-1.2667428138419985,-0.9022179392334073
1783245484577517800,4.383517822265625,-0.32870939179658887,-1.3226441492840646,-0.9804501297533511
1783245484587528700,4.39352880859375,-0.7451765620231628,-1.3322174487933516,-0.9698389385636895
1783245484597540600,4.40354052734375,-1.1512778210580348,-1.3316034085482358,-0.9120485014393925
1783245484607552800,4.413552734375,-1.5057979459375141,-1.3519663976192473,-0.7833115007586777
1783245484617563600,4.423563720703125,-1.8383897321254015,-1.3424845757856965,-0.6671152710907161
1783245484627575600,4.433575439453125,-2.200555987843871,-1.3305480542764068,-0.5451069941431284
1783245484637587000,4.4435869140625,-2.5322762518942357,-1.3024667459130286,-0.4893886505851522
1783245484647598800,4.453598876953125,-2.5911574799299237,-1.1876257302463054,-0.5052244080226868
1783245484657610800,4.46361083984375,-2.3782319376081227,-1.0717337442219257,-0.6712612117890269
1783245484667621600,4.47362158203125,-2.082040667578578,-1.0600777932196854,-1.010286392025277
1783245484677633800,4.4836337890625,-1.6856640992224214,-1.1199039008900522,-1.37422484504804
1783245484687645700,4.493645751953125,-1.2315519657343625,-1.1615920020624995,-1.6043585656717418
1783245484697656600,4.503656494140625,-0.8733756564348936,-1.1470724783226847,-1.7459106242619453
1783245484707668700,4.513668701171875,-0.5873223340600728,-1.08285953387022,-1.7431293229803442
1783245484717679600,4.5236796875,-0.4470411721885204,-0.9907391763165593,-1.6574384139522909
1783245484727691800,4.53369189453125,-0.5389648381263017,-0.8851838753893971,-1.4538560156457125
1783245484737703700,4.54370361328125,-0.7974193749576807,-0.6745397220030427,-1.0982429809629917
1783245484747714800,4.55371484375,-1.0846306351959705,-0.37378508958071466,-0.7310523942764848
1783245484757726700,4.563726806640625,-1.3320920688480138,-0.11376520312875509,-0.3848572128130123
1783245484767739000,4.57373876953125,-1.4263029689401387,0.06114800392389297,-0.10857267598696052
1783245484777749800,4.583749755859375,-1.3932856654793022,0.14304595040977,0.04741882684417069
1783245484787761700,4.59376171875,-1.274032094067335,0.1330249071329832,-0.0011251315724104642
1783245484797772500,4.6037724609375,-1.1651304053217173,0.07568973949551581,-0.225927793366462
1783245484807784700,4.61378466796875,-1.0622615669995545,0.08942132772803306,-0.4675312947705388
1783245484817796600,4.623796630859375,-0.9185977769523859,0.22848025432825086,-0.6240574890002608
1783245484827807700,4.633807861328125,-0.8024275585085153,0.33036183517873285,-0.7386433608621359
1783245484837820000,4.64381982421875,-0.6896276932805776,0.3534358367741108,-0.8232363916508852
1783245484847831800,4.653831787109375,-0.6709276689857244,0.32794074551165103,-0.8789740609638392
1783245484857842700,4.6638427734375,-0.8582698572397232,0.2708955007314682,-0.8609929985933006
1783245484867854800,4.673854736328125,-1.211217033714056,0.2533259417712688,-0.6630699412226676
1783245484877865700,4.68386572265625,-1.6251310123264788,0.37485681046545505,-0.26540084883794185
1783245484887877600,4.693877685546875,-1.9687971502363681,0.5269096586734057,0.20456633131001142
1783245484897889500,4.7038896484375,-2.123210297834873,0.6254290696144104,0.650781683666259
1783245484907901000,4.71390087890625,-2.127830358850956,0.6409773518800735,1.0237851213499902
1783245484917912800,4.723912841796875,-1.999269445389509,0.6555395457178353,1.3156253565631806
1783245484927924700,4.7339248046875,-1.833763241368532,0.7358458390980959,1.5466636248111725
1783245484937936000,4.743935791015625,-1.6830980481266975,0.8670943842083215,1.729234507010132
1783245484947947800,4.75394775390625,-1.4720242711514233,0.9661597385942935,1.824346155334264
1783245484957958700,4.763958740234375,-1.2487731496483088,1.0669184528946876,1.830525136230141
1783245484967970600,4.773970458984375,-1.0311106419324874,1.1725807213276624,1.7711372738465665
1783245484977982700,4.783982666015625,-0.8917734829127788,1.3650117571532725,1.6577432421177625
1783245484987993600,4.79399365234375,-0.6804127056896686,1.6097878972440958,1.4632453368902205
1783245484998005500,4.804005615234375,-0.4564011212080717,1.846678837043047,1.2407285210110246
1783245485008017700,4.814017578125,-0.21847616218626498,2.022719879081845,0.9927255278281867
1783245485018028800,4.82402880859375,0.04282791885733604,2.1634002694040535,0.775620142538473
1783245485028040700,4.834040771484375,0.3023608985751867,2.2899013277262448,0.5896794916454702
1783245485038051600,4.844051513671875,0.555758736538887,2.385842412611842,0.4601100221959874
1783245485048063700,4.854063720703125,0.7266670918643474,2.4304560458421705,0.41822139348275955
1783245485058075600,4.86407568359375,0.8678326353549957,2.391670680373907,0.49131187373269347
1783245485068086500,4.87408642578125,0.9532014728218317,2.314673365411162,0.6397285208627581
1783245485078098700,4.8840986328125,1.0561182419389485,2.2516969770163295,0.8195011506453156
1783245485088110600,4.894110595703125,1.2343068174004554,2.2017583493709565,0.9842274563349783
1783245485098121700,4.904121826171875,1.484388078162074,2.1593010173916816,1.0844485566273332
1783245485108134000,4.9141337890625,1.6759867548167704,2.03030112799108,1.1370070113822817
1783245485118144800,4.924144775390625,1.868795976305008,1.8403022877484558,1.1051166661247611
1783245485128156700,4.93415673828125,1.9767250206261873,1.622598278978467,1.0943144093424082
1783245485138168800,4.9441689453125,1.974858642232418,1.4488573305755852,1.078081359682977
1783245485148179700,4.9541796875,1.880744772773981,1.3296107734262943,1.1033894039407373
1783245485158191600,4.964191650390625,1.6705395953267812,1.2770745305031537,1.1204979212604462
1783245485168203800,4.974203857421875,1.4414105217009783,1.2698100924581288,1.1337963787727057
1783245485178215000,4.98421484375,1.1754881332069635,1.2746955264121294,1.087712161533162
1783245485188226800,4.994226806640625,0.9215484434515238,1.230669337680936,0.9968960915111005
1783245485198237700,5.00423779296875,0.7804232319712638,1.1473112555146217,0.8602784205831587
1783245485208249900,5.014249755859375,0.5940589488387108,1.0052361959636211,0.7431175836667419
1783245485218261800,5.02426171875,0.4093032699465751,0.8651981951981782,0.6997603802382946
1783245485228272600,5.034272705078125,0.2318991228610277,0.7787935849428177,0.735104957602918
1783245485238284800,5.044284912109375,0.049099254211783405,0.7141273437649012,0.7964725956268608
1783245485248296700,5.054296630859375,-0.03221358586251735,0.69506900755167,0.8490242553148418
1783245485258307600,5.0643076171875,-0.09289514131844043,0.6640227119028568,0.8836846498075872
1783245485268319500,5.074319580078125,-0.16117723490595817,0.5920937862455845,0.9513545297808944
1783245485278331000,5.084330810546875,-0.25687866581678387,0.4541127180099487,1.027362687575817
1783245485288342800,5.0943427734375,-0.34760698449015615,0.3772574418663978,1.1275496664028615
1783245485298354700,5.104354736328125,-0.5315466708242893,0.3926888197541237,1.2040533526297659
1783245485308365800,5.11436572265625,-0.6962286989808082,0.3589852875947952,1.2397341031461953
1783245485318377700,5.124377685546875,-0.8102268340826034,0.34475685575604437,1.2193079126458615
1783245485328389600,5.1343896484375,-0.8520324241548776,0.24359482135176658,1.1837262385897338
1783245485338400500,5.144400390625,-0.7465192088037729,0.04443886118531227,1.0432864520903675
1783245485348412700,5.15441259765625,-0.5600181475490331,-0.12001111178100109,0.9246821383673697
1783245485358423800,5.164423828125,-0.455423216086626,-0.1578735171854496,0.952630760261789
1783245485368435700,5.174435791015625,-0.532848985594511,-0.13151976326704024,1.1076709537174552
1783245485378448000,5.18444775390625,-0.8296130870759487,-0.30012860947847364,1.254347881040722
1783245485388458800,5.194458740234375,-1.397308929646015,-0.4255184916883707,1.4595779004238545
1783245485398470700,5.204470703125,-2.1607745970755814,-0.1409071848154068,1.7814944172099232
1783245485408482800,5.21448291015625,-2.8926433492362498,0.44772389375567434,2.0863556081682444
1783245485418493700,5.22449365234375,-3.3507565350592134,1.0635703115105628,2.197589393123239
1783245485428505600,5.234505615234375,-3.52322030313313,1.5374100587755442,2.0773669766791163
1783245485438516700,5.244516845703125,-3.304205211764574,1.7932307399719953,1.7221566775783896
1783245485448528600,5.254528564453125,-2.7847160584807393,1.821073855665326,1.1667007964435965
1783245485458540800,5.264540771484375,-2.201158629912138,1.642079809039831,0.6102548082929105
1783245485468551700,5.2745517578125,-1.7046867796003817,1.4501713357836008,0.18654091834109277
1783245485478563800,5.284563720703125,-1.3419488614737987,1.2784160082399845,-0.12708400930929928
1783245485488575700,5.29457568359375,-1.1567834327369928,1.2398118445575237,-0.280141614113003
1783245485498586600,5.304586669921875,-1.0634855558365583,1.303391459542513,-0.2815370505267754
1783245485508598800,5.314598876953125,-1.0172960515916347,1.429361187466979,-0.20875048512686042
1783245485518609700,5.324609619140625,-0.9525473928272724,1.5268454101413487,-0.04796835048571229
1783245485528621600,5.33462158203125,-0.9269576090186834,1.5669792676091194,0.1890445717250928
1783245485538633700,5.3446337890625,-0.9660048402935266,1.5051824443876742,0.48609074155092236
1783245485548644900,5.354644775390625,-0.9953507617652415,1.3739789074629545,0.7888112672187387
1783245485558656800,5.36465673828125,-1.0315753368347882,1.2848024944067,1.1268930291250348
1783245485568668700,5.374668701171875,-1.0287234545350075,1.275636022132635,1.4620944132894276
1783245485578679800,5.3846796875,-1.1031184780448675,1.2523258736938236,1.6724579961687325
1783245485588691700,5.394691650390625,-1.1504372785806656,1.2207511702567337,1.810894406956434
1783245485598702600,5.40470263671875,-1.1355530131816864,1.1718161666959523,1.8897725672297179
1783245485608714800,5.41471484375,-1.1517518683105707,1.1658464446365833,1.9458496976301072
1783245485618726700,5.4247265625,-1.1872294244050978,1.2397937243789434,2.0065496655255557
1783245485628737800,5.43473779296875,-1.2780711403250693,1.3790472967684269,2.0194494791090487
1783245485638749700,5.444749755859375,-1.3233482059001922,1.5309417395442724,1.9683195958524942
1783245485648761900,5.454761962890625,-1.3791677082777023,1.7157248909652232,1.808045885657519
1783245485658772700,5.464772705078125,-1.3762415916979311,1.9340344644129275,1.560067442394048
1783245485668784600,5.47478466796875,-1.4075433234125374,2.1032897918343543,1.2845586026482283
1783245485678796800,5.484796875,-1.366008951497078,2.1782816121935844,0.9783193282697349
1783245485688807700,5.4948076171875,-1.3519570452690124,2.0619120717853305,0.6649858578465878
1783245485698819600,5.504819580078125,-1.52855864380002,1.8205927941501139,0.394786741881445
1783245485708830700,5.514830810546875,-1.8322575129806995,1.5848977861374616,0.22490895344642922
1783245485718842600,5.524842529296875,-2.234493913280964,1.4691870018988846,0.16465819062320514
1783245485728854800,5.534854736328125,-2.5763895343869923,1.5341776527255773,0.21268303880281744
1783245485738865700,5.54486572265625,-2.7660458448022602,1.6718191137433052,0.312044891917333
1783245485748878300,5.55487841796875,-2.7768139070540663,1.7652941007763145,0.3105537400441244
1783245485758890200,5.56489013671875,-2.724150238358974,1.7021844413906335,0.3056459846604615
1783245485768901000,5.574901123046875,-2.5733032588094473,1.617066363814473,0.29738237951025365
1783245485778913300,5.584913330078125,-2.3245576305657623,1.5438497364342212,0.30479859231719747
1783245485788924200,5.594924072265625,-2.069004075872898,1.4480647188931703,0.2733861119708046
1783245485798936000,5.60493603515625,-1.8597469929307697,1.3212421735316515,0.20527705512894318
1783245485808948200,5.6149482421875,-1.6881787123918532,1.2054273443967103,0.15399061133749783
1783245485818959400,5.62495947265625,-1.5482242982566357,1.145848197224736,0.22121736891949548
1783245485828971300,5.63497119140625,-1.5066355658054351,1.123811721983552,0.34774387221019715
1783245485838983200,5.644983154296875,-1.4494132108926772,1.075285883745551,0.4797281111838296
1783245485848994300,5.654994384765625,-1.3752742079704998,1.0291413876861333,0.5689451850440352
1783245485859006200,5.665006103515625,-1.3096101879268884,1.0398480751395225,0.6732174604233354
1783245485869017000,5.67501708984375,-1.2689654583275318,1.0595780270040034,0.7762949730601161
1783245485879029200,5.685029296875,-1.2304179932683705,1.0756611467987298,0.8640587428394705
1783245485889041200,5.695041259765625,-1.221720892071724,1.1298726294577122,0.9499582531169056
1783245485899052000,5.705052001953125,-1.2872732684344053,1.1738994027107954,1.0493940482504664
1783245485909064200,5.715064208984375,-1.3613491429924964,1.2458154688864946,1.1821432071819902
1783245485919076000,5.725076171875,-1.429366448163986,1.4116665408223867,1.2975393725134432
1783245485929087200,5.735087158203125,-1.387567872354388,1.5704349610209465,1.337145845106244
1783245485939099100,5.74509912109375,-1.2463380314558743,1.6315198365807533,1.2508039248235523
1783245485949110300,5.7551103515625,-1.0704325984954834,1.6044856991827487,1.0680815783899278
1783245485959122200,5.7651220703125,-0.8900105648934841,1.5590437984347343,0.8502193833835423
1783245485969134000,5.775134033203125,-0.7395967160642146,1.557846697604656,0.7102437803298235
1783245485979145200,5.785145263671875,-0.6147989545285701,1.6573475207984447,0.6938011065077037
1783245485989157000,5.7951572265625,-0.5659276638537645,1.7409230451077222,0.7260815470613539
1783245485999169000,5.8051689453125,-0.6252852772295474,1.7912714225977657,0.7912196435347199
1783245486009180200,5.81518017578125,-0.6194032334536314,1.8409692272245883,0.8974073240812868
1783245486019192300,5.8251923828125,-0.6265186184167861,1.880929481691122,1.0260336309291422
1783245486029203200,5.835203125,-0.6327893692493438,1.905709702682495,1.0809192865226418
1783245486039215000,5.845215087890625,-0.5961813478201627,1.91567813898921,1.1053251943089066
1783245486049227300,5.855227294921875,-0.558466826453805,1.9190555064678192,1.089919827645272
1783245486059238100,5.865238037109375,-0.4523094679802656,1.957370331814885,1.0520376946270464
1783245486069250000,5.87525,-0.36548575552999973,2.0129279683858154,1.0729654779739677
1783245486079262200,5.88526220703125,-0.3860913211852312,2.04816879311502,1.129801171656698
1783245486089273000,5.895273193359375,-0.39299160209298134,2.0019027165025474,1.1024121564064173
1783245486099285200,5.90528515625,-0.3781283794820308,1.9172902503609657,1.0124430586025117
1783245486109296000,5.915296142578125,-0.4541097954005003,1.8978233333468435,0.9524705281987785
1783245486119308300,5.925308349609375,-0.4620686454504728,1.9130413607448338,0.9328872182633727
1783245486129320200,5.9353203125,-0.430018141195178,1.9444687646657228,0.9542899987109005
1783245486139331000,5.9453310546875,-0.3475292430788278,1.9197902504831552,0.9439146621037274
1783245486149343200,5.95534326171875,-0.14093699543178081,1.8919991572380064,0.8677402808964252
1783245486159355100,5.965355224609375,0.03883563435077667,1.7928759351849555,0.7195225538719445
1783245486169366000,5.975365966796875,0.10599193877875804,1.3974953921288251,0.5335697010844945
1783245486179378200,5.985378173828125,0.14506547353863716,0.8607336170047521,0.2797564872529357
1783245486189389300,5.995389404296875,0.23269465715289114,0.5805161611765622,0.12331376092243007
1783245486199401200,6.005401123046875,0.32333003684580325,0.5936597203880548,0.056382506555132564
1783245486209413400,6.015413330078125,0.4192921645194292,0.7173515665084124,-0.07473411927111447
1783245486219424300,6.02542431640625,0.5470166271567344,0.6642261255204677,-0.3559744518736377
1783245486229436200,6.035436279296875,0.7600134811490774,0.4032973075300455,-0.7753618569284677
1783245486239448000,6.045447998046875,0.886929550012946,0.04556114321351051,-1.141470274401456
1783245486249459200,6.055459228515625,0.7152946339786053,-0.2772048300087452,-1.2618370677523314
1783245486259471000,6.06547119140625,0.3824403974622488,-0.2351625085711479,-1.0266151571441442
1783245486269482200,6.075482177734375,-0.024192191970348356,-0.027658406776189803,-0.6231594441819935
1783245486279494400,6.085494384765625,-0.2958469866365194,0.16245733784437177,-0.298003561882209
1783245486289506300,6.09550634765625,-0.42329789302945137,0.1624047308743,-0.1112641070280224
1783245486299517200,6.10551708984375,-0.4608212757378816,-0.11020517255961894,-0.04597754199467599
1783245486309529000,6.115529052734375,-0.43474750780463217,-0.5239321041673421,-0.17817524105589835
1783245486319541200,6.125541259765625,-0.4734405188143253,-0.9908411753863096,-0.3388255660109222
1783245486329552100,6.13555224609375,-0.5587368755668402,-1.3430033389627933,-0.45847069402374324
1783245486339564000,6.14556396484375,-0.5655208366185427,-1.4047545694768429,-0.5041748989697545
1783245486349576200,6.155576171875,-0.565277675512433,-1.1863298452168702,-0.48265441042669116
1783245486359587000,6.165587158203125,-0.43948973389565943,-0.856015356311202,-0.5018355693019926
1783245486369599000,6.175598876953125,-0.15398352400958537,-0.6430804616391659,-0.6553663811080157
1783245486379610000,6.185610107421875,0.22105507276356218,-0.5806149453759193,-0.9627474459327757
1783245486389622300,6.195622314453125,0.5367816488683224,-0.6793272485405206,-1.3158844458907841
1783245486399634200,6.20563427734375,0.7791162410259246,-0.8409960663557052,-1.5625648121677338
1783245486409645000,6.21564501953125,0.9444529336988925,-0.9644698858112096,-1.6325991562500595
1783245486419657200,6.2256572265625,0.9451046756058931,-0.9964508319616318,-1.5967657724551856
1783245486429669000,6.235669189453125,0.7542477572292089,-0.9382610933214426,-1.443880126684904
1783245486439680000,6.245679931640625,0.41100305960178374,-0.7828764703422785,-1.2579904753267763
1783245486449692200,6.255692138671875,0.2471224109560251,-0.5377320814609527,-1.0762547287777067
1783245486459703300,6.265703369140625,0.22371172475218773,-0.3174357181102037,-0.8505459849894046
1783245486469715200,6.275715087890625,0.3160013013929128,-0.1507791750103235,-0.6835071645736694
1783245486479727400,6.285727294921875,0.4363970285773277,-0.04994388834238052,-0.5714619171053171
1783245486489738200,6.29573828125,0.5120984585106373,-0.07388882755339145,-0.547735990939848
1783245486499750100,6.305750244140625,0.527813329514861,-0.14611410580873488,-0.6136185125723481
1783245486509762300,6.31576220703125,0.46865912975668905,-0.1694149018973112,-0.7016629259239882
1783245486519773200,6.325773193359375,0.3431295468151569,-0.08150222516655921,-0.7606370198749005
1783245486529785000,6.33578515625,0.26586919700205325,0.040433132675290105,-0.7941878456905483
1783245486539796200,6.345796142578125,0.24836978066861629,0.06957213339805603,-0.8777735260676592
1783245486549808400,6.355808349609375,0.2660866391450167,0.025253099200129508,-0.991834570337832
1783245486559820300,6.3658203125,0.2511485977321863,0.03523030333518982,-1.1090569281831384
1783245486569831200,6.3758310546875,0.24224808291792868,0.019438859963417054,-1.2258642754867672
1783245486579843300,6.38584326171875,0.31079379587769507,-0.050778585600852966,-1.321278121627867
1783245486589855200,6.395855224609375,0.36803193288147446,-0.19492343716323374,-1.418762052041292
1783245486599866000,6.4058662109375,0.4489899681687355,-0.3078618340790272,-1.4196341587007044
1783245486609878000,6.4158779296875,0.4226508272975683,-0.36222763051688667,-1.3396242179185152
1783245486619889200,6.42588916015625,0.296608618658781,-0.39737376269996166,-1.2448558300741017
1783245486629901000,6.435901123046875,0.1380623167783022,-0.40211715783476826,-1.1774801838070152
1783245486639913000,6.445912841796875,0.006772855135798454,-0.37600247336924075,-1.043621383133158
1783245486649924400,6.45592431640625,-0.1510106456786394,-0.39803485695719715,-0.876932691329345
1783245486659936300,6.465936279296875,-0.22179040130078792,-0.43562019898593424,-0.7098476206190883
1783245486669948200,6.4759482421875,-0.20681904214024543,-0.4339911364793777,-0.5491415834214538
1783245486679959000,6.485958984375,-0.14718728799819947,-0.31208734281957146,-0.36253041285574433
1783245486689971200,6.49597119140625,-0.047264440000057216,-0.10745090541541576,-0.21783928905483335
1783245486699983000,6.505983154296875,0.16832359952926634,0.038103812944889064,-0.16038619412612168
1783245486709994000,6.515993896484375,0.4582780209958553,0.07546995926499367,-0.2708191110270098
1783245486720006100,6.526006103515625,0.8060287978708743,0.016561843222379684,-0.53131333699245
1783245486730017300,6.536017333984375,0.9996528428733348,-0.1356301211953163,-0.8115859936065971
1783245486740029200,6.546029296875,0.973930372595787,-0.3535001341819763,-1.0731472642816602
1783245486750041000,6.556041015625,0.8529507080435752,-0.5174363124072552,-1.2117146079726517
1783245486760052000,6.566052001953125,0.67399465534091,-0.5574082573115825,-1.2139839411441236
1783245486770064100,6.576064208984375,0.3776420572698116,-0.5254664741277695,-1.087098778875172
1783245486780076000,6.586075927734375,0.0440934087485075,-0.5060089094638824,-0.9223170166712253
1783245486790087000,6.5960869140625,-0.16258768622577188,-0.5374538490414619,-0.7683161762006581
1783245486800099000,6.60609912109375,-0.2720569457262754,-0.5080243409395218,-0.6139801854915916
1783245486810110200,6.616110107421875,-0.3547691312044859,-0.41920974693298335,-0.4850542746426537
1783245486820122000,6.6261220703125,-0.25563714132308957,-0.31653789248764513,-0.39635165311060844
1783245486830134300,6.63613427734375,-0.03974748849868774,-0.2545236271232366,-0.37204785399194806
1783245486840145200,6.646145263671875,0.16034604477882383,-0.361678764462471,-0.42081228675879534
1783245486850157000,6.656156982421875,0.34695524258315563,-0.520612604355812,-0.5109554259553551
1783245486860169000,6.6661689453125,0.5113888489365578,-0.6526923395931721,-0.6294014803767204
1783245486870180000,6.67618017578125,0.5600497117310762,-0.7742980270892381,-0.7305823656119406
1783245486880192000,6.68619189453125,0.44790275745391844,-0.9010182811200618,-0.7313500620488077
1783245486890204000,6.696203857421875,0.25910686326026916,-0.967345148986578,-0.6205456814870238
1783245486900215000,6.706215087890625,0.06528934151232242,-0.9303852453798055,-0.4299526747435331
1783245486910227000,6.71622705078125,-0.15513094047904014,-0.8904647384017705,-0.2624036397833377
1783245486920238000,6.726238037109375,-0.33087621444165705,-0.8921160127401352,-0.17466595429331064
1783245486930250200,6.736250244140625,-0.4662508995711803,-0.9160621209949255,-0.17171733362078664
1783245486940262100,6.74626220703125,-0.5665946033298969,-0.8697522052407264,-0.17638970934599638
1783245486950273000,6.75627294921875,-0.5914461359918117,-0.7185474982947111,-0.16528163801748305
1783245486960285000,6.766284912109375,-0.5476712916731834,-0.5841863741219043,-0.1404484629961662
1783245486970297000,6.776297119140625,-0.49765492261648175,-0.5729582931429147,-0.14511749598681925
1783245486980308000,6.786307861328125,-0.47512978707551956,-0.6977800200760365,-0.15206812797547317
1783245486990319900,6.79631982421875,-0.5129653044730424,-0.7956658092886209,-0.14338929308787918
1783245487000332000,6.80633203125,-0.5879226380407809,-0.7755033112257719,-0.06664220829284749
1783245487010343200,6.81634326171875,-0.6351958458691835,-0.7759709287375212,-0.005247813551075523
1783245487020355000,6.82635498046875,-0.7230640989363193,-0.7212579262971878,-0.058958914648089555
1783245487030366000,6.836365966796875,-0.7844926733672618,-0.6448918949753045,-0.1799685542134568
1783245487040378000,6.846378173828125,-0.7912047382265329,-0.4905646720945835,-0.2544664535759017
1783245487050390000,6.85639013671875,-0.6828612678855657,-0.1883458123385906,-0.2053870365757495
1783245487060401000,6.86640087890625,-0.4677987135350704,0.13448504281342027,-0.08599769168859348
1783245487070413000,6.8764130859375,-0.29862112752497194,0.38226445637345313,0.059674570370465516
1783245487080425000,6.886425048828125,-0.09051496818363666,0.5193576358586549,0.24595621672086415
1783245487090436000,6.89643603515625,0.029093992537260055,0.5321189177542924,0.3838503007927909
1783245487100448300,6.9064482421875,0.0759650493055582,0.4688175351887941,0.44660201358627527
1783245487110459100,6.916459228515625,-0.04379121093153953,0.4458656986683607,0.47023817910905924
1783245487120471000,6.926470947265625,-0.3083253599375486,0.5384609802573919,0.44980333037823433
1783245487130483200,6.936483154296875,-0.561060934600234,0.777571349671483,0.40856684543080624
1783245487140494000,6.946494140625,-0.7058107663184404,1.0715431900858878,0.351694399934262
1783245487150506000,6.956506103515625,-0.7290490185648203,1.3234656948000192,0.2441615883890539
1783245487160518000,6.966517822265625,-0.6050128890514374,1.510145619753003,0.15614574354477226
1783245487170529000,6.976529052734375,-0.45740474529266356,1.5697650989353655,0.07188252923227846
1783245487180541000,6.986541015625,-0.2534977912068367,1.4276748418152332,-0.126198422113806
1783245487190552000,6.996552001953125,-0.05162088164389133,1.1519774937599896,-0.42968481758758426
1783245487200564200,7.006564208984375,0.05711129575371742,0.914326675504446,-0.7023558035589754
1783245487210576100,7.016576171875,0.10789455752968788,0.8226713051140307,-0.8892884611640125
1783245487220587000,7.0265869140625,0.17816110293269155,0.7806009266257286,-0.986750398941338
1783245487230599200,7.03659912109375,0.26858430117964743,0.7184288403511047,-1.04544567595087
1783245487240611000,7.046611083984375,0.36701720288097855,0.5608452460229396,-1.07387499403432
1783245487250622000,7.0566220703125,0.4933440736800432,0.3865881647914648,-1.0197270781308412
1783245487260633900,7.0666337890625,0.6688111152231693,0.3429740639925003,-0.8571822811987251
1783245487270646000,7.07664599609375,0.7091606612682342,0.39961657319068905,-0.6312893399499356
1783245487280657200,7.0866572265625,0.617600567945838,0.4624444930255413,-0.4233637248072773
1783245487290669000,7.0966689453125,0.49060091245174403,0.5277063620090484,-0.24383703260980544
1783245487300680200,7.10668017578125,0.318237097620964,0.5900795238137245,-0.1462248727068305
1783245487310692000,7.116692138671875,0.15559680442512033,0.6251321324944495,-0.1391378370553255
1783245487320704000,7.1267041015625,0.09468962351977825,0.657718643322587,-0.17055771525688468
1783245487330715000,7.13671484375,0.04783785597383976,0.6643862845182419,-0.2124977453637868
1783245487340727000,7.14672705078125,0.05183306308984756,0.6407511419087648,-0.3961738123256713
1783245487350739000,7.156739013671875,0.17280571337938308,0.5788999581515789,-0.6114522013839334
1783245487360750000,7.16675,0.29372926383018494,0.4852613049894571,-0.7926550101000815
1783245487370762000,7.176761962890625,0.3963911814033985,0.40776773094236846,-0.8732532721642404
1783245487380774100,7.186774169921875,0.4987736975133419,0.4178729453712702,-0.9089083037175237
1783245487390785000,7.196784912109375,0.5472545275658369,0.46259413062930105,-0.8911774167157709
1783245487400797200,7.206797119140625,0.52550271448493,0.5234855294436216,-0.8243702179864049
1783245487410808000,7.21680810546875,0.5596820474624633,0.5757435399472713,-0.6823826905883849
1783245487420820000,7.226820068359375,0.6090168639957905,0.5058393981158733,-0.5011289919352159
1783245487430832000,7.23683203125,0.6228028127640486,0.29998890874683853,-0.30467102041477334
1783245487440843000,7.246843017578125,0.7169786415427922,0.15671557932198046,-0.08428434843206778
1783245487450855000,7.25685498046875,0.8386100480020046,0.15487258180379868,0.17263757200455293
1783245487460867000,7.2668671875,0.8591454710304737,0.11124620604515074,0.21227781900279222
1783245487470878200,7.276878173828125,0.8385480886816978,-0.008549217158555984,0.08371180010796524
1783245487480890000,7.28689013671875,0.850929431349039,-0.07660743886232375,-0.10127364155258983
1783245487490901000,7.29690087890625,0.8325240060865878,-0.013805822512507438,-0.21071531892642378
1783245487500913200,7.3069130859375,0.8152993150413036,0.017812720066308973,-0.28280686953319234
1783245487510925000,7.316925048828125,0.7743652471065521,0.1462093828767538,-0.36402846939377487
1783245487520936000,7.32693603515625,0.4909866968989372,0.06894084975719451,-0.3380972517363727
1783245487530948000,7.336947998046875,0.7272130353093147,-0.21725217334926128,-0.33617768185064195
1783245487540960000,7.3469599609375,1.1483031891614197,-0.5863923597335815,-0.3486220067515969
1783245487550971100,7.35697119140625,1.182956569391489,-0.6658662939429283,-0.18169724116958677
1783245487560983000,7.366983154296875,0.6381178707957268,-0.30923019982278344,0.03414840811630711
1783245487570995200,7.3769951171875,-0.1115618478655815,-0.12159048992693423,0.2761091437265277
1783245487581006000,7.387006103515625,-0.49356385391056534,-0.09125906454920768,0.5086690320512279
