time,seconds_elapsed,z,y,x
1783245703767406300,0.05140625,0.42332244294881816,0.09088555506169796,-0.11107519685979932
1783245703777418500,0.06141845703125,0.39284196448922154,0.16347499045431613,0.03642502954509109
1783245703787430400,0.071430419921875,0.44292906069457527,0.20104221230447292,0.1738163882592693
1783245703797442300,0.0814423828125,0.4617161787509918,0.14985855303406714,0.2786268073695712
1783245703807454500,0.091454345703125,0.33514614684581756,0.01592237627506256,0.3566192160505801
1783245703817466400,0.10146630859375,0.2509130354106426,-0.16401859581172465,0.4292234836861491
1783245703827478300,0.111478271484375,0.2887023755788803,-0.25839608464241026,0.5122636224770918
1783245703837490400,0.121490478515625,0.40000469572544095,-0.20876959168612955,0.5566622977824881
1783245703847502300,0.13150244140625,0.3997288013935089,-0.17135259196162222,0.5906126808423549
1783245703857514500,0.141514404296875,0.18268237974941728,-0.27462182777822014,0.6063171035178005
1783245703867526400,0.1515263671875,-0.04176701162755489,-0.4521043007969856,0.6399167369112372
1783245703877538300,0.161538330078125,-0.07892623719871043,-0.47094285677969455,0.6569632949106395
1783245703887550500,0.171550537109375,0.030846389162540434,-0.3190133426904678,0.7028840652167797
1783245703897562400,0.181562255859375,0.0558399606436491,-0.2171978128135204,0.7193032850980758
1783245703907574300,0.19157421875,0.16163491554558276,-0.3257446967720985,0.6519219397425651
1783245703917586400,0.20158642578125,0.3036123599410057,-0.5481424163162708,0.48754079422876234
1783245703927598300,0.211598388671875,0.33461364740431304,-0.7547533686637878,0.3769519195811823
1783245703937610200,0.2216103515625,0.3444248473227024,-0.8287216911941766,0.3919080811725929
1783245703947622400,0.231622314453125,0.5459066200882197,-0.7659703437268733,0.48144854176826773
1783245703957634600,0.241634521484375,0.6374252123564481,-0.7008715563505887,0.6814870569229126
1783245703967646500,0.251646484375,0.6414636740922928,-0.7120271566152572,0.8402109803926199
1783245703977658400,0.261658447265625,0.6464513993769884,-0.8024807500004768,0.8884929268721491
1783245703987670500,0.27167041015625,0.729463444584608,-0.8205904071867466,0.907426102335751
1783245703997682400,0.281682373046875,0.7644739676892757,-0.7496516616106033,1.0173503390621392
1783245704007694600,0.291694580078125,0.7804033582270145,-0.757168028590083,1.1486856856729835
1783245704017706500,0.30170654296875,0.8293710950136184,-0.77629007768929,1.1902451920296997
1783245704027718400,0.311718505859375,0.9158277277171611,-0.8584984052985906,1.1757881390668452
1783245704037730600,0.32173046875,0.9914619376331567,-0.8526835815399885,1.1661824716579168
1783245704047742500,0.331742431640625,1.0162444967120885,-0.8212970941513776,1.1361202916756272
1783245704057754400,0.34175439453125,0.9997089569747447,-0.8706897783517837,1.0562665643684566
1783245704067766500,0.3517666015625,1.0583037692844868,-0.8799860144853592,0.9425460040990262
1783245704077778400,0.3617783203125,1.1607096662700176,-0.856927210459113,0.7972034671846777
1783245704087790600,0.37179052734375,1.2942033599585294,-0.8056558729052543,0.6810920662559569
1783245704097802500,0.381802490234375,1.3146674713164568,-0.8231196334034204,0.5704681568276136
1783245704107814400,0.391814453125,1.3010568791151047,-0.9379384372383356,0.4871231898711994
1783245704117826600,0.40182666015625,1.3292448627233504,-1.0348732093364,0.43962545257192104
1783245704127838500,0.41183837890625,1.2173767253875731,-1.109066572794318,0.4960849333534017
1783245704137850400,0.421850341796875,0.9787398187041282,-1.1147814433097838,0.6706260556906462
1783245704147862500,0.431862548828125,0.8520587276399135,-1.1024024387300013,0.8707674466978758
1783245704157874400,0.44187451171875,0.7804547961533069,-1.1314853253513575,0.9662143913909792
1783245704167886600,0.451886474609375,0.6277940451800823,-1.137487488375604,1.035676926934719
1783245704177898500,0.4618984375,0.4241933805644512,-1.160449554029107,0.9791193195410072
1783245704187910400,0.471910400390625,0.2145709714412689,-1.219939561612904,0.9366961090270429
1783245704197922600,0.481922607421875,0.15383271736204623,-1.25827250713855,0.8968054857306181
1783245704207934500,0.4919345703125,0.22410978415906427,-1.1984741642579435,0.8970054652821272
1783245704217946400,0.5019462890625,0.3253495599746704,-1.0983251062884927,0.9091440852347761
1783245704227958500,0.51195849609375,0.38164837030172344,-1.035794415834546,0.8261909306075423
1783245704237970400,0.521970458984375,0.519594367223978,-1.0276429658219217,0.6890913213815539
1783245704247983400,0.5319833984375,0.7347212189823389,-1.0333072751939296,0.5828646239988505
1783245704257995300,0.541995361328125,0.8821522526085376,-1.0176777443856,0.4892951270828023
1783245704268007200,0.552007080078125,0.9460843342930078,-1.0217103609025477,0.45837322499863803
1783245704278019300,0.562019287109375,0.9367045115292072,-1.0310299779117107,0.44544962868075816
1783245704288031200,0.57203125,0.7988648975908755,-1.0536243792966007,0.49250787858422845
1783245704298043400,0.58204345703125,0.686333327910304,-1.039144018523395,0.5653808801585808
1783245704308055300,0.59205517578125,0.6123427935481071,-0.9980889545574784,0.6056595529245212
1783245704318067200,0.602067138671875,0.4934703304082155,-0.9862406958535314,0.6119121105132624
1783245704328079400,0.612079345703125,0.3918997152030468,-0.9736746442690491,0.635909254835546
1783245704338091300,0.62209130859375,0.373739789134264,-0.9763862413153052,0.6280121449101715
1783245704348103200,0.632103271484375,0.3079296386182308,-1.0268860099747776,0.6005720570597797
1783245704358115300,0.642115234375,0.24879238999485967,-1.0376175396084786,0.6358363357298076
1783245704368127200,0.652127197265625,0.18644553167521952,-1.07367464915663,0.6965753204613924
1783245704378139400,0.662139404296875,0.04161211332678794,-1.1072601078942417,0.6972568729847669
1783245704388151300,0.6721513671875,-0.14158756829500196,-1.1319792463481426,0.6454287783309817
1783245704398163200,0.6821630859375,-0.37961014247238634,-1.1063216580003499,0.5533771751645952
1783245704408175400,0.69217529296875,-0.5912514902025461,-1.0873092067554593,0.38219738248661156
1783245704418187300,0.702187255859375,-0.7632102313637733,-1.0810834641084075,0.22213161595389247
1783245704428199200,0.71219921875,-0.8935340628445148,-1.0289987643450498,0.07235023807557299
1783245704438211300,0.72221142578125,-0.9809791220635176,-0.9277738938376306,-0.044786322916112835
1783245704448223200,0.73222314453125,-1.0805699616283178,-0.8848170879036188,-0.07422693693395703
1783245704458235400,0.7422353515625,-1.2578186258912085,-0.9302022900283337,-0.11939877030262723
1783245704468247300,0.752247314453125,-1.4903274050831794,-0.959094330252707,-0.11898056315686553
1783245704478259200,0.76225927734375,-1.7518144414782524,-0.8694505919456481,-0.05365962092988193
1783245704488271400,0.772271240234375,-2.0214976438105103,-0.6893705036491156,0.05350633006431162
1783245704498283300,0.782283203125,-2.2563778283089397,-0.4436369167029857,0.10025783383985981
1783245704508295400,0.79229541015625,-2.3759645771980282,-0.1409524852618575,0.10044707280164585
1783245704518307300,0.802307373046875,-2.4287071563482283,0.1424018072873354,0.019501385539304465
1783245704528319200,0.8123193359375,-2.3712568378984926,0.3233905348613858,-0.10085992791885509
1783245704538331400,0.822331298828125,-2.09279762391448,0.45032238581627604,-0.15666302715083583
1783245704548343300,0.83234326171875,-1.6725035888761282,0.6003554186344147,-0.17770681982655076
1783245704558355500,0.84235546875,-1.281822017291188,0.6482765689775347,-0.2116288901073858
1783245704568367400,0.852367431640625,-0.9250549902677535,0.5727101636007428,-0.3190800147185102
1783245704578379500,0.862379638671875,-0.5572282245695591,0.4074073731973767,-0.49452995899636293
1783245704588391400,0.872391357421875,-0.3055120560824871,0.32723961150497194,-0.6154661862656474
1783245704598403300,0.8824033203125,-0.15990531527400015,0.3858700796499848,-0.6490836475767194
1783245704608415500,0.89241552734375,-0.09112696260213851,0.5046466811999678,-0.5954133225897327
1783245704618427400,0.902427490234375,-0.052393619582056995,0.6130474346861243,-0.49873712836261835
1783245704628439600,0.912439453125,0.014855039304494857,0.6853805572301149,-0.39827593570407477
1783245704638451500,0.922451416015625,0.02797697120606899,0.7234089668512343,-0.35383846275825054
1783245704648463400,0.93246337890625,-0.07636895393133163,0.7421721195101737,-0.35967432930488136
1783245704658475500,0.9424755859375,-0.13278349959254265,0.8029325854212045,-0.31874018830489365
1783245704668487400,0.9524873046875,-0.11837035883665084,0.8956091155529021,-0.2440932723931968
1783245704678499600,0.96249951171875,-0.11433131257891654,0.9634422963291406,-0.17287636746279894
1783245704688511500,0.972511474609375,-0.10523322936594486,0.9395482105225325,-0.11984309827033429
1783245704698523400,0.9825234375,-0.1138496665418148,0.9097492845863103,-0.05140278191380202
1783245704708535600,0.99253564453125,-0.08673018894791602,0.9311007001727819,0.031358649533614516
1783245704718547500,1.00254736328125,-0.03185761203169823,1.0276906043559313,0.1295489381181076
1783245704728559600,1.0125595703125,-0.06068097093403339,1.0780693769842387,0.15330288480166346
1783245704738571500,1.022571533203125,-0.14331307691335676,1.0422188959240912,0.14378734336160123
1783245704748583400,1.03258349609375,-0.18720190300047396,1.026214102062583,0.1554325537741184
1783245704758595600,1.042595703125,-0.19186521863639353,1.0621014080017805,0.1859074427431449
1783245704768607500,1.052607421875,-0.2112637465894222,1.1388643296867609,0.19105938214622437
1783245704778619400,1.062619384765625,-0.216510415071249,1.1886819613009691,0.13019790354613214
1783245704788631600,1.072631591796875,-0.2580968094348907,1.191697509729862,0.04246639206856489
1783245704798643500,1.0826435546875,-0.2668903567433357,1.1800818907380104,-0.0247210746826604
1783245704808655600,1.092655517578125,-0.10695406180918215,1.2184177588731049,-0.04530797217004001
1783245704818667500,1.10266748046875,0.09880874927639961,1.2437047603428364,-0.05100574542023241
1783245704828679400,1.112679443359375,0.3303939838826656,1.189815933766961,-0.11576762899234891
1783245704838691600,1.122691650390625,0.5571230106294155,1.0784195055961607,-0.23248748067561537
1783245704848703500,1.132703369140625,0.7986082924813032,0.9845867911666631,-0.31374574101846664
1783245704858715400,1.14271533203125,1.0527005424499511,0.9022288259536028,-0.36631475370004773
1783245704868727600,1.1527275390625,1.294957393196225,0.8300129000484943,-0.3747804207609966
1783245704878739500,1.162739501953125,1.4684762232810258,0.7255027242600918,-0.39101051127836106
1783245704888751600,1.172751708984375,1.5529975040078163,0.5634931301832199,-0.5029729027688503
1783245704898763500,1.182763427734375,1.5099597417920827,0.3428255954325199,-0.6255168940283358
1783245704908775400,1.192775390625,1.4556839617252348,0.18301497270464895,-0.6763511553391813
1783245704918787600,1.20278759765625,1.4047773658305405,0.12828794173896313,-0.6312255539987236
1783245704928799500,1.212799560546875,1.3599521356761455,0.04277063571214676,-0.5980893733985722
1783245704938811400,1.222811279296875,1.248744508075714,-0.1303717622756958,-0.6481329227231443
1783245704948823600,1.232823486328125,1.1630167741686106,-0.3455348543912172,-0.7285317897576838
1783245704958835500,1.24283544921875,1.089094628867507,-0.5171750311225652,-0.7689718636304139
1783245704968848100,1.25284814453125,0.9681459439754485,-0.6521487342357635,-0.7382330264955759
1783245704978860300,1.2628603515625,0.8112883258342742,-0.7604144631654024,-0.7290425888240337
1783245704988872200,1.2728720703125,0.6155670162916184,-0.8206523665070533,-0.7043318528722972
1783245704998884000,1.282884033203125,0.4877917002499103,-0.894566913023591,-0.643517537882179
1783245705008896300,1.292896240234375,0.37446459627747536,-0.9514455690652132,-0.5581609388424084
1783245705018908200,1.302908203125,0.23813597142398357,-1.0576315691113471,-0.4814679040558636
1783245705028920000,1.312920166015625,0.12762918556928635,-1.1412006636798382,-0.47684177862517535
1783245705038932200,1.32293212890625,0.05042670342326164,-1.197246376028657,-0.45885366545934225
1783245705048944000,1.332944091796875,0.008945522999763488,-1.1959160042077301,-0.44901773295849556
1783245705058956000,1.3429560546875,0.05518997230231762,-1.0946201142907142,-0.44139490992985664
1783245705068968200,1.35296826171875,0.07463467748463154,-1.030689786171913,-0.4755597759906202
1783245705078980000,1.36297998046875,0.07785714666247368,-1.0274585491657255,-0.5795389501748606
1783245705088992300,1.3729921875,0.09057985011339187,-0.9978034156143665,-0.6556712823387235
1783245705099004200,1.383004150390625,0.04113748155236244,-0.9450976613432168,-0.7007536290593445
1783245705109016000,1.39301611328125,-0.05090250424146652,-0.8794465007811785,-0.7874480160415173
1783245705119028200,1.4030283203125,-0.10998831493854522,-0.8320634028375148,-0.942195510160923
1783245705129040100,1.4130400390625,-0.22679975389540194,-0.8464619305461645,-1.100563386734575
1783245705139052000,1.423052001953125,-0.34111177725195885,-0.8624480197072029,-1.2302644101418554
1783245705149064200,1.433064208984375,-0.5208464131116867,-0.8895119677215814,-1.2606263767883181
1783245705159076000,1.443076171875,-0.6872656403243541,-0.8913485354989766,-1.1844573293432592
1783245705169088300,1.453088134765625,-0.94430855679214,-0.8753092548459768,-1.0576743122745305
1783245705179100200,1.46310009765625,-1.2031605685085058,-0.8120277460247278,-0.8567646403085439
1783245705189112000,1.473112060546875,-1.419551156592369,-0.7478688698470592,-0.6683606680419296
1783245705199124200,1.483124267578125,-1.5864245573133229,-0.7069277876496315,-0.4706443852897733
1783245705209136000,1.49313623046875,-1.679492132589221,-0.6048410396158694,-0.2765352236514911
1783245705219148000,1.50314794921875,-1.6640332821726798,-0.5632371095955372,-0.1912580465234816
1783245705229160200,1.51316015625,-1.4696218861848116,-0.6110182669460773,-0.24698950529135763
1783245705239172000,1.523172119140625,-1.1301350797861813,-0.6872820069372654,-0.40162199472896754
1783245705249184300,1.533184326171875,-0.7403226922512054,-0.6663941172093153,-0.5505063689686358
1783245705259196200,1.543196044921875,-0.382809230774641,-0.5665823283702135,-0.5842920995187014
1783245705269208300,1.553208251953125,-0.08578910870552063,-0.4965636202484369,-0.45804530821852385
1783245705279220200,1.56322021484375,0.13947685975134372,-0.5242980148702859,-0.27199220992699263
1783245705289232100,1.573232177734375,0.13557459161579608,-0.5148030412942171,-0.03392316625937819
1783245705299244300,1.583244384765625,-0.05815466732680797,-0.29740123034119603,0.22621778928898273
1783245705309256200,1.593256103515625,-0.4850765960723161,0.06559738454818725,0.4349428842462599
1783245705319268400,1.603268310546875,-0.9525146596014499,0.4807961422741413,0.547381076554954
1783245705329280300,1.6132802734375,-1.3162182078897953,0.8421832303136587,0.5832947590444236
1783245705339292200,1.623292236328125,-1.6213573390066622,1.1567869398683308,0.5243349858798086
1783245705349304300,1.63330419921875,-1.7294523875445127,1.4481711018770933,0.3885596109949052
1783245705359316200,1.643316162109375,-1.5853659881711004,1.7564491155415773,0.21222104731425642
1783245705369328400,1.653328369140625,-1.2535334959179163,1.9878414579242467,-0.08901391597092151
1783245705379340300,1.66334033203125,-0.7942343151807785,2.0451076519787312,-0.5064806186288595
1783245705389352400,1.6733525390625,-0.30145839677751063,1.9958523304224014,-0.9161657274998724
1783245705399364400,1.6833642578125,0.21628420509994029,1.877438132444024,-1.2974983098506927
1783245705409376300,1.693376220703125,0.7030319492548703,1.6255916155755519,-1.6255287794724105
1783245705419388400,1.703388427734375,1.1329694264292716,1.3600713781416416,-1.8798261966243386
1783245705429400300,1.713400390625,1.4169173009574412,1.0990607270866632,-2.006858000822365
1783245705439412500,1.72341259765625,1.5878560514211655,0.9074813396543264,-1.983931152612716
1783245705449424400,1.73342431640625,1.7163789709597825,0.7845341744214296,-1.7659182240240274
1783245705459436300,1.743436279296875,1.6909101831823588,0.6891817030787467,-1.4065420374155044
1783245705469448400,1.753448486328125,1.5490508122086524,0.5783545992285013,-1.0396395469553767
1783245705479460400,1.76346044921875,1.3392752583503722,0.4305155693233013,-0.711896735168621
1783245705489472300,1.77347216796875,1.0706634846419096,0.30603344960808754,-0.35932935179211195
1783245705499484400,1.783484375,0.824157159757614,0.2811170350164175,-0.0846122469458729
1783245705509496300,1.793496337890625,0.6052344228476285,0.2937438768774271,0.1469897926647216
1783245705519508500,1.803508544921875,0.4898246673822403,0.3454752331584692,0.35948709963709113
1783245705529520400,1.813520263671875,0.42637247816920276,0.3683265319138765,0.49065161972567434
1783245705539532300,1.8235322265625,0.4310089057981968,0.42307402114570136,0.4571102923907339
1783245705549544400,1.83354443359375,0.499590274593234,0.49826983964443206,0.2258207527954131
1783245705559556400,1.843556396484375,0.6110416478216648,0.49459611956775185,-0.21123298612497746
1783245705569568300,1.853568359375,0.8238502857655287,0.4812660978734493,-0.6741373517472297
1783245705579580400,1.863580322265625,1.0347112967729568,0.49981531552076336,-1.0685782028004527
1783245705589592300,1.87359228515625,1.1888678392618894,0.4363566965669393,-1.3989526051998138
1783245705599604500,1.8836044921875,1.2728326551496982,0.3220738993048668,-1.6407248872995375
1783245705609616400,1.893616455078125,1.3276754214495419,0.22045652234852312,-1.7824246837973594
1783245705619628300,1.903628173828125,1.2885691534638404,0.13770166677236556,-1.8268118147954344
1783245705629640400,1.913640380859375,1.1973147650897502,0.05768120459616184,-1.8309212959408758
1783245705639652400,1.92365234375,1.1164905853152274,-0.06262625978291034,-1.7711141852319239
1783245705649664300,1.933664306640625,1.0427058026582001,-0.14947043049931524,-1.628473016230762
1783245705659676400,1.943676513671875,0.9110428315281868,-0.25915362501144407,-1.4467214875906704
1783245705669688300,1.953688232421875,0.8203355556428432,-0.37186025899797676,-1.2247075066670774
1783245705679700500,1.963700439453125,0.7111240702956915,-0.40131899319440123,-0.9957957290537655
1783245705689712400,1.97371240234375,0.6483154396831989,-0.3794952839210629,-0.8234455043569207
1783245705699724300,1.983724365234375,0.5775409447580575,-0.37374797244071956,-0.6788596310287713
1783245705709736400,1.993736328125,0.4804828385412693,-0.404465766787529,-0.6577449468076229
1783245705719748400,2.003748291015625,0.42532384589910505,-0.4289966891929507,-0.688956516020745
1783245705729760300,2.01376025390625,0.3115910837352276,-0.4303367056250572,-0.7463695712000131
1783245705739772400,2.0237724609375,0.12924889572560785,-0.48463995822072026,-0.8339768352434038
1783245705749784300,2.033784423828125,-0.07881517803966999,-0.5646653888329863,-0.9193157159633933
1783245705759796500,2.04379638671875,-0.34075521889925003,-0.6668187723621726,-0.9627912850745022
1783245705769808400,2.053808349609375,-0.610032178518176,-0.6926198608338833,-0.9355684932366013
1783245705779820300,2.0638203125,-0.9094003250181675,-0.6514967000678181,-0.9056663991868495
1783245705789832400,2.07383251953125,-1.1920289336413143,-0.6005474340751766,-0.9044662296168505
1783245705799844400,2.08384423828125,-1.3171890987485646,-0.5510086194023489,-0.9317157633312046
1783245705809856300,2.093856201171875,-1.2174801857620476,-0.4991609432652592,-1.0265424572341144
1783245705819868400,2.103868408203125,-0.9356506185621023,-0.47847237550169225,-1.1216137004826217
1783245705829880300,2.11388037109375,-0.5270142880916595,-0.5102426015108823,-1.2322028308585284
1783245705839892200,2.123892333984375,-0.09089899906516075,-0.5867044944226741,-1.385442258502543
1783245705849904400,2.133904296875,0.3240191881537437,-0.6920952524378895,-1.501710092101991
1783245705859916300,2.143916259765625,0.6202455294966698,-0.826689893105626,-1.5800316414058209
1783245705869928400,2.153928466796875,0.7416086404085159,-0.9975529479846358,-1.635731316795945
1783245705879940400,2.1639404296875,0.7117255433201789,-1.1689771438777445,-1.6912655724912882
1783245705889952300,2.1739521484375,0.5104419234752655,-1.2297846638008951,-1.7455545043006537
1783245705899964400,2.18396435546875,0.14561083246171475,-1.194884907594323,-1.7678154359474778
1783245705909976300,2.193976318359375,-0.3104699707508087,-1.153864038158953,-1.7785750226318835
1783245705919988200,2.20398828125,-0.7150736847043037,-1.1026955764576791,-1.7464783411473035
1783245705930000400,2.21400048828125,-1.128915767124295,-0.9926742360323667,-1.6807573302194476
1783245705940012300,2.22401220703125,-1.5013514879226684,-0.8419485447749495,-1.5728186412870884
1783245705950024400,2.2340244140625,-1.7413871554881333,-0.6342290466636419,-1.4610855285078286
1783245705960035300,2.244035400390625,-1.851635582667589,-0.4413151957571506,-1.380446496041864
1783245705970047500,2.254047607421875,-1.8107576288342475,-0.36453532293736934,-1.3676587645307183
1783245705980059400,2.264059326171875,-1.4735533804148435,-0.40105128216892477,-1.4784844070762395
1783245705990071300,2.2740712890625,-0.9868839621931313,-0.5290191981732845,-1.6747678805463015
1783245706000083500,2.28408349609375,-0.5377881955623627,-0.6546048952162266,-1.8911045464858411
1783245706010095400,2.294095458984375,-0.17951251754164696,-0.7215367432385683,-2.1059695324376224
1783245706020107500,2.304107421875,0.03163257110416889,-0.7945669081360102,-2.3510370566904544
1783245706030119400,2.314119384765625,0.029180501776933668,-0.975821300908923,-2.5265096511915326
1783245706040131300,2.32413134765625,-0.2107715791583061,-1.1892848956301807,-2.5418077580884098
1783245706050143500,2.3341435546875,-0.739471043857932,-1.1242115349560975,-2.1742627319410444
1783245706060155400,2.3441552734375,-1.367768946906924,-0.6741106829360127,-1.5337202643468975
1783245706070167300,2.354167236328125,-1.9036241285800932,-0.11815700834691524,-0.9967467461682855
1783245706080179500,2.364179443359375,-2.2458318843752143,0.3897799465700984,-0.6738860803999006
1783245706090191400,2.37419140625,-2.323957911106944,0.723309013608098,-0.596639612981677
1783245706100203300,2.384203369140625,-2.1523113046348095,0.7840344082057475,-0.7524583895944058
1783245706110215400,2.39421533203125,-1.73855865406394,0.6182268831506371,-1.0660035300068558
1783245706120227300,2.404227294921875,-1.2388538131803273,0.48365036266148087,-1.355952544645965
1783245706130239500,2.414239501953125,-0.8350386192560195,0.5072627089172601,-1.5971040644988417
1783245706140251400,2.42425146484375,-0.5715799905270338,0.6245563784331083,-1.8092539462730288
1783245706150263300,2.43426318359375,-0.40383974384367466,0.6870996361076831,-2.0392209320276975
1783245706160275500,2.444275390625,-0.30852059024870393,0.6902654066622257,-2.227839131566882
1783245706170287400,2.454287353515625,-0.272210674983263,0.6324895095199347,-2.3773513553813097
1783245706180299300,2.46429931640625,-0.3838514333039522,0.49708267568647857,-2.5486604004621505
1783245706190311400,2.4743115234375,-0.5897568677306175,0.3257622324287891,-2.7017817546844483
1783245706200323300,2.4843232421875,-0.8606272340208292,0.2134212168842554,-2.775310516753793
1783245706210335500,2.49433544921875,-1.1746686335176229,0.21956395742297172,-2.5959490981206295
1783245706220347400,2.504347412109375,-1.5166086782872676,0.2329793193131685,-2.2094421818718315
1783245706230359300,2.514359375,-1.7144839509934187,0.22583763086497782,-1.7310129148595035
1783245706240371500,2.524371337890625,-1.7445459117799997,0.2257470299720764,-1.2732352446012198
1783245706250383400,2.53438330078125,-1.7133353654801844,0.2631301274269819,-0.8477353114828466
1783245706260395300,2.544395263671875,-1.6512532955765724,0.3323667452603578,-0.526982577779144
1783245706270407400,2.554407470703125,-1.455980314323306,0.41437867351472374,-0.26738340095728635
1783245706280419300,2.56441943359375,-1.156182544234395,0.5647282249361276,-0.07274725630283355
1783245706290431500,2.574431396484375,-0.8188964627504348,0.7180331190317869,0.005766600702702998
1783245706300443400,2.584443359375,-0.4659989706367254,0.7952934688448905,-0.07285904611423612
1783245706310455300,2.594455322265625,-0.10721242048442363,0.827227068722248,-0.2101835501372814
1783245706320467500,2.604467529296875,0.14564415020942686,0.833103851801157,-0.2841159245714545
1783245706330479400,2.614479248046875,0.2699357157886028,0.8812748852521181,-0.19394655495509505
1783245706340491300,2.6244912109375,0.43964054054319857,1.0482423939973116,-0.00017696400210261343
1783245706350503400,2.63450341796875,0.5919762973457574,1.2339859148830175,0.15368512558490038
1783245706360516400,2.644516357421875,0.8366928162038326,1.3928975429445505,0.2090257584042847
1783245706370528500,2.654528564453125,1.0470300955981016,1.4580050981491803,0.06949117711633443
1783245706380539400,2.664539306640625,1.2338064666628836,1.370193543705344,-0.19507950450778005
1783245706390552300,2.67455224609375,1.3975339705735443,1.1341799712628124,-0.45933629787713287
1783245706400564500,2.684564453125,1.4728151292681693,0.8404436931699514,-0.5926305234707892
1783245706410576400,2.694576416015625,1.5667401981562374,0.5892647002995014,-0.5685334624379873
1783245706420588500,2.704588623046875,1.6580150447964668,0.4368687377423048,-0.44082945806682106
1783245706430600400,2.714600341796875,1.7089216406911611,0.33127076671719546,-0.27612960199266673
1783245706440612400,2.7246123046875,1.678913455918431,0.20936638853549955,-0.11029095114693045
1783245706450624500,2.73462451171875,1.583990608164668,0.08314356263279915,0.08334113103151321
1783245706460636400,2.744636474609375,1.5006225891262293,-0.011501052701473235,0.1847575785882771
1783245706470648300,2.7546484375,1.4213444697499273,-0.11163725118935107,0.23433190296590325
1783245706480660500,2.764660400390625,1.2614543520450592,-0.20878362021148203,0.19848653647229075
1783245706490672400,2.77467236328125,1.0371996064573525,-0.24078502462804316,0.08143938906341791
1783245706500684500,2.7846845703125,0.7954881146341561,-0.15569149697124957,-0.002153817033022642
1783245706510696400,2.794696533203125,0.5438444268614053,-0.055636547026038166,-0.04264423285350203
1783245706520708400,2.804708251953125,0.3709112877100706,0.009565116202831268,-0.12119023856297134
1783245706530720500,2.814720458984375,0.24072131174206732,0.004752162963151931,-0.22940007258690892
1783245706540732400,2.824732421875,0.07502513810694217,-0.04308920014202595,-0.40604697156436736
1783245706550744300,2.834744384765625,-0.0006488192975521087,-0.11337561928927897,-0.5536781308725476
1783245706560756500,2.844756591796875,-0.08316168281137942,-0.12213994050323962,-0.6692409580077976
1783245706570768400,2.854768310546875,-0.21329203754663467,-0.062083238947391504,-0.6793217686478048
1783245706580780500,2.864780517578125,-0.3651549161404371,0.03196633310317993,-0.5896311224590987
1783245706590792400,2.87479248046875,-0.45322658282518385,0.07802431992292404,-0.5242999876316636
1783245706600804400,2.884804443359375,-0.4047328932911157,-0.04767769697606563,-0.5500217272568494
1783245706610816500,2.89481640625,-0.29030338103473186,-0.2807879491925239,-0.6317483357638121
1783245706620828400,2.904828369140625,-0.1513029066234827,-0.5005722713679075,-0.64549957854487
1783245706630840300,2.91484033203125,-0.06945230641067028,-0.6546633474051952,-0.6030245647784322
1783245706640852500,2.9248525390625,-0.05445581280887127,-0.8643675895929336,-0.49854113086648283
1783245706650864400,2.934864501953125,-0.17539280726313589,-1.1452098993211983,-0.2971976705931127
1783245706660876300,2.944876220703125,-0.5011719908267259,-1.3832295508891344,0.07271700729504227
1783245706670888400,2.954888427734375,-0.8699760771244763,-1.4588660988926887,0.5776961353197694
1783245706680900400,2.964900390625,-1.1523737996011971,-1.281442078062892,1.104140368438512
1783245706690912500,2.97491259765625,-1.365070209342241,-0.9565247720256447,1.4768005456425248
1783245706700924400,2.98492431640625,-1.733909366953373,-0.7498027605190872,1.5713400931671262
1783245706710936300,2.994936279296875,-2.156303004619479,-0.6580547434091567,1.542822439213097
1783245706720948500,3.004948486328125,-2.382128945046663,-0.4939329794839024,1.4940478869110345
1783245706730960400,3.01496044921875,-2.589520234116912,-0.23426965138465164,1.5061615185528994
1783245706740972300,3.02497216796875,-2.7052351100087164,0.16813479895889757,1.5872149770386517
1783245706750984400,3.034984375,-2.57288707922399,0.7241647536545992,1.736589107556641
1783245706760996400,3.044996337890625,-2.2811089494615793,1.1947697567820548,1.8410095592349767
1783245706771008500,3.055008544921875,-1.8292372883766888,1.3538719389796257,1.8027844579979777
1783245706781020400,3.0650205078125,-1.2450211036384105,1.2446952326849101,1.6207810004234313
1783245706791032300,3.0750322265625,-0.7232441316783428,0.9744584881231189,1.3522932914860546
1783245706801044500,3.08504443359375,-0.2124099940150976,0.8180351697459817,1.1689871538151055
1783245706811056400,3.095056396484375,0.1611485933333635,0.7858005410954356,1.0794190380275248
1783245706821068300,3.105068359375,0.46927346226274963,0.7769125935018062,1.0967719585623592
1783245706831080400,3.11508056640625,0.7699456770986318,0.712049952968955,1.1883085979439318
1783245706841092400,3.12509228515625,0.9535422490835189,0.6220908651024103,1.3878379214674235
1783245706851104500,3.1351044921875,1.062585392126441,0.5370879383385181,1.6167331863373517
1783245706861116400,3.145116455078125,1.1160019250154494,0.4685930787831545,1.7966387948498128
1783245706871128300,3.15512841796875,1.174910625579953,0.3556909222245216,1.8727723325900731
1783245706881140500,3.165140380859375,1.1688929727256296,0.20578969909250736,1.8673162591412662
1783245706891152400,3.17515234375,1.06027477709651,0.08711948052644729,1.8299770008280871
1783245706901164300,3.185164306640625,0.813502494752407,0.03953413800895214,1.7435053166858852
1783245706911176400,3.195176513671875,0.5564572401970624,0.13342705819308756,1.6330378399282692
1783245706921188400,3.205188232421875,0.3663286360949278,0.37027182076275345,1.5114803754881023
1783245706931200500,3.215200439453125,0.29503917738497254,0.6459370201140642,1.3882954559765754
1783245706941212400,3.22521240234375,0.3614952245891094,0.925587489709258,1.2114884710665792
1783245706951224300,3.235224365234375,0.5506769032299518,1.1717729120761156,1.0112287874419241
1783245706961237000,3.245237060546875,0.8163824341028928,1.331314070212841,0.753612162739411
1783245706971249200,3.255249267578125,1.1521464205861092,1.4332786531716584,0.43321343010514973
1783245706981261000,3.265260986328125,1.4852543396025895,1.4100848245888948,0.12787716898098586
1783245706991273200,3.275273193359375,1.7610042946279048,1.3080962762326,-0.131477750756219
1783245707001285000,3.28528515625,1.9540210213869809,1.080256073373556,-0.2987671118669212
1783245707011297000,3.295297119140625,2.059765122884512,0.7511749256551266,-0.46036739449054
1783245707021309200,3.30530908203125,2.0645213775008915,0.40404432650506494,-0.5180013989441097
1783245707031321000,3.315321044921875,1.9418395852059125,0.19930559777021406,-0.4219908290188759
1783245707041333000,3.3253330078125,1.6897130823522806,0.151899118950963,-0.16768369419053195
1783245707051345200,3.33534521484375,1.43478613512516,0.1004559319615364,0.17225589747689662
1783245707061357000,3.345357177734375,1.2305524333029985,0.00017009586989879608,0.4594268987700343
1783245707071369200,3.355369140625,1.192622807881236,-0.1330243226110935,0.6877608764953911
1783245707081381000,3.365381103515625,1.1907827329725027,-0.20968378392159936,0.8621359580833464
1783245707091393000,3.37539306640625,1.2177081492990254,-0.31670681931376454,1.0084548657491803
1783245707101405200,3.3854052734375,1.1977455577224492,-0.5057330151319503,1.0426116215687244
1783245707111417000,3.3954169921875,0.9901666371256113,-0.8166437153875827,0.9401787635110318
1783245707121429000,3.405428955078125,0.7847522010862826,-1.1362643763214348,0.8095405323188751
1783245707131441200,3.415441162109375,0.6082423724919557,-1.309198684516549,0.634462343962863
1783245707141453000,3.425453125,0.3828676829636097,-1.308400812137127,0.44625513637736436
1783245707151465000,3.43546484375,0.0909574512541294,-1.2401812623918056,0.2609212922710925
1783245707161477000,3.44547705078125,-0.10820084699988365,-1.2432014869958161,-0.054813868998922405
1783245707171489000,3.455489013671875,-0.3004758154809475,-1.3909136756509541,-0.38592630334924904
1783245707181501200,3.465501220703125,-0.5925660799324513,-1.620515042963624,-0.7135392416786402
1783245707191513000,3.47551318359375,-0.9379717549860477,-1.7978689211666583,-0.9585594927236437
1783245707201525000,3.48552490234375,-1.3720669363617897,-1.86496852697134,-1.0402801829464734
1783245707211537200,3.495537109375,-1.9363848269313573,-1.8014906187951563,-0.8815670000664889
1783245707221549000,3.505549072265625,-2.5629589749276636,-1.5751631585866213,-0.5479544559961185
1783245707231561000,3.51556103515625,-2.8921815769433974,-1.1866261978149413,-0.19712997076418248
1783245707241573000,3.525572998046875,-2.8622926346361637,-0.8790174617141485,-0.0030883579367771744
1783245707251585000,3.5355849609375,-2.532327689820528,-0.7515624636679887,-0.04755038080196827
1783245707261597200,3.54559716796875,-2.122966552206874,-0.6943792717218399,-0.18099066380281
1783245707271609000,3.555609130859375,-1.6259768155008554,-0.6706494365662335,-0.33942959631867703
1783245707281621000,3.56562109375,-1.0622089600294828,-0.8434908057808875,-0.6306956849057227
1783245707291633200,3.575633056640625,-0.5589759450197219,-1.0082412229984998,-0.854710849583894
1783245707301645000,3.58564501953125,-0.19152561141848562,-1.0103022471815346,-0.9065185590367764
1783245707311657000,3.595656982421875,0.07123100652098656,-0.8565829270660876,-0.8369283054601401
1783245707321669000,3.605669189453125,0.20371932255923747,-0.6797136175096035,-0.7043899397350847
1783245707331681000,3.615680908203125,0.19637948119044302,-0.4972369894653558,-0.588646604933776
1783245707341693200,3.625693115234375,0.03391863621473312,-0.31743980976343156,-0.4569175097649917
1783245707351705000,3.635705078125,-0.2341694058805704,-0.09304594796597956,-0.2785229451362975
1783245707361717000,3.645717041015625,-0.5441460401564836,0.14425532619953155,-0.1981952253755182
1783245707371729200,3.655729248046875,-0.8609767781108617,0.3264168969452381,-0.1898492026388645
1783245707381741000,3.665740966796875,-0.9946481664538382,0.5459124653071165,-0.17027913577752188
1783245707391753000,3.6757529296875,-0.9019348114430904,0.7132739418059587,-0.15638517832383514
1783245707401765000,3.68576513671875,-0.545585133048892,0.6877665755838155,-0.17507793262768537
1783245707411777000,3.695777099609375,-0.13672726878225802,0.44658056893944736,-0.26818123680409045
1783245707421789200,3.7057890625,0.225891406878829,0.12002572482824325,-0.4379628165893256
1783245707431801000,3.715801025390625,0.47670332000255583,-0.1227858371913433,-0.5784599227664992
1783245707441813000,3.72581298828125,0.617220044195652,-0.2890197709649801,-0.6258817087527364
1783245707451825200,3.7358251953125,0.6214280172795057,-0.3898416136294603,-0.5818301298519596
1783245707461837000,3.745837158203125,0.5178963311344384,-0.38392683662772176,-0.3491728821000084
1783245707471849000,3.755848876953125,0.4251128334969282,-0.2568178755402565,0.011189319871179758
1783245707481861000,3.765861083984375,0.3512286821186542,0.013690087178349495,0.3580735795773566
1783245707491873000,3.775873046875,0.3189735952019691,0.30583705025315283,0.6634861208081245
1783245707501885000,3.785885009765625,0.3047533466696739,0.5370329932808876,0.9759243228919804
1783245707511897000,3.79589697265625,0.3496054648309946,0.6154419286072254,1.212890666014701
1783245707521909000,3.805908935546875,0.4995394211888313,0.6004278993487357,1.3346034671470521
1783245707531921200,3.815921142578125,0.6422013407170772,0.43902679255902766,1.2159342714942991
1783245707541933000,3.82593310546875,0.6916799496352672,0.046000119152665137,0.841333554681763
1783245707551945000,3.835945068359375,0.6891857947319746,-0.3191968825638294,0.4794620441261679
1783245707561957000,3.84595703125,0.5919535009920597,-0.30858488765656944,0.3713561819333583
1783245707571969000,3.855968994140625,0.534374587726593,-0.02694879720211029,0.5051232126705348
1783245707581981000,3.86598095703125,0.5492986006140709,0.33703707515895365,0.6749618929378688
1783245707591993000,3.8759931640625,0.6691670890539884,0.5908885021090508,0.775563663110882
1783245707602005000,3.8860048828125,0.7447182968616485,0.662034168434143,0.8089285379003733
1783245707612017200,3.89601708984375,0.7047194639503955,0.6187894854694604,0.8260022031024098
1783245707622029000,3.906029052734375,0.5614917272329331,0.49371115342676636,0.7679005811370909
1783245707632041000,3.916041015625,0.3475520394325256,0.3023258272618055,0.6118746645797044
1783245707642053000,3.92605322265625,-0.033543373161554334,0.1421188986927271,0.34014260342624036
1783245707652065000,3.93606494140625,-0.6560165155798197,0.05027355868816375,0.013945194450579583
1783245707662077000,3.946076904296875,-1.1588970638900995,0.18380816890895366,-0.18696405739029867
1783245707672089000,3.956089111328125,-1.4609867443084716,0.4760509935736656,-0.29345943391285834
1783245707682101000,3.96610107421875,-1.5692437054097652,0.808103266057372,-0.3272364696998149
1783245707692113200,3.976113037109375,-1.6043939292460678,1.062152845928073,-0.21750097874486818
1783245707702125000,3.986125,-1.339622464352846,1.2450018144160508,-0.1061479147917591
1783245707712137000,3.996136962890625,-0.9374977077335118,1.3804922348797322,-0.10194625271768308
1783245707722149000,4.006149169921875,-0.6692109281957149,1.3894319126605987,-0.19124915083097294
1783245707732161000,4.0161611328125,-0.4815186113297939,1.315897889894247,-0.35397988052293655
1783245707742173000,4.0261728515625,-0.34032150365710256,1.2906500513911245,-0.48157633286640045
1783245707752185000,4.03618505859375,-0.2744242593795061,1.3978344148248434,-0.4849223553586751
1783245707762197000,4.046197021484375,-0.2550742467433214,1.5872849735349417,-0.4078828817546367
1783245707772209200,4.056209228515625,-0.2068108588337898,1.7581284469306468,-0.3568939413387328
1783245707782221000,4.066220947265625,-0.04453004660010337,1.892677202630043,-0.32212730999253686
1783245707792233000,4.07623291015625,0.09954816946685313,1.9893150376081465,-0.36360396037139
1783245707802245000,4.0862451171875,0.23213760779201983,1.9976696089774368,-0.4015462991442531
1783245707812257000,4.096257080078125,0.3755161511570215,1.998872555026412,-0.4829666912462562
1783245707822269000,4.10626904296875,0.41004736631214617,1.9480746802031992,-0.5728708340551704
1783245707832281000,4.116281005859375,0.2605903798162937,1.9011632914245127,-0.6663008129026741
1783245707842293000,4.12629296875,-0.010327332746982575,1.9173942952573297,-0.6845882378086448
1783245707852305200,4.13630517578125,-0.32631402109265323,2.038117354699969,-0.5699975071085617
1783245707862317000,4.146317138671875,-0.4832493806451559,2.1715257081925867,-0.36768954918459057
1783245707872329000,4.156328857421875,-0.45111412071585655,2.369420854642987,-0.0616511676730588
1783245707882341000,4.166341064453125,-0.2296159803599119,2.622221311235428,0.2533115844523534
1783245707892353000,4.17635302734375,0.05462298606932163,2.630714414292574,0.2832984341761097
1783245707902365000,4.186364990234375,0.4042793043047189,2.2834061204880474,0.07143716008495539
1783245707912377000,4.196377197265625,0.8214426401019096,1.8820149388402698,-0.07561674732454121
1783245707922389000,4.206388916015625,1.121258530369401,1.53905899502635,-0.09530965511426329
1783245707932401000,4.21640087890625,1.1365221504747867,1.2085194651931523,0.05204889779761433
1783245707942413000,4.2264130859375,0.8838082031220197,0.9508440960407256,0.41489696176778523
1783245707952425200,4.23642529296875,0.3617302023887634,0.7537918301552534,0.8516464205119758
1783245707962437000,4.24643701171875,-0.38787586651444433,0.47924774378836155,1.0926124277301132
1783245707972449000,4.256448974609375,-1.3231909695118664,0.1709872657805681,1.2170035081610082
1783245707982461200,4.266461181640625,-2.2306641258597373,0.016935352709889412,1.2373238271340727
1783245707992473000,4.27647314453125,-2.9993279464542866,-0.042322307422757145,1.1647433057002723
1783245708002485000,4.286485107421875,-3.4257553696811196,-0.016542554000020027,0.9890263810493052
1783245708012497200,4.2964970703125,-3.4012118800550697,0.0972404770463705,0.8204818322457372
1783245708022509000,4.306509033203125,-3.153195150607824,0.22164134821891784,0.6013680662756785
1783245708032521200,4.316521240234375,-2.684080678299069,0.24288871890902516,0.36944074023347345
1783245708042533000,4.326533203125,-2.072521728605032,0.11433891136348247,0.13142382861189544
1783245708052545000,4.336544921875,-1.3898083447575569,-0.21538813304305077,0.0020054946035146714
1783245708062557200,4.34655712890625,-0.73257427008152,-0.5898199960947036,0.0482897644598037
1783245708072569000,4.356569091796875,-0.38798809471726414,-0.9296890798091888,0.17930523146651683
1783245708082581000,4.3665810546875,-0.37080373568236824,-1.2125900756329298,0.29038483050679786
1783245708092593200,4.37659326171875,-0.5030617500960827,-1.4134154303163289,0.3439233275413513
1783245708102605000,4.38660498046875,-0.6482195780932903,-1.4493173493027687,0.38430136902853845
1783245708112617200,4.3966171875,-0.844071820539236,-1.3672288486808537,0.39802079189922657
1783245708122629000,4.406629150390625,-1.0801251404702663,-1.2106003631204365,0.3792175994908437
1783245708132641000,4.41664111328125,-1.1964373977333307,-1.038895888981223,0.29462659626239907
1783245708142653200,4.426653076171875,-1.205493395370245,-0.8996195202380418,0.2409266798547469
1783245708152665000,4.4366650390625,-1.1341519142121075,-0.7818664165169,0.218985974871926
1783245708162677000,4.446677001953125,-0.9659738606333732,-0.6583195318251848,0.17685634047705678
1783245708172689200,4.456689208984375,-0.8515864339530468,-0.6901303821057081,0.061898977554822335
1783245708182701000,4.466701171875,-0.8209574869334697,-0.783393772214651,-0.14379296025163493
1783245708192713000,4.476712890625,-0.7564525737971067,-0.7436398539751767,-0.17777179308785124
1783245708202725000,4.48672509765625,-0.7741559882700443,-0.5353250203192234,0.049651590864919125
1783245708212737000,4.496737060546875,-0.5685375540912151,-0.24831483561098575,0.40842086108885706
1783245708222749200,4.506749267578125,-0.04206511779129505,-0.003450432714819908,0.808019387166202
1783245708232761000,4.516760986328125,0.5783697967976331,0.0900643018066883,1.0289010761242359
1783245708242773000,4.52677294921875,1.376512809854746,-0.04672901794910431,0.9719768273752182
1783245708252785200,4.53678515625,2.161502911350131,-0.3040647798836231,0.8247245113167911
1783245708262797000,4.546797119140625,2.843029715761542,-0.6068757603138685,0.7008752826776355
1783245708272809000,4.55680908203125,3.2751416143655776,-0.9855734641164541,0.5485335345257073
1783245708282821000,4.566821044921875,3.2868279605060815,-1.7040087342083454,0.35968897888474166
1783245708292833000,4.5768330078125,2.8461487245649097,-2.3683248760998246,0.2694063946848735
1783245708302845200,4.58684521484375,2.1088532711803913,-2.4892040028870106,0.43426874784436076
1783245708312857000,4.596857177734375,1.206660685583949,-2.1500357609182594,0.7356234285190701
1783245708322869000,4.606868896484375,0.49689504415988917,-1.742268029975891,0.9916897550396621
1783245708332881200,4.616881103515625,0.3275836026370525,-1.3513807066857815,1.1514218326386063
1783245708342893000,4.62689306640625,0.44110652144253254,-1.0784411329060792,1.2690998983621598
1783245708352905000,4.636905029296875,0.8340361642152071,-0.883768455633521,1.278497256782651
1783245708362917000,4.646917236328125,1.4923089342892168,-0.8445908759772777,1.1412455257348715
1783245708372929000,4.656928955078125,2.0465414841741323,-1.0269055914580822,0.8071022723212837
1783245708382941200,4.666941162109375,1.9943343270748852,-1.5288322000443935,0.2490223080269061
1783245708392953000,4.676953125,1.408855575054884,-1.9660843841463327,-0.2526596233496442
1783245708402965000,4.686965087890625,0.6943284183174371,-2.0174188500642773,-0.46432161200903355
1783245708412977200,4.69697705078125,-0.11207330451905727,-1.5862386793524026,-0.45124790316335855
1783245708422989000,4.706989013671875,-0.9954092139542102,-0.9848176773130893,-0.36535708764903246
1783245708433001000,4.7170009765625,-1.426997965466976,-0.5499269616454839,-0.423673119550012
1783245708443013000,4.72701318359375,-1.5404624320834874,-0.3318307386875152,-0.6370641239590943
1783245708453025000,4.73702490234375,-1.6072154164075851,-0.34846623166799545,-0.9426143931601196
1783245708463037200,4.747037109375,-1.4785779305785893,-0.3848211551189422,-1.1879799505114554
1783245708473049000,4.757049072265625,-0.9916974999547004,-0.31980595437288284,-1.2811246826767921
1783245708483061000,4.76706103515625,-0.35577275528907776,-0.1294692604780197,-1.2677847241103648
1783245708493073200,4.7770732421875,0.6540104364544153,0.18363047425448895,-1.3224008420474826
1783245708503085000,4.7870849609375,1.4699948111504315,0.38966450349688525,-1.6396403069332242
1783245708513097000,4.797096923828125,1.0682476556718348,-0.32386545889675616,-2.0524146139912305
1783245708523109000,4.807109130859375,1.0116782117098568,-0.7520528775334357,-1.787523322110623
1783245708533121000,4.81712109375,1.2447165677338838,-0.25943244195282456,-0.9237789059173315
1783245708543133000,4.8271328125,0.9733996267199516,0.7240010875254869,0.145117751715146
1783245708553145000,4.83714501953125,0.4257224898278713,1.674545908358693,0.8984307488448917
1783245708563157000,4.847156982421875,0.260815420743823,2.2831340255483985,1.2696151544079184
1783245708573169200,4.857169189453125,0.5058668706446886,2.4622905692592263,1.2386084601171314
1783245708583181000,4.86718115234375,0.7751502600044011,2.1717855281725527,1.0788064590871334
1783245708593193000,4.87719287109375,0.9859212546408176,1.6076397792994974,1.054265599809587
1783245708603205000,4.887205078125,1.3558330099195242,1.010588955168426,1.282773326666653
1783245708613217000,4.897217041015625,1.829774463993311,0.5643494547516107,1.546070481223613
1783245708623229000,4.90722900390625,2.0211907698184253,0.40600832005441184,1.6319462452992797
1783245708633241000,4.917240966796875,1.4382792379379272,0.569942160192132,1.5919908131383358
1783245708643253000,4.9272529296875,0.6830734493315219,0.9501903083071112,1.2160963301882146
1783245708653265200,4.93726513671875,0.15272037220597265,1.1747139339640735,0.3800719147652387
1783245708663277000,4.947277099609375,-0.47042380134165285,1.464005507607758,0.04515563115254044
1783245708673289000,4.9572890625,-8.531108670413493,3.20454598313868,1.989300278430432
1783245708683301000,4.967301025390625,-18.305006739890576,3.9013045512124895,1.2584870266720651
1783245708693313000,4.97731298828125,-2.2287784582436085,1.783309649938345,-1.8006959612861275
1783245708703325000,4.987324951171875,5.127212081319094,0.6902370573505758,1.0454763633500783
1783245708713337000,4.997337158203125,5.16339866246581,0.45609307817220685,0.10168079758137465
1783245708723349000,5.007348876953125,4.706778345549107,0.7607274746373295,-1.7090119493231177
1783245708733361200,5.017361083984375,3.165096016281843,2.054445973688364,-2.446455286745727
1783245708743373000,5.027373046875,3.3738024796038864,3.188188430316746,-2.8338085906907913
1783245708753385000,5.037385009765625,3.1438281873255964,3.177999921518564,-3.389571711143851
1783245708763397000,5.047397216796875,1.8998615611761807,2.3122975761905313,-1.8433165210030973
1783245708773409000,5.057408935546875,2.465534373486042,0.4536375017136335,3.779360425542295
1783245708783421000,5.0674208984375,4.318669839322567,-1.508562149953842,7.8100173328548665
1783245708793433000,5.07743310546875,4.441261030724644,-1.9417521991834044,6.22345015220046
1783245708803445000,5.087445068359375,2.1213427503973246,-0.5010504102736711,1.3742499794892966
1783245708813457200,5.09745703125,-1.1648556800335645,-0.9066843440577387,-2.7799381765544413
1783245708823469000,5.107468994140625,-3.270424522715807,-1.8267000249840317,-5.371556844255328
1783245708833481000,5.11748095703125,-2.50520587413907,-1.5190719996608792,-5.111864874583483
1783245708843493000,5.1274931640625,-0.870051480448246,-1.710093022558093,-3.0498572334691882
1783245708853505000,5.137505126953125,-0.1791881078928709,-1.9006551957719027,-1.7511930947095156
1783245708863517000,5.147516845703125,0.8009235836863517,-2.253196860185265,-2.167849065506458
1783245708873529000,5.157529052734375,1.783525338515639,-2.5980028157800437,-2.5731921996504066
1783245708883541000,5.167541015625,2.1468968783706424,-1.8117574535265564,-2.1883222369536757
1783245708893553200,5.17755322265625,2.7693828802704807,-0.8814676313452422,-1.1192059817537665
1783245708903565000,5.18756494140625,2.4303823960840703,-0.2490038407884538,0.04844488195627927
1783245708913577000,5.197576904296875,1.8245844941347837,0.08507160808593034,0.21658318804651497
1783245708923589000,5.207589111328125,1.6490706908404826,-0.21652035194337366,-0.25101971065551043
1783245708933601000,5.21760107421875,0.7488824308037757,-0.6890053235985338,-0.13018997596800327
1783245708943613000,5.227613037109375,-1.4929542464554308,-0.19012480470985174,0.2603387431427836
1783245708953625000,5.237625,0.5929290680259466,0.21896146148517726,0.9696189391374588
1783245708963637000,5.247636962890625,0.3915028248399496,0.852331991623342,0.7400307235673069
1783245708973649200,5.257649169921875,0.1912012017697096,0.5798275943905115,1.0158601735696196
1783245708983661000,5.2676611328125,0.571557194173336,0.8214373794049024,1.7720166870296001
1783245708993673000,5.2776728515625,1.3695885635495184,0.8560001587420701,2.1694228906944395
1783245709003685000,5.28768505859375,1.477129485335946,0.6633585489057005,2.387950636937469
1783245709013697000,5.297697021484375,0.36669571584165095,0.7056443237103521,2.4002225278809664
1783245709023709200,5.307709228515625,-0.10076748212873936,0.5778820132806897,2.095608297421038
1783245709033721000,5.31772119140625,-0.4869330375939607,0.597824877243489,1.7322615997463464
1783245709043733000,5.32773291015625,-1.5273603739261625,0.9246830882154404,1.4427251114308832
1783245709053745200,5.3377451171875,-2.0829741490364073,1.2741465142272412,1.3412798761710525
1783245709063757000,5.347757080078125,-2.1179501853495837,1.58380063855052,1.473142899917811
1783245709073769200,5.357769287109375,-2.1013684683829545,1.722452737915516,1.7812381043612957
1783245709083781000,5.367781005859375,-2.13462951747179,1.6725843990273772,1.898441757506132
1783245709093793000,5.37779296875,-2.2142121727526187,1.6338807204931973,1.8140265675023197
1783245709103805200,5.38780517578125,-2.4001363109022376,1.6436260155685245,1.5330905881412327
1783245709113817000,5.397817138671875,-2.574075412225723,1.7880004381030796,1.257073652742803
1783245709123829200,5.407829345703125,-2.591998022407293,1.9648900597952306,0.9881026172678917
1783245709133841200,5.417841064453125,-2.3747674763679503,2.0175623501881956,0.6118677964475006
1783245709143853000,5.42785302734375,-2.2530571594536304,1.9075474395036696,0.24209793385751543
1783245709153865200,5.437865234375,-2.1864298473358152,1.622414300713688,-0.12711020319648086
1783245709163877000,5.447877197265625,-2.0127298154652116,1.2073968909040094,-0.33046858348883684
1783245709173889000,5.457888916015625,-1.7520991036385296,0.7289594405852258,-0.3450833842966705
1783245709183901200,5.467901123046875,-1.5273825857579708,0.4713141743101179,-0.17571568254195152
1783245709193913000,5.4779130859375,-1.6627169388771057,0.5268003530800343,0.1148542404744774
1783245709203925200,5.48792529296875,-2.101252148526907,0.7926474843807518,0.2871969394519925
1783245709213937200,5.497937255859375,-2.335112342327833,1.1312240440666674,0.3390613475281745
1783245709223949000,5.507948974609375,-2.1600018591374157,1.379996560317278,0.2915965626504272
1783245709233961200,5.517961181640625,-1.7711019102722405,1.4416072133168578,0.2913826276388019
1783245709243973000,5.52797314453125,-1.4716700508862732,1.337208535078913,0.30888109412416814
1783245709253985000,5.537985107421875,-1.2259200973272324,1.134348605827987,0.3550039628736675
1783245709263997200,5.5479970703125,-1.1482681178480385,0.9063564272776246,0.3858269711606204
1783245709274009000,5.558009033203125,-1.0989596047997474,0.748606317276135,0.37442799059413373
1783245709284021000,5.56802099609375,-1.0502420433819293,0.8378902092948556,0.29678631331324573
1783245709294033200,5.578033203125,-1.0003747274070978,0.9660082743596285,0.15778766553290188
1783245709304045000,5.588045166015625,-0.8690408421009779,1.1552289698366076,0.06418656790219247
1783245709314057200,5.59805712890625,-0.6820593038529157,1.2630582801103591,0.1437535141572356
1783245709324069000,5.608069091796875,-0.5417863252878189,1.2295420872166751,0.21747407247163353
1783245709334081000,5.6180810546875,-0.3506067508280277,1.0379111887928099,0.24833850874751806
1783245709344093200,5.62809326171875,-0.24432605823576448,0.8171935312900692,0.24985797339975832
1783245709354105000,5.63810498046875,-0.056741293397545814,0.6180307760566472,0.2216159945819527
1783245709364117000,5.648116943359375,0.48677112503051756,0.6068775138795376,0.35797990994453427
1783245709374129200,5.658129150390625,1.0000210916638375,0.6923994230162351,0.6498499557740985
1783245709384141000,5.66814111328125,1.2805828308850526,0.7022454019870609,0.8177610289797186
1783245709394153200,5.6781533203125,1.278608900463581,0.5130665728904307,0.8098996479548514
1783245709404165000,5.6881650390625,1.2119342420727013,0.3206635210502893,0.7521684667371213
1783245709414177000,5.698177001953125,1.1786591644585132,0.3398514019273221,0.7510040991328656
1783245709424189200,5.708189208984375,1.092910387763381,0.4016562623247504,0.8395967940170317
1783245709434201000,5.718201171875,0.9985060109257697,0.33838184083141387,1.0832933221776038
1783245709444213000,5.728212890625,0.7659615758985281,0.15181874719113111,1.0239153966661543
1783245709454225200,5.73822509765625,0.6114069740027189,-0.05508556207977235,0.8972283142525702
1783245709464237000,5.748237060546875,0.5533300480872392,-0.3121644266437739,0.5980267199585214
1783245709474249200,5.758249267578125,0.6126905840724707,-0.5678079246424138,0.39306397320944814
1783245709484261000,5.76826123046875,0.7322995447933673,-0.7848191288426518,0.4613935592005029
1783245709494273000,5.77827294921875,0.665014645549655,-0.8570316206816584,0.5687206555731594
1783245709504285200,5.78828515625,0.6410282052844762,-0.800063167464733,0.7288130909170955
1783245709514297000,5.798297119140625,0.5517541770726442,-0.6601448475562036,0.8434896367371082
1783245709524309000,5.80830908203125,0.5602788443118334,-0.4732014493614435,0.8779127153426408
1783245709534321200,5.818321044921875,0.5504518623024225,-0.3258849089603871,0.9777671012144535
1783245709544333000,5.8283330078125,0.4650952997952699,-0.25234694067128,1.0403824012119323
1783245709554345200,5.83834521484375,0.3391916228443384,-0.3165060360446572,0.9715578713107853
1783245709564357000,5.848357177734375,0.2872814028650522,-0.4953131817959249,0.9057041008487343
1783245709574369000,5.858369140625,0.1420265442341566,-0.6814157452523708,0.8227361139785498
1783245709584381200,5.868381103515625,-0.08494798170626162,-0.7947412417896091,0.7401959971316159
1783245709594393000,5.87839306640625,-0.2845586999028921,-0.7850235653735697,0.6021073768682778
1783245709604405000,5.888405029296875,-0.2982043634176254,-0.7111644023060798,0.5375331248227506
1783245709614417200,5.898417236328125,-0.13484218568801878,-0.6025459144160151,0.6036722880974411
1783245709624429000,5.908428955078125,0.09640928691923618,-0.529015544911474,0.7231367257811129
1783245709634441000,5.91844091796875,0.32852702096700664,-0.46803749072700734,0.9116391899861395
1783245709644453000,5.928453125,0.3877420110017061,-0.28435777050331235,1.227744390144944
1783245709654465000,5.938465087890625,0.4410544989943504,-0.09971154333502054,1.1954686257664113
1783245709664477200,5.948477294921875,0.40477147173583505,0.0668209349937737,1.0559409856759012
1783245709674489000,5.958489013671875,0.19681670356392858,0.11878244676887989,1.0343868140589445
1783245709684501000,5.9685009765625,-0.003898176482319832,0.07130509467050433,1.0397550630938261
1783245709694513200,5.97851318359375,-0.11197744292914867,-0.03447086327001452,1.0554230992816387
1783245709704525000,5.988525146484375,-0.07229834349155426,-0.13259177641272543,0.9905629429668188
1783245709714537000,5.998536865234375,0.12795067260861395,-0.1637118679501116,0.9539329289015382
1783245709724549000,6.008549072265625,0.17012158886194229,-0.18322956530340015,0.8849879144258797
1783245709734561000,6.01856103515625,0.0512257448464632,-0.15905717401206493,0.8504055536054074
1783245709744572000,6.028572021484375,-0.07287234398722649,-0.16310732618570326,0.88026424690485
1783245709754585000,6.038585205078125,0.012162146958708762,-0.20342918050624428,0.8392417700342834
1783245709764597000,6.048596923828125,0.28681320083141326,-0.2512406599298119,0.9347778543155639
1783245709774609200,6.058609130859375,0.4082505460232496,-0.44832770486772056,1.060310505997017
1783245709784621000,6.06862109375,0.20933307078778743,-0.6101768476858734,1.0318518887538461
1783245709794633000,6.078633056640625,-0.3529740644812584,-1.5518100477889178,1.4705913157388566
1783245709804645000,6.08864501953125,-0.5094418065220118,-0.8207311308316886,0.9103833447061479
1783245709814657000,6.098656982421875,-0.6318541342258454,-0.01967639504633844,0.48453335604108866
1783245709824669200,6.108669189453125,-0.5360059883207082,0.11725231459215282,0.48066418645754455
1783245709834680000,6.11868017578125,-0.48400399840474123,0.2695988119844347,0.3547058567099273
1783245709844693000,6.12869287109375,-0.4437491449058056,0.32856048484519124,0.1437378051314503
1783245709854705200,6.138705078125,-0.6732207483589648,0.361285746556893,0.23215514344871044
1783245709864716000,6.148716064453125,-1.0603653779894113,0.30490977934040125,0.3384713457457721
1783245709874729000,6.15872900390625,-1.1793640978574753,0.12976612453274428,0.44785168485380705
1783245709884740000,6.168739990234375,-1.197542728626728,0.02829641241878271,0.6482051111765206
1783245709894753000,6.1787529296875,-0.9528776476949453,-0.041700960654020305,0.635644831745699
1783245709904765200,6.18876513671875,-0.8048024709463119,-0.11553813108541071,0.1798754325699061
1783245709914777000,6.198777099609375,-1.0200736996114252,-0.14033990632146595,0.0665117959793657
1783245709924789000,6.2087890625,-1.37822078281641,-0.15869301687479018,0.043772725426778195
1783245709934800000,6.2187998046875,-1.8899439782738685,-0.17755363855883477,0.0003283551715314388
1783245709944813000,6.22881298828125,-2.1050012719273568,-0.152077251996845,0.06447283749766647
1783245709954824400,6.238824462890625,-1.8775193809866904,0.032916619565337896,0.11152794559597969
1783245709964837600,6.248837646484375,-1.6000404102116823,0.49884661661908025,0.10931253456883132
1783245709974848500,6.2588486328125,-1.536742534777522,0.950442529502511,-0.19247202542312442
1783245709984860400,6.2688603515625,-1.587075130176544,1.068875724442303,-0.5316904632091521
1783245709994873600,6.27887353515625,-1.5648112759202717,1.0281482849955559,-0.46951852306500075
1783245710004884500,6.288884521484375,-1.608615930855274,0.8883725884281098,-0.3235935100875795
1783245710014896600,6.298896728515625,-1.5099802000582216,0.7566914971195161,-0.1341530343800783
1783245710024908500,6.308908447265625,-0.9932833078414202,0.8866448878526687,0.17727730583548545
1783245710034920400,6.31892041015625,-0.5028571674346923,1.1063106982149182,0.47086073145419355
1783245710044933600,6.32893359375,0.06220423497855663,1.4628949160173534,0.7995549256816505
1783245710054944500,6.338944580078125,0.6377005221664905,1.75984781806916,0.9827766730047762
1783245710064957700,6.348957763671875,1.034157170021534,1.859990738558769,1.0365800132542848
1783245710074968600,6.358968505859375,1.1398013182759283,1.8212676246717572,1.2896947964929044
1783245710084980500,6.36898046875,1.1391016455739735,1.7225246341079472,1.3206737259939312
1783245710094992400,6.378992431640625,1.0645271738439799,1.4075792715087532,1.169493276706338
1783245710105004500,6.389004638671875,0.11758066976368427,1.0235726476430893,0.8128617126308381
1783245710115016400,6.399016357421875,-0.05589782831072807,0.5444987991169095,0.6568024052605033
1783245710125028600,6.409028564453125,0.30626375123262406,0.1762947245389223,0.5416710283450782
1783245710135040500,6.41904052734375,0.34644846210479735,0.060763680781424044,0.5264730208218097
1783245710145052400,6.429052490234375,0.6231406664162874,0.04009644806683063,0.3493118887118995
1783245710155064600,6.439064697265625,0.9334808733075857,0.010398644417524337,0.18935718133822083
1783245710165076500,6.449076416015625,0.9470628239363431,-0.030838790377974507,0.1617486050531268
1783245710175088400,6.45908837890625,0.7946341281533241,-0.05772913539111614,0.15690335697904229
1783245710185101600,6.4691015625,0.4338724785357713,-0.07425035434216261,0.20788316424041986
1783245710195112400,6.479112548828125,-0.04768997193574905,-0.008587795603275298,0.0014683189868927
1783245710205124600,6.48912451171875,-0.11661854673326015,0.1510997852668166,-0.26834230911731716
1783245710215136500,6.499136474609375,-0.025928221982717513,0.3867430630922317,0.14349866261333227
1783245710225148400,6.5091484375,-0.45410278113782404,0.5196367450609803,0.07788724953979254
1783245710235160600,6.51916064453125,-1.0519932709634303,0.3868760418221354,-0.33318975208103657
1783245710245172500,6.52917236328125,-1.2220371184140444,0.17205606405586002,-0.40496041843667624
1783245710255184400,6.539184326171875,-0.9108470166951418,0.08460428283512592,-0.2292683359660208
1783245710265196500,6.549196533203125,-0.16399696850180626,0.13242021923810243,0.029072511357814072
1783245710275208400,6.55920849609375,0.5801502504736185,0.27502339431643485,0.42940132447108625
1783245710285220600,6.569220703125,0.983078140169382,0.500013760702312,0.6600927520427853
1783245710295232500,6.579232421875,1.2502905684739352,0.6848629630967974,0.8387859890908003
1783245710305244400,6.589244384765625,1.34856740283072,0.7792474661901593,0.8930459140013903
1783245710315256600,6.599256591796875,1.2333131301879883,0.7283189507246017,0.6888610928222537
1783245710325268500,6.6092685546875,0.8333949437022209,0.3467842699304223,0.5549626907903701
1783245710335280400,6.6192802734375,0.47754386247992514,0.03940554319322109,0.6091977735206484
1783245710345292500,6.62929248046875,0.5779734909564256,0.04486731573045254,0.6389306484833359
1783245710355304400,6.639304443359375,-2.3610312119603156,0.4646089775830507,-0.4775436432842165
1783245710365316600,6.649316650390625,-1.1374883651584387,0.69268182015419,-0.4725364095814526
1783245710375328500,6.65932861328125,0.6759580643683671,0.19350100314468144,0.30121435888856646
1783245710385340400,6.66934033203125,0.11779635834097861,-0.3663701371490955,-0.22940686765387652
1783245710395352600,6.6793525390625,0.9051169486105441,-0.6033508010581136,-0.17995529287308454
1783245710405364500,6.689364501953125,0.6807920603960752,-0.5421119039803743,0.15023038202114403
1783245710415376400,6.69937646484375,0.428003878763318,-0.3122033704146743,0.28306166627816853
1783245710425388500,6.709388427734375,0.37410686888098715,-0.07664572504609823,0.16738872983194886
1783245710435400400,6.719400390625,0.02922492544054985,0.26116905648708344,0.12318017027117312
1783245710445412400,6.729412353515625,-0.5631663824468851,1.0572136359602213,0.4728275745477527
1783245710455424500,6.739424560546875,-0.6117997727125882,1.3365768130466342,0.24704919958934188
1783245710465436400,6.7494365234375,-1.1705027460098265,1.0574722868964075,-0.4143789657756686
1783245710475448600,6.759448486328125,-0.5313473488599062,0.694931060385704,0.19566548770219086
1783245710485460500,6.76946044921875,-0.8431108665525913,0.3453261800765991,0.11555449769832193
1783245710495472400,6.779472412109375,-1.1662123553395272,0.23452947136461733,0.08863412287309766
1783245710505484500,6.789484619140625,-0.9410761507421731,0.3587076396971941,0.2142751668324694
1783245710515496400,6.799496337890625,-0.5640168617963791,0.5769435633867979,0.3270007977804169
1783245710525508400,6.80950830078125,-0.2166717431128025,0.7302052028626204,0.4326408909142017
1783245710535520500,6.8195205078125,0.0240858089864254,0.8308107724279165,0.4594369087073952
1783245710545532400,6.829532470703125,0.11193068117797374,0.7766831686601042,0.46704497255831956
1783245710555544600,6.839544677734375,0.17269056256711482,0.670657912133634,0.39901363886147734
1783245710565556500,6.849556396484375,0.09595160627961158,0.6865247588291764,0.05578793819546699
1783245710575568400,6.859568359375,-0.2581406485766172,0.7835586073875427,-0.52173064860031
1783245710585580500,6.86958056640625,-1.0326952807754277,0.6157780286937952,-1.1664461640954018
1783245710595592400,6.879592529296875,-1.6175041707098483,0.2078498464927077,-1.3605690985307097
1783245710605604400,6.889604248046875,-1.6686118421345948,-0.09379705859422684,-1.3910123137198387
1783245710615616500,6.899616455078125,-1.2467834371358155,-0.1836363194733858,-1.5575956454530357
1783245710625628400,6.90962841796875,-0.5213198758423329,0.037056934240460394,-1.4423511635519564
1783245710635640600,6.919640625,0.12921090180277825,0.38637598334550854,-1.1317570549648255
1783245710645652500,6.929652587890625,0.4216606472164392,0.7843211161926388,-0.6800685684271156
1783245710655664400,6.939664306640625,0.48001522102952,1.1038266263142227,0.02584929326130077
1783245710665676500,6.949676513671875,0.2775958751529455,1.2878802944168448,0.5850084310945123
1783245710675688400,6.9596884765625,-0.015236732098460196,1.3376657773271203,0.6243384978987276
1783245710685700400,6.969700439453125,-0.16786942602097987,1.3275760527282952,0.45620161658059805
1783245710695712500,6.97971240234375,-0.35100539475679393,1.3988044289007782,0.35393874479494986
1783245710705724400,6.989724365234375,-0.23682196621596813,1.4772837991148233,0.30980430991631
1783245710715736600,6.999736572265625,-0.2317640983045101,1.3169488602519035,0.06420550549810286
1783245710725748500,7.00974853515625,-0.13851006054580212,1.158623507645726,-0.4057696524603292
1783245710735760400,7.019760498046875,-0.3664893796145916,0.6969616894304752,-0.442133234141767
1783245710745772500,7.0297724609375,0.10469839183688164,0.7726654574513435,-0.17760863841539248
1783245710755784400,7.039784423828125,0.6343155559033155,0.9632704468935728,0.18462417973326517
1783245710765796400,7.04979638671875,0.5985702887833118,0.9232026403993367,0.24338905138028785
1783245710775808500,7.05980859375,0.5053863936513662,1.0262488811150192,0.2386284676486626
1783245710785820400,7.0698203125,0.412723892045021,1.1610492734879254,0.3249656021583825
1783245710795832300,7.079832275390625,0.20682313379347322,1.1050719502002,0.3679956194590777
1783245710805844500,7.089844482421875,-0.026653613647818562,0.9601768647924065,0.22246934174196795
1783245710815856400,7.0998564453125,-0.261069103243947,0.850269213874638,0.004788786912802607
1783245710825868500,7.10986865234375,-0.3270259687542915,0.802765704421699,-0.12280322671756147
1783245710835880400,7.11988037109375,-0.34484453403949733,0.781043994218111,-0.17830045660445465
1783245710845892400,7.129892333984375,-0.2710159122407436,0.7844511723130941,-0.149928165937867
1783245710855904500,7.139904541015625,-0.08485212011635303,0.8499562024027109,-0.018120014183502644
1783245710865916400,7.14991650390625,0.0007049333989620208,0.971459306307137,0.05585778856128454
1783245710875928300,7.15992822265625,-0.02875087818801403,1.0858312431573867,0.040384032836556435
1783245710885940500,7.1699404296875,-0.10599193877875804,0.9462029922366142,-0.07167385491766035
1783245710895952400,7.179952392578125,-0.056172553598880764,0.6748290603384375,-0.09318846170920878
1783245710905964500,7.189964599609375,0.0477402408182621,0.5344955837577581,-0.1623292544852942
1783245710915976400,7.1999765625,0.04210252719223499,0.5466860800281167,-0.1024373515697196
1783245710925988400,7.20998828125,-0.0807142896592617,0.5598062583640218,0.08122819399815052
1783245710936000500,7.22000048828125,-0.2556704590708017,0.5391624065250158,0.1602107279613614
1783245710946012400,7.230012451171875,-0.33285365199446676,0.5055217104688287,0.07115330164227635
1783245710956024300,7.2400244140625,-0.375970324665308,0.5214835419714451,0.054671355255693194
1783245710966036200,7.2500361328125,-0.3744669343650341,0.5795493619710207,0.13114658257309347
1783245710976048400,7.26004833984375,-0.34734862581491466,0.5505594143301248,0.18985555931441483
1783245710986060300,7.270060302734375,-0.2542149995654821,0.5292305028364062,0.2711537132762372
1783245710996072400,7.280072509765625,-0.07143208205103874,0.5000429867967963,0.30159422505162653
1783245711006084400,7.29008447265625,-0.003989361897110939,0.5016700034767388,0.3831000669473782
1783245711016096300,7.30009619140625,-0.0697258626550436,0.47992023622244595,0.4395641873713583
1783245711026108400,7.3101083984375,-0.1135579901188612,0.45452159107178447,0.4711723912192508
1783245711036120300,7.320120361328125,-0.21070085200965402,0.39925183153152466,0.47734779191855337
1783245711046132200,7.33013232421875,-0.3808013980835676,0.3496972347676754,0.4475299055535346
1783245711056144400,7.340144287109375,-0.6466314321190119,0.2390495791375637,0.25023820488899945
1783245711066156300,7.35015625,-0.724621849772334,0.11725567559301853,0.024494499385170638
1783245711076168400,7.36016845703125,-0.6234878724187612,0.11733692413568496,-0.0025384324364364145
1783245711086180400,7.370180419921875,-0.44014206032454967,0.09560819966942072,-0.007449293092638254
1783245711096192300,7.380192138671875,-0.2629015793681145,0.006777239049971104,-0.0439030738081783
1783245711106204400,7.390204345703125,-0.12427753705382347,-0.07893237467855214,-0.03153429836146533
1783245711116216300,7.40021630859375,-0.021862872239947317,-0.05605448017716407,-0.022799130176752804
1783245711126228200,7.410228271484375,0.04811959552466869,0.03770984519124031,-0.03531944292336702
1783245711136240400,7.420240478515625,0.0646890375316143,0.07926905928701163,-0.04872618311569094
1783245711146252300,7.430252197265625,-0.017430442750453946,0.05224339745640754,-0.08763272727821021
1783245711156264400,7.440264404296875,-0.08229834398031234,0.06277502060383558,-0.12051942662931978
1783245711166276400,7.4502763671875,-0.058121349579095836,0.0474067710801959,-0.19551460798941553
1783245711176288300,7.460288330078125,0.09476268875598907,0.04184329173415899,-0.24369769720435142
1783245711186300400,7.470300537109375,0.2866097872138023,0.12837591228336095,-0.21384883117917924
1783245711196312300,7.480312255859375,0.4354898506045341,-0.07025368592143058,-0.39917536876183
1783245711206324200,7.49032421875,0.5137292745828628,-0.23053221842199562,-0.8796760717533528
1783245711216336400,7.50033642578125,0.15707389124035834,-0.6036155894741415,-1.0612849770523607
1783245711226348300,7.510348388671875,-0.05500234077572822,-0.73775897924304,-0.9096754886977374
1783245711236360200,7.520360107421875,-0.17120412340164184,-0.4672831652283668,-0.6891143369309604
1783245711246372400,7.530372314453125,-0.30283845295906064,-0.02397854921966791,-0.4682017413780093
1783245711256384300,7.54038427734375,-0.2853039653122425,0.39575902097970245,-0.18871245369389653
1783245711266396400,7.550396484375,-0.10272913759052753,0.5839864676356316,0.2038094119954854
