time,seconds_elapsed,z,y,x
1783245516573547300,0.05554736328125,0.5654990673065186,0.134761244058609,0.1513257622718811
1783245516583559200,0.06555908203125,0.5242813229560852,0.1502472460269928,0.09809955209493637
1783245516593571300,0.0755712890625,0.5035596489906311,0.15198436379432678,0.03554517403244972
1783245516603583200,0.085583251953125,0.5035654902458191,0.13875964283943176,-0.029360322281718254
1783245516613594400,0.095594482421875,0.5144538879394531,0.10212823003530502,-0.08765296638011932
1783245516623606500,0.1056064453125,0.5219038128852844,0.07599729299545288,-0.1338132619857788
1783245516633618400,0.115618408203125,0.5198022723197937,0.048447854816913605,-0.16702070832252502
1783245516643629300,0.12562939453125,0.5006389617919922,0.03956461325287819,-0.1884322613477707
1783245516653641200,0.13564111328125,0.47894129157066345,0.030157078057527542,-0.1981251835823059
1783245516663653400,0.1456533203125,0.45591241121292114,0.01853957027196884,-0.20269331336021423
1783245516673664300,0.155664306640625,0.43255284428596497,0.025277819484472275,-0.20967017114162445
1783245516683676200,0.16567626953125,0.40391266345977783,0.054825324565172195,-0.22542090713977814
1783245516693688300,0.175688232421875,0.3710865378379822,0.0949050784111023,-0.2426576167345047
1783245516703699500,0.185699462890625,0.3387778699398041,0.1476668268442154,-0.2654561400413513
1783245516713711400,0.19571142578125,0.3055788576602936,0.22477872669696808,-0.28034621477127075
1783245516723723500,0.2057236328125,0.2799363434314728,0.26832008361816406,-0.27985966205596924
1783245516733734400,0.215734375,0.259097695350647,0.2721811532974243,-0.26848533749580383
1783245516743746300,0.225746337890625,0.23013713955879211,0.25224021077156067,-0.25491732358932495
1783245516753758500,0.235758544921875,0.19990895688533783,0.18777213990688324,-0.24294845759868622
1783245516763769300,0.245769287109375,0.16137035191059113,0.10244844853878021,-0.23737499117851257
1783245516773781200,0.25578125,0.12350728362798691,0.047697510570287704,-0.24221308529376984
1783245516783793000,0.26579296875,0.0860094428062439,0.05115962028503418,-0.25167423486709595
1783245516793804300,0.27580419921875,0.052269455045461655,0.10460446029901505,-0.25535786151885986
1783245516803816200,0.285816162109375,0.033066198229789734,0.17565758526325226,-0.24972929060459137
1783245516813828000,0.295828125,0.021998152136802673,0.27073144912719727,-0.23271040618419647
1783245516823839200,0.305839111328125,0.01533172745257616,0.38100335001945496,-0.201548770070076
1783245516833851100,0.31585107421875,0.015022465959191322,0.47537779808044434,-0.1638973206281662
1783245516843863000,0.325863037109375,0.017731433734297752,0.5556683540344238,-0.11824886500835419
1783245516853874000,0.3358740234375,0.022291431203484535,0.5859490633010864,-0.06748446077108383
1783245516863886000,0.345885986328125,0.03490922600030899,0.513507604598999,0.0034056920558214188
1783245516873898000,0.35589794921875,0.05954192578792572,0.32402026653289795,0.08304399251937866
1783245516883908900,0.365908935546875,0.10775180160999298,0.027021894231438637,0.175611212849617
1783245516893921000,0.375921142578125,0.18307504057884216,-0.257066011428833,0.25118187069892883
1783245516903933000,0.385932861328125,0.2617216408252716,-0.44239377975463867,0.2912970781326294
1783245516913944000,0.395944091796875,0.3211446702480316,-0.5191789865493774,0.2873554527759552
1783245516923956200,0.405956298828125,0.3610502779483795,-0.48580291867256165,0.23244906961917877
1783245516933968100,0.415968017578125,0.3655310571193695,-0.34183821082115173,0.1464797556400299
1783245516943980000,0.42597998046875,0.3353143036365509,-0.15668725967407227,0.05235326290130615
1783245516953991200,0.4359912109375,0.2698028087615967,0.03386757895350456,-0.0291424747556448
1783245516964003000,0.446003173828125,0.1874413639307022,0.19122205674648285,-0.08128344267606735
1783245516974015000,0.456014892578125,0.10262756794691086,0.2806980013847351,-0.09137243032455444
1783245516984026000,0.466026123046875,0.034242648631334305,0.28708720207214355,-0.05717451497912407
1783245516994038000,0.4760380859375,-0.01052482146769762,0.19897758960723877,0.012111613526940346
1783245517004050000,0.4860498046875,-0.02866307832300663,0.05581562593579292,0.09182162582874298
1783245517014061000,0.49606103515625,-0.028768640011548996,-0.08883838355541229,0.16233326494693756
1783245517024073200,0.5060732421875,-0.022087033838033676,-0.18728744983673096,0.21424786746501923
1783245517034085000,0.516085205078125,0.002336532576009631,-0.26775798201560974,0.2528720796108246
1783245517044096000,0.526095947265625,0.06245659664273262,-0.3412018418312073,0.27163806557655334
1783245517054108200,0.536108154296875,0.1659802794456482,-0.41698402166366577,0.268580824136734
1783245517064120000,0.5461201171875,0.28956663608551025,-0.4977097511291504,0.23267687857151031
1783245517074131000,0.556130859375,0.4071028232574463,-0.5524410009384155,0.16050368547439575
1783245517084143000,0.56614306640625,0.48990529775619507,-0.5732719898223877,0.06187351420521736
1783245517094155000,0.576155029296875,0.5282362103462219,-0.558059573173523,-0.04333270341157913
1783245517104166100,0.586166259765625,0.5253672003746033,-0.5089284777641296,-0.13796599209308624
1783245517114178300,0.59617822265625,0.4878939986228943,-0.4170897603034973,-0.2033318281173706
1783245517124190200,0.606190185546875,0.420749306678772,-0.3006094694137573,-0.23667487502098083
1783245517134201000,0.616201171875,0.3298604190349579,-0.17247654497623444,-0.2372588962316513
1783245517144213000,0.626212890625,0.2324230819940567,-0.03807906433939934,-0.20720672607421875
1783245517154225200,0.63622509765625,0.14450231194496155,0.08845057338476181,-0.15573284029960632
1783245517164236000,0.646236083984375,0.07283930480480194,0.183078795671463,-0.08390232175588608
1783245517174248000,0.656248046875,0.026878461241722107,0.23299525678157806,-0.008461353369057178
1783245517184260000,0.666260009765625,0.012821497395634651,0.24567243456840515,0.054472871124744415
1783245517194272000,0.67627197265625,0.029454603791236877,0.24085132777690887,0.08544941246509552
1783245517204283000,0.686282958984375,0.06520514190196991,0.21210543811321259,0.08681854605674744
1783245517214295000,0.696294921875,0.10953585803508759,0.16671635210514069,0.058093488216400146
1783245517224307000,0.706306884765625,0.16171224415302277,0.11400999873876572,0.009933147579431534
1783245517234318000,0.716318115234375,0.21009287238121033,0.046333570033311844,-0.041401803493499756
1783245517244330200,0.726330322265625,0.258015900850296,-0.03689740225672722,-0.09119252860546112
1783245517254342100,0.736342041015625,0.300189346075058,-0.10847341269254684,-0.1341150850057602
1783245517264353000,0.74635302734375,0.3336825966835022,-0.14951911568641663,-0.1664876788854599
1783245517274365200,0.756365234375,0.35956820845603943,-0.16343744099140167,-0.18284715712070465
1783245517284377000,0.766377197265625,0.3664777874946594,-0.17346423864364624,-0.1733279526233673
1783245517294388000,0.776387939453125,0.34989821910858154,-0.15431521832942963,-0.14463648200035095
1783245517304400000,0.78639990234375,0.31784147024154663,-0.1050717756152153,-0.11027557402849197
1783245517314412000,0.796412109375,0.27671393752098083,-0.026900578290224075,-0.08260073512792587
1783245517324423200,0.806423095703125,0.22867663204669952,0.06357286125421524,-0.05425244942307472
1783245517334435000,0.81643505859375,0.18717342615127563,0.0987643450498581,-0.024305690079927444
1783245517344447200,0.826447265625,0.1581641584634781,0.11532814055681229,-0.0012275348417460918
1783245517354458000,0.8364580078125,0.1352488398551941,0.14643731713294983,0.007510063238441944
1783245517364470000,0.846469970703125,0.1222214624285698,0.1666291356086731,-0.0014938183594495058
1783245517374482200,0.856482177734375,0.13447248935699463,0.16442394256591797,-0.02558126114308834
1783245517384493000,0.8664931640625,0.16290545463562012,0.15538065135478973,-0.05775783956050873
1783245517394505000,0.8765048828125,0.2016800493001938,0.16203555464744568,-0.09046033769845963
1783245517404517000,0.88651708984375,0.23867695033550262,0.17942307889461517,-0.133421391248703
1783245517414528300,0.8965283203125,0.27117919921875,0.21273107826709747,-0.18606579303741455
1783245517424540200,0.9065400390625,0.3071731626987457,0.24232038855552673,-0.24161747097969055
1783245517434552300,0.91655224609375,0.3434829115867615,0.25810959935188293,-0.2887866795063019
1783245517444563200,0.926563232421875,0.378783643245697,0.2670176029205322,-0.3135082721710205
1783245517454575000,0.9365751953125,0.41405558586120605,0.24097256362438202,-0.3133406341075897
1783245517464587000,0.9465869140625,0.4394717216491699,0.19230595231056213,-0.29033198952674866
1783245517474598100,0.95659814453125,0.44643741846084595,0.1278875470161438,-0.25243547558784485
1783245517484610000,0.966610107421875,0.42772233486175537,0.06849346309900284,-0.20488952100276947
1783245517494622000,0.9766220703125,0.3860588073730469,0.05321745574474335,-0.15584412217140198
1783245517504634000,0.986634033203125,0.32996678352355957,0.1010960265994072,-0.11168943345546722
1783245517514645000,0.99664501953125,0.26802873611450195,0.19672788679599762,-0.06733889132738113
1783245517524657000,1.006656982421875,0.21643878519535065,0.31873899698257446,-0.022506438195705414
1783245517534669000,1.0166689453125,0.17762281000614166,0.4279555082321167,0.022339889779686928
1783245517544680200,1.02668017578125,0.169564351439476,0.47105637192726135,0.06286627799272537
1783245517554692000,1.036692138671875,0.19524089992046356,0.43790340423583984,0.09079943597316742
1783245517564704300,1.046704345703125,0.24518555402755737,0.3658164441585541,0.10335198044776917
1783245517574715100,1.056715087890625,0.3095609247684479,0.25109803676605225,0.10999687016010284
1783245517584727000,1.06672705078125,0.3785250782966614,0.1184563860297203,0.10867541283369064
1783245517594739000,1.076739013671875,0.440449595451355,0.023257480934262276,0.0982256680727005
1783245517604750000,1.08675,0.4757902920246124,0.009408777579665184,0.06983822584152222
1783245517614762000,1.096761962890625,0.4845017194747925,0.06760165095329285,0.02500802092254162
1783245517624774000,1.10677392578125,0.4631271958351135,0.14023645222187042,-0.02714652754366398
1783245517634785300,1.116785400390625,0.44556519389152527,0.2340804636478424,-0.06943655759096146
1783245517644797200,1.126797119140625,0.44484296441078186,0.31539103388786316,-0.09547774493694305
1783245517654809000,1.13680908203125,0.4550599157810211,0.4014803469181061,-0.0984141007065773
1783245517664820200,1.1468203125,0.48183053731918335,0.4873340129852295,-0.0969293862581253
1783245517674832100,1.15683203125,0.5305840969085693,0.5319986939430237,-0.10429544746875763
1783245517684844000,1.166843994140625,0.5804027915000916,0.5400779247283936,-0.10983429104089737
1783245517694856200,1.176856201171875,0.6231645941734314,0.49163320660591125,-0.10576290637254715
1783245517704867000,1.1868671875,0.6672601699829102,0.34375,-0.08194305747747421
1783245517714879000,1.19687890625,0.7021873593330383,0.14143846929073334,-0.03707067295908928
1783245517724891100,1.20689111328125,0.7235211133956909,-0.10295290499925613,0.020911406725645065
1783245517734902000,1.216902099609375,0.7163575887680054,-0.313388466835022,0.0974925085902214
1783245517744914200,1.2269140625,0.6956387162208557,-0.4785348176956177,0.1738850176334381
1783245517754926000,1.236926025390625,0.6569845676422119,-0.6176092624664307,0.2355608344078064
1783245517764937200,1.246937255859375,0.6093155741691589,-0.6951826214790344,0.28439417481422424
1783245517774949000,1.25694921875,0.5689752697944641,-0.6733907461166382,0.3138939142227173
1783245517784961000,1.2669609375,0.5309871435165405,-0.552599310874939,0.32561713457107544
1783245517794972000,1.276971923828125,0.4701284170150757,-0.35158196091651917,0.32705116271972656
1783245517804983800,1.28698388671875,0.3935912847518921,-0.10306376218795776,0.329147070646286
1783245517814996000,1.296995849609375,0.3051427900791168,0.17164628207683563,0.3443330228328705
1783245517825006800,1.3070068359375,0.2112322896718979,0.41906648874282837,0.3806265890598297
1783245517835018800,1.317018798828125,0.14134450256824493,0.5878024101257324,0.43321773409843445
1783245517845031000,1.327031005859375,0.12570536136627197,0.6972378492355347,0.48740214109420776
1783245517855042000,1.3370419921875,0.17719347774982452,0.7893210649490356,0.5148487687110901
1783245517865054000,1.347053955078125,0.29725462198257446,0.8437811136245728,0.4941288232803345
1783245517875066000,1.357066162109375,0.4737870693206787,0.8290327191352844,0.42458924651145935
1783245517885077000,1.367076904296875,0.6835538744926453,0.731338620185852,0.2985681891441345
1783245517895089000,1.3770888671875,0.886617124080658,0.5922679901123047,0.1607166975736618
1783245517905101000,1.38710107421875,1.0478435754776,0.45754241943359375,0.013717671856284142
1783245517915112000,1.39711181640625,1.1499621868133545,0.28276243805885315,-0.11864234507083893
1783245517925123800,1.407123779296875,1.2100121974945068,0.06587006151676178,-0.20449839532375336
1783245517935135700,1.4171357421875,1.2522441148757935,-0.11574758589267731,-0.23236875236034393
1783245517945147100,1.427147216796875,1.2715736627578735,-0.23619863390922546,-0.21306882798671722
1783245517955159000,1.437158935546875,1.2698802947998047,-0.3370217978954315,-0.1741388589143753
1783245517965171000,1.4471708984375,1.2673624753952026,-0.4286893904209137,-0.14267681539058685
1783245517975183000,1.45718310546875,1.2696601152420044,-0.45562246441841125,-0.13151971995830536
1783245517985194000,1.467194091796875,1.264017105102539,-0.4246366024017334,-0.13913290202617645
1783245517995206000,1.477205810546875,1.2471122741699219,-0.376947283744812,-0.15650054812431335
1783245518005218000,1.487218017578125,1.2158960103988647,-0.30004557967185974,-0.176866814494133
1783245518015229000,1.49722900390625,1.1705126762390137,-0.2023826539516449,-0.1981467753648758
1783245518025240800,1.50724072265625,1.10841965675354,-0.11299365013837814,-0.2110828012228012
1783245518035253000,1.5172529296875,1.0365201234817505,-0.037804827094078064,-0.21373224258422852
1783245518045264100,1.52726416015625,0.9534993767738342,0.011622377671301365,-0.20428840816020966
1783245518055276000,1.537276123046875,0.8697202801704407,0.02753245271742344,-0.18228355050086975
1783245518065288200,1.5472880859375,0.7885919213294983,0.01611308380961418,-0.16474583745002747
1783245518075299000,1.557299072265625,0.7182738184928894,0.0029983471613377333,-0.15158183872699738
1783245518085311000,1.56731103515625,0.6627151966094971,0.0032580052502453327,-0.14751838147640228
1783245518095323000,1.577322998046875,0.6281352639198303,0.017020616680383682,-0.15580447018146515
1783245518105334000,1.587333984375,0.6199234127998352,0.03566913679242134,-0.17715902626514435
1783245518115346000,1.597345947265625,0.6227591037750244,0.05850008502602577,-0.2037562131881714
1783245518125357800,1.60735791015625,0.6294329762458801,0.08253484964370728,-0.23178571462631226
1783245518135369000,1.617368896484375,0.6178545951843262,0.12194699794054031,-0.26431870460510254
1783245518145380900,1.627380859375,0.5698042511940002,0.1830819845199585,-0.28215575218200684
1783245518155392800,1.637392822265625,0.4965530037879944,0.22372651100158691,-0.2790600061416626
1783245518165404000,1.64740380859375,0.4108751118183136,0.24709467589855194,-0.25607213377952576
1783245518175416000,1.657416015625,0.32652729749679565,0.25896933674812317,-0.2175389528274536
1783245518185428000,1.667427978515625,0.2554273009300232,0.24435551464557648,-0.15799733996391296
1783245518195440000,1.677440185546875,0.19534054398536682,0.1945739984512329,-0.07680437713861465
1783245518205451000,1.687450927734375,0.15262876451015472,0.10781645774841309,0.01415828987956047
1783245518215463000,1.697462890625,0.11361084878444672,0.026447843760252,0.09800257533788681
1783245518225475000,1.70747509765625,0.07028068602085114,-0.021581465378403664,0.16166305541992188
1783245518235486000,1.71748583984375,0.009360664524137974,-0.027070177718997,0.2066432386636734
1783245518245497900,1.727497802734375,-0.057388272136449814,0.0180115457624197,0.23602323234081268
1783245518255509800,1.737509765625,-0.12222205102443695,0.07084804773330688,0.2633705139160156
1783245518265521200,1.747521240234375,-0.17598381638526917,0.10400307178497314,0.2971934676170349
1783245518275533000,1.757532958984375,-0.21595723927021027,0.10524109750986099,0.33471858501434326
1783245518285545000,1.767544921875,-0.25008484721183777,0.10718387365341187,0.3714800477027893
1783245518295556000,1.77755615234375,-0.27563008666038513,0.07346532493829727,0.3982495963573456
1783245518305568000,1.787568115234375,-0.2836723029613495,0.0017791595309972763,0.4124751389026642
1783245518315580000,1.797579833984375,-0.26262786984443665,-0.08010551333427429,0.4007565975189209
1783245518325590800,1.8075908203125,-0.21539966762065887,-0.14530262351036072,0.36478447914123535
1783245518335603000,1.81760302734375,-0.15610656142234802,-0.1803642213344574,0.3014492094516754
1783245518345614800,1.82761474609375,-0.1111162006855011,-0.1868165284395218,0.21610236167907715
1783245518355626000,1.8376259765625,-0.0865950882434845,-0.14330598711967468,0.11551763117313385
1783245518365638100,1.84763818359375,-0.08877035975456238,-0.054232049733400345,0.013776089996099472
1783245518375650000,1.857650146484375,-0.11043369770050049,0.04826309531927109,-0.0812789723277092
1783245518385661000,1.867660888671875,-0.15935702621936798,0.12603485584259033,-0.14945296943187714
1783245518395673000,1.877673095703125,-0.2436286211013794,0.1640581339597702,-0.1829816699028015
1783245518405685000,1.88768505859375,-0.3458298444747925,0.14496994018554688,-0.1855364292860031
1783245518415697000,1.89769677734375,-0.44207143783569336,0.10259994119405746,-0.15670649707317352
1783245518425708000,1.9077080078125,-0.523831307888031,0.04826320335268974,-0.10095187276601791
1783245518435720000,1.917719970703125,-0.5948827862739563,0.022916512563824654,-0.019864164292812347
1783245518445731800,1.92773193359375,-0.6647140979766846,-0.003071677638217807,0.08867242932319641
1783245518455742700,1.93774267578125,-0.7159344553947449,-0.04785332828760147,0.21227113902568817
1783245518465755000,1.9477548828125,-0.7312894463539124,-0.08218307048082352,0.3376663327217102
1783245518475766800,1.957766845703125,-0.7083835005760193,-0.089291051030159,0.4404332637786865
1783245518485778000,1.96777783203125,-0.6526347398757935,-0.10412991791963577,0.5113726258277893
1783245518495790000,1.9777900390625,-0.5488229990005493,-0.15842868387699127,0.5415058732032776
1783245518505802000,1.987802001953125,-0.4088965356349945,-0.2206294685602188,0.5254831910133362
1783245518515812900,1.997812744140625,-0.2438090443611145,-0.2751770615577698,0.46969369053840637
1783245518525825000,2.007824951171875,-0.07531669735908508,-0.2857325077056885,0.38095343112945557
1783245518535837000,2.0178369140625,0.07029512524604797,-0.2621975243091583,0.26486265659332275
1783245518545847800,2.027847900390625,0.17760853469371796,-0.234578937292099,0.1326979696750641
1783245518555860000,2.03785986328125,0.2374749481678009,-0.17806722223758698,-0.0077520702034235
1783245518565871900,2.047871826171875,0.252376914024353,-0.0970032662153244,-0.13751991093158722
1783245518575883000,2.057883056640625,0.2341165840625763,-0.0061597153544425964,-0.2408377081155777
1783245518585895200,2.067895263671875,0.19077204167842865,0.11095519363880157,-0.3210228383541107
1783245518595907000,2.077906982421875,0.1184425950050354,0.2537609934806824,-0.363500714302063
1783245518605918000,2.08791796875,0.02806476503610611,0.3963426351547241,-0.36910372972488403
1783245518615929900,2.097929931640625,-0.06329458206892014,0.5159226059913635,-0.3342059552669525
1783245518625942000,2.10794189453125,-0.1315612494945526,0.5707587003707886,-0.2704615890979767
1783245518635954000,2.117953857421875,-0.15867449343204498,0.5390896797180176,-0.17668932676315308
1783245518645964800,2.12796484375,-0.12906014919281006,0.39932623505592346,-0.060893215239048004
1783245518655977000,2.13797705078125,-0.04927346855401993,0.19037392735481262,0.05242764577269554
1783245518665988900,2.14798876953125,0.05077457055449486,-0.02916961908340454,0.1447914093732834
1783245518676000000,2.158,0.13350562751293182,-0.20398175716400146,0.19777829945087433
1783245518686012000,2.168011962890625,0.18440768122673035,-0.3252871632575989,0.20568256080150604
1783245518696024000,2.178024169921875,0.20263352990150452,-0.3931502103805542,0.18048039078712463
1783245518706035000,2.188034912109375,0.20180262625217438,-0.4087850749492645,0.13432806730270386
1783245518716047000,2.198047119140625,0.1865040510892868,-0.39405420422554016,0.08531244099140167
1783245518726059000,2.20805908203125,0.15071889758110046,-0.3299809396266937,0.0470593199133873
1783245518736070000,2.21806982421875,0.10063045471906662,-0.24826595187187195,0.03005141206085682
1783245518746082000,2.22808203125,0.04539729282259941,-0.161179780960083,0.0262721199542284
1783245518756094000,2.238093994140625,-0.0029949499294161797,-0.08164069801568985,0.03340006247162819
1783245518766104800,2.248104736328125,-0.038547616451978683,-0.03670412302017212,0.04563382640480995
1783245518776116700,2.25811669921875,-0.06673464924097061,-0.020210351794958115,0.0616266131401062
1783245518786129700,2.268129638671875,-0.08024246990680695,-0.03188139200210571,0.07876325398683548
1783245518796140500,2.278140625,-0.08409855514764786,-0.06550342589616776,0.09535360336303711
1783245518806152700,2.288152587890625,-0.0756041407585144,-0.08980370312929153,0.10497347265481949
1783245518816164600,2.29816455078125,-0.056679122149944305,-0.09209717810153961,0.09954986721277237
1783245518826176800,2.3081767578125,-0.0391286239027977,-0.0680546909570694,0.08136501163244247
1783245518836187600,2.318187744140625,-0.031701818108558655,-0.042961522936820984,0.05726733058691025
1783245518846199800,2.32819970703125,-0.030117236077785492,-0.0045930976048111916,0.03231404349207878
1783245518856211700,2.338211669921875,-0.03413282707333565,0.03956747055053711,0.023945558816194534
1783245518866222600,2.34822265625,-0.04571438208222389,0.08398686349391937,0.025286460295319557
1783245518876234800,2.35823486328125,-0.04932351037859917,0.12737354636192322,0.03321463614702225
1783245518886246700,2.36824658203125,-0.0429079532623291,0.16114935278892517,0.0416741669178009
1783245518896257500,2.378257568359375,-0.02546250820159912,0.18668155372142792,0.04222552478313446
1783245518906269700,2.388269775390625,0.00571645051240921,0.20474152266979218,0.03397851437330246
1783245518916281600,2.398281494140625,0.040293190628290176,0.18835966289043427,0.027010539546608925
1783245518926292700,2.408292724609375,0.07402186095714569,0.17710088193416595,0.013963446021080017
1783245518936305000,2.418304931640625,0.09024223685264587,0.1951528787612915,0.004631971940398216
1783245518946316800,2.42831689453125,0.0903567522764206,0.2286386787891388,0.0017917104996740818
1783245518956327700,2.43832763671875,0.07496155053377151,0.27632710337638855,0.0068956585600972176
1783245518966339600,2.448339599609375,0.06397467851638794,0.313836932182312,0.018929950892925262
1783245518976351700,2.458351806640625,0.06501898914575577,0.3166651427745819,0.03958525136113167
1783245518986362600,2.468362548828125,0.0794951319694519,0.29592522978782654,0.0658581405878067
1783245518996374500,2.47837451171875,0.09937502443790436,0.26466187834739685,0.0920494869351387
1783245519006386700,2.48838671875,0.11466849595308304,0.22470992803573608,0.11197898536920547
1783245519016397800,2.498397705078125,0.11621666699647903,0.17540039122104645,0.1260191947221756
1783245519026409700,2.50840966796875,0.10754035413265228,0.11289946734905243,0.13314741849899292
1783245519036422000,2.518421875,0.10438980907201767,0.049535512924194336,0.13598306477069855
1783245519046433800,2.528433837890625,0.11337798088788986,0.02909921295940876,0.13285064697265625
1783245519056444700,2.538444580078125,0.12516336143016815,0.05356394127011299,0.11194390803575516
1783245519066456800,2.548456787109375,0.12550371885299683,0.09335049986839294,0.08021128177642822
1783245519076468700,2.55846875,0.12258632481098175,0.15537990629673004,0.032121919095516205
1783245519086479600,2.568479736328125,0.11971810460090637,0.2232487052679062,-0.02585749328136444
1783245519096491800,2.57849169921875,0.12711699306964874,0.2769243121147156,-0.08857239782810211
1783245519106503700,2.588503662109375,0.13207660615444183,0.3362100124359131,-0.1605999916791916
1783245519116514600,2.5985146484375,0.11771034449338913,0.3914148211479187,-0.22750912606716156
1783245519126526700,2.608526611328125,0.09084437787532806,0.40276068449020386,-0.26810264587402344
1783245519136538600,2.61853857421875,0.05180393531918526,0.36745181679725647,-0.2631566822528839
1783245519146549800,2.6285498046875,0.008449802175164223,0.2824932336807251,-0.21004338562488556
1783245519156561700,2.638561767578125,-0.03474985435605049,0.16851018369197845,-0.11485909670591354
1783245519166573800,2.64857373046875,-0.07802516222000122,0.03438033536076546,0.004179411102086306
1783245519176584700,2.658584716796875,-0.12654122710227966,-0.09779446572065353,0.12695059180259705
1783245519186596600,2.6685966796875,-0.18491186201572418,-0.21458527445793152,0.23775087296962738
1783245519196608800,2.67860888671875,-0.25084275007247925,-0.2987145185470581,0.32958200573921204
1783245519206619600,2.68861962890625,-0.31990063190460205,-0.3416785001754761,0.3966233432292938
1783245519216631600,2.698631591796875,-0.3939989507198334,-0.3397006094455719,0.4475320875644684
1783245519226643700,2.708643798828125,-0.46564170718193054,-0.3150389492511749,0.4871863126754761
1783245519236654800,2.71865478515625,-0.5299149751663208,-0.28810644149780273,0.522659420967102
1783245519246666800,2.728666748046875,-0.5814862847328186,-0.2719897925853729,0.5536918640136719
1783245519256679000,2.738678955078125,-0.6212093830108643,-0.26492130756378174,0.5734033584594727
1783245519266690800,2.74869091796875,-0.6535845994949341,-0.256305992603302,0.5828224420547485
1783245519276701700,2.75870166015625,-0.6890372633934021,-0.2450084388256073,0.5699467062950134
1783245519286713600,2.768713623046875,-0.7411084771156311,-0.207221120595932,0.5386622548103333
1783245519296725800,2.778725830078125,-0.800881564617157,-0.16921968758106232,0.49076855182647705
1783245519306736600,2.788736572265625,-0.8605563044548035,-0.1082114577293396,0.4254973828792572
1783245519316748500,2.79874853515625,-0.91950923204422,-0.018084000796079636,0.35681235790252686
1783245519326760700,2.8087607421875,-0.9665318727493286,0.08352039009332657,0.2981002926826477
1783245519336771800,2.818771728515625,-0.9948726296424866,0.18886776268482208,0.24670323729515076
1783245519346783700,2.82878369140625,-0.9799642562866211,0.27709588408470154,0.20342208445072174
1783245519356796000,2.8387958984375,-0.9416226744651794,0.3364347219467163,0.16362982988357544
1783245519366806800,2.848806884765625,-0.8789529204368591,0.34523114562034607,0.13804911077022552
1783245519376818700,2.858818603515625,-0.7872697710990906,0.24797585606575012,0.11046256870031357
1783245519386830800,2.868830810546875,-0.6790335774421692,0.07924594730138779,0.08671382814645767
1783245519396841700,2.878841796875,-0.5801433324813843,-0.15223371982574463,0.0698404386639595
1783245519406853600,2.888853515625,-0.5153270363807678,-0.37592700123786926,0.05708017200231552
1783245519416865500,2.898865478515625,-0.4911941587924957,-0.5648943781852722,0.031215142458677292
1783245519426876700,2.908876708984375,-0.49945104122161865,-0.6945013999938965,-0.00902282539755106
1783245519436888600,2.918888671875,-0.5330530405044556,-0.7601169347763062,-0.06582935899496078
1783245519446900500,2.928900390625,-0.5919131636619568,-0.7826677560806274,-0.12443595379590988
1783245519456912600,2.93891259765625,-0.6614863872528076,-0.7890199422836304,-0.17348632216453552
1783245519466923800,2.948923828125,-0.7452161312103271,-0.7305198907852173,-0.21215461194515228
1783245519476935700,2.958935791015625,-0.8332969546318054,-0.6522321105003357,-0.23521296679973602
1783245519486947800,2.96894775390625,-0.9306895136833191,-0.5841236114501953,-0.24301549792289734
1783245519496958700,2.978958740234375,-1.0365625619888306,-0.5321550369262695,-0.23246099054813385
1783245519506970600,2.988970703125,-1.1533358097076416,-0.4950002431869507,-0.2036929875612259
1783245519516982800,2.998982666015625,-1.2678498029708862,-0.4734010398387909,-0.16296011209487915
1783245519526993700,3.00899365234375,-1.377416729927063,-0.4869602620601654,-0.11883445829153061
1783245519537005600,3.019005615234375,-1.4805148839950562,-0.519676685333252,-0.08255229890346527
1783245519547017700,3.029017822265625,-1.5736526250839233,-0.553822934627533,-0.04628537595272064
1783245519557028900,3.03902880859375,-1.6648545265197754,-0.5505790710449219,-0.014432571828365326
1783245519567040800,3.049040771484375,-1.7488104104995728,-0.5162916779518127,0.009628022089600563
1783245519577052700,3.059052734375,-1.824231743812561,-0.46072444319725037,0.026204796507954597
1783245519587063800,3.069063720703125,-1.8891063928604126,-0.3895290791988373,0.03336790204048157
1783245519597075700,3.07907568359375,-1.9420109987258911,-0.32217541337013245,0.03485560417175293
1783245519607087600,3.089087646484375,-1.982064127922058,-0.28232839703559875,0.03461432084441185
1783245519617098800,3.0990986328125,-2.003807306289673,-0.2656645178794861,0.02845686487853527
1783245519627110700,3.109110595703125,-2.008297920227051,-0.24158287048339844,0.020706798881292343
1783245519637122600,3.11912255859375,-2.0077733993530273,-0.2322978377342224,0.024862471967935562
1783245519647134700,3.129134765625,-2.0080924034118652,-0.2703735828399658,0.03327353298664093
1783245519657145900,3.139145751953125,-2.010258674621582,-0.3123330771923065,0.05013803765177727
1783245519667157800,3.14915771484375,-2.023258686065674,-0.3085188865661621,0.0710100308060646
1783245519677170000,3.159169921875,-2.058290481567383,-0.2665829658508301,0.1090877577662468
1783245519687180800,3.169180908203125,-2.1177563667297363,-0.22722600400447845,0.17557011544704437
1783245519697192700,3.179192626953125,-2.1813645362854004,-0.19319844245910645,0.27348247170448303
1783245519707204900,3.189204833984375,-2.242295742034912,-0.14733481407165527,0.3832912743091583
1783245519717215700,3.1992158203125,-2.293381929397583,-0.12350770086050034,0.48794543743133545
1783245519727227600,3.2092275390625,-2.3330721855163574,-0.1307498812675476,0.5517054796218872
1783245519737239600,3.219239501953125,-2.3560612201690674,-0.16307894885540009,0.5605345368385315
1783245519747250700,3.229250732421875,-2.362043857574463,-0.2292819321155548,0.5216670036315918
1783245519757262600,3.2392626953125,-2.3621606826782227,-0.2849569022655487,0.45533621311187744
1783245519767274500,3.2492744140625,-2.3575682640075684,-0.2884208858013153,0.37420594692230225
1783245519777286000,3.259285888671875,-2.3639771938323975,-0.23008762300014496,0.29542437195777893
1783245519787297800,3.2692978515625,-2.3884572982788086,-0.09532421082258224,0.22175896167755127
1783245519797310000,3.27931005859375,-2.4504148960113525,0.06663922220468521,0.15944062173366547
1783245519807320800,3.28932080078125,-2.5503625869750977,0.1808113306760788,0.12003302574157715
1783245519817332700,3.299332763671875,-2.6602470874786377,0.220561221241951,0.11674399673938751
1783245519827345000,3.309344970703125,-2.7550060749053955,0.15676972270011902,0.1723390817642212
1783245519837355800,3.319355712890625,-2.8129374980926514,0.023556450381875038,0.27458852529525757
1783245519847367700,3.32936767578125,-2.8327279090881348,-0.17503254115581512,0.4188689887523651
1783245519857379800,3.3393798828125,-2.817837953567505,-0.41794300079345703,0.588128924369812
1783245519867391700,3.349391845703125,-2.757873773574829,-0.6481514573097229,0.7312994003295898
1783245519877403000,3.35940283203125,-2.6854729652404785,-0.8093841075897217,0.8094843626022339
1783245519887415000,3.3694150390625,-2.623831033706665,-0.8968183398246765,0.7942872643470764
1783245519897427000,3.379427001953125,-2.5466036796569824,-0.9521647691726685,0.6993789076805115
1783245519907437800,3.389437744140625,-2.4603991508483887,-0.965721070766449,0.5545676350593567
1783245519917449700,3.39944970703125,-2.3708598613739014,-0.9289689064025879,0.3955378234386444
1783245519927462000,3.4094619140625,-2.2960362434387207,-0.8656346797943115,0.2503891587257385
1783245519937472800,3.41947265625,-2.23284649848938,-0.7887689471244812,0.14895711839199066
1783245519947484700,3.429484619140625,-2.1705589294433594,-0.736033022403717,0.11173038184642792
1783245519957496800,3.439496826171875,-2.108633041381836,-0.6997993588447571,0.12210976332426071
1783245519967507700,3.4495078125,-2.0543367862701416,-0.6943707466125488,0.1564512401819229
1783245519977519900,3.459519775390625,-2.0194926261901855,-0.7193350791931152,0.19205139577388763
1783245519987531800,3.46953173828125,-2.0148191452026367,-0.747665286064148,0.21025969088077545
1783245519997543000,3.47954296875,-2.0421054363250732,-0.7789363265037537,0.21645955741405487
1783245520007554800,3.489554931640625,-2.0838451385498047,-0.7922598719596863,0.21837197244167328
1783245520017567000,3.49956689453125,-2.1246743202209473,-0.7777504324913025,0.2308424562215805
1783245520027577900,3.509577880859375,-2.1664531230926514,-0.7030479907989502,0.2640877664089203
1783245520037589800,3.51958984375,-2.1990110874176025,-0.6250513792037964,0.32258403301239014
1783245520047602000,3.529601806640625,-2.20611310005188,-0.5701369643211365,0.3818678557872772
1783245520057613800,3.53961376953125,-2.1953213214874268,-0.510496973991394,0.4255686104297638
1783245520067624700,3.549624755859375,-2.177030563354492,-0.453274130821228,0.42288944125175476
1783245520077636600,3.55963671875,-2.1637156009674072,-0.4231630265712738,0.3842410147190094
1783245520087648800,3.569648681640625,-2.1625688076019287,-0.38029250502586365,0.33400845527648926
1783245520097660000,3.579659912109375,-2.1618123054504395,-0.32735294103622437,0.2889138162136078
1783245520107671800,3.589671875,-2.1427059173583984,-0.263796329498291,0.26347050070762634
1783245520117684000,3.59968408203125,-2.105090379714966,-0.20071877539157867,0.2456754744052887
1783245520127694800,3.60969482421875,-2.043975830078125,-0.17796258628368378,0.23868705332279205
1783245520137706800,3.619706787109375,-1.9718881845474243,-0.1911487728357315,0.231989786028862
1783245520147719000,3.629718994140625,-1.8927979469299316,-0.2235027253627777,0.22307032346725464
1783245520157729800,3.639729736328125,-1.8136723041534424,-0.27411285042762756,0.21865423023700714
1783245520167741700,3.64974169921875,-1.7319693565368652,-0.3402538001537323,0.21350261569023132
1783245520177753900,3.65975390625,-1.6628021001815796,-0.4142000377178192,0.2084786742925644
1783245520187765000,3.669764892578125,-1.6103253364562988,-0.47842937707901,0.2042706161737442
1783245520197777000,3.67977685546875,-1.5727577209472656,-0.5199456214904785,0.21154342591762543
1783245520207789000,3.6897890625,-1.5393412113189697,-0.5498929023742676,0.2295280247926712
1783245520217800000,3.699800048828125,-1.5021520853042603,-0.5679966807365417,0.24830296635627747
1783245520227811800,3.709811767578125,-1.4637123346328735,-0.553189754486084,0.25374406576156616
1783245520237823700,3.71982373046875,-1.436856985092163,-0.5086462497711182,0.23616346716880798
1783245520247836000,3.7298359375,-1.4275654554367065,-0.42020589113235474,0.21774211525917053
1783245520257846800,3.7398466796875,-1.4196832180023193,-0.36204975843429565,0.20131316781044006
1783245520267858700,3.749858642578125,-1.4022434949874878,-0.323207288980484,0.19472238421440125
1783245520277870800,3.759870849609375,-1.379614233970642,-0.2730623483657837,0.20036639273166656
1783245520287881700,3.7698818359375,-1.3610397577285767,-0.23477964103221893,0.21739304065704346
1783245520297894000,3.779893798828125,-1.3348827362060547,-0.23745259642601013,0.24653488397598267
1783245520307905800,3.78990576171875,-1.3081165552139282,-0.27132558822631836,0.2819320261478424
1783245520317917000,3.7999169921875,-1.2766681909561157,-0.30514928698539734,0.3027128577232361
1783245520327928800,3.8099287109375,-1.259682059288025,-0.3085562586784363,0.3107561469078064
1783245520337941000,3.81994091796875,-1.2581745386123657,-0.27839455008506775,0.30759140849113464
1783245520347951900,3.829951904296875,-1.2707276344299316,-0.22866934537887573,0.3040267825126648
1783245520357963800,3.8399638671875,-1.2870838642120361,-0.17400453984737396,0.3183189332485199
1783245520367975700,3.8499755859375,-1.3013139963150024,-0.1252811998128891,0.3515376150608063
1783245520377986800,3.85998681640625,-1.307883620262146,-0.08344807475805283,0.39168161153793335
1783245520387998700,3.869998779296875,-1.3027527332305908,-0.06186608225107193,0.4292697310447693
1783245520398010600,3.8800107421875,-1.2841110229492188,-0.05886196345090866,0.45248234272003174
1783245520408022000,3.89002197265625,-1.251515507698059,-0.076039619743824,0.4562131464481354
1783245520418034000,3.900033935546875,-1.2100907564163208,-0.09505271911621094,0.43891486525535583
1783245520428045800,3.9100458984375,-1.1654666662216187,-0.11498408764600754,0.40454941987991333
1783245520438058000,3.92005810546875,-1.114993929862976,-0.1265464723110199,0.36298519372940063
1783245520448068900,3.93006884765625,-1.0593583583831787,-0.10693123191595078,0.32327187061309814
1783245520458080800,3.940080810546875,-0.9970583915710449,-0.08428134024143219,0.29478755593299866
1783245520468093000,3.950093017578125,-0.9272931814193726,-0.10490965843200684,0.2827546000480652
1783245520478103800,3.960103759765625,-0.8522608876228333,-0.1297680139541626,0.2762209177017212
1783245520488115700,3.97011572265625,-0.7803779244422913,-0.1324993520975113,0.2620084285736084
1783245520498128000,3.9801279296875,-0.718819260597229,-0.1227642223238945,0.24386730790138245
1783245520508139000,3.990138916015625,-0.66315096616745,-0.1061578094959259,0.21622289717197418
1783245520518151000,4.00015087890625,-0.6121208071708679,-0.07166656851768494,0.17661015689373016
1783245520528162800,4.010162841796875,-0.5655820965766907,-0.016367893666028976,0.13648536801338196
1783245520538174000,4.020174072265625,-0.5186375379562378,0.03354308381676674,0.10269209742546082
1783245520548185900,4.030185791015625,-0.4748927056789398,0.06230735406279564,0.08572909981012344
1783245520558197800,4.04019775390625,-0.4347829520702362,0.06057436391711235,0.07588239759206772
1783245520568209000,4.050208984375,-0.39969873428344727,0.04515599086880684,0.07015287131071091
1783245520578220800,4.060220703125,-0.36924776434898376,0.04985104501247406,0.05774316191673279
1783245520588232700,4.070232666015625,-0.3487129211425781,0.07037708908319473,0.020135601982474327
1783245520598243800,4.080243896484375,-0.33954888582229614,0.09498520940542221,-0.045432198792696
1783245520608255700,4.090255859375,-0.33558982610702515,0.14159291982650757,-0.13303714990615845
1783245520618267600,4.100267578125,-0.3182784616947174,0.22179222106933594,-0.22123336791992188
1783245520628279800,4.11027978515625,-0.300899475812912,0.3255859911441803,-0.28284984827041626
1783245520638291000,4.120291015625,-0.2969493269920349,0.41523927450180054,-0.29507094621658325
1783245520648302800,4.130302734375,-0.30458539724349976,0.4598509669303894,-0.25293174386024475
1783245520658315000,4.14031494140625,-0.3283478617668152,0.4300946295261383,-0.15921320021152496
1783245520668326000,4.150325927734375,-0.35224786400794983,0.3122856914997101,-0.020341869443655014
1783245520678337800,4.160337890625,-0.3722864091396332,0.11909598112106323,0.1427251100540161
1783245520688349700,4.170349609375,-0.3890227675437927,-0.13557039201259613,0.30683496594429016
1783245520698360800,4.18036083984375,-0.4112105071544647,-0.418236643075943,0.4479997158050537
1783245520708372700,4.190372802734375,-0.4441002905368805,-0.6845474243164062,0.5545256733894348
1783245520718384600,4.200384521484375,-0.4844062328338623,-0.9024698734283447,0.6251315474510193
1783245520728396000,4.21039599609375,-0.5274660587310791,-1.0717600584030151,0.6704005002975464
1783245520738408000,4.220407958984375,-0.5759620666503906,-1.1404653787612915,0.6882854700088501
1783245520748419800,4.230419921875,-0.6377561688423157,-1.100030541419983,0.7007583379745483
1783245520758430700,4.2404306640625,-0.7085400819778442,-0.9674316048622131,0.7138285040855408
1783245520768443000,4.25044287109375,-0.789026141166687,-0.7598720192909241,0.7227354645729065
1783245520778454300,4.260454345703125,-0.8797339200973511,-0.5177029371261597,0.7202073931694031
1783245520788465200,4.270465087890625,-0.9919059872627258,-0.25366196036338806,0.7025639414787292
1783245520798477000,4.28047705078125,-1.1297624111175537,0.030186371877789497,0.6715761423110962
1783245520808489200,4.2904892578125,-1.289943814277649,0.2929553985595703,0.6312580108642578
1783245520818501000,4.300501220703125,-1.4521311521530151,0.521719753742218,0.585341215133667
1783245520828512300,4.31051220703125,-1.6091806888580322,0.7299757599830627,0.5358810424804688
1783245520838524200,4.320524169921875,-1.7524925470352173,0.9326286315917969,0.4892291724681854
1783245520848536300,4.330536376953125,-1.8527235984802246,1.0751965045928955,0.45677271485328674
1783245520858547200,4.340547119140625,-1.8784219026565552,1.1132547855377197,0.4508318603038788
1783245520868559000,4.35055908203125,-1.8035775423049927,1.0121872425079346,0.4788464605808258
1783245520878571300,4.3605712890625,-1.6289873123168945,0.7649362087249756,0.5345986485481262
1783245520888582100,4.37058203125,-1.382470965385437,0.479705810546875,0.5971869230270386
1783245520898594000,4.380593994140625,-1.1106456518173218,0.1389048844575882,0.638496458530426
1783245520908606200,4.390606201171875,-0.868334174156189,-0.18265050649642944,0.6317682266235352
1783245520918617300,4.400617431640625,-0.6811597943305969,-0.44492098689079285,0.5540758371353149
1783245520928629200,4.410629150390625,-0.5531911849975586,-0.5981127023696899,0.4114401340484619
1783245520938641400,4.420641357421875,-0.47283270955085754,-0.6607421636581421,0.23794838786125183
1783245520948652300,4.43065234375,-0.43944063782691956,-0.6799243688583374,0.061686813831329346
1783245520958664200,4.440664306640625,-0.4374670386314392,-0.6235594153404236,-0.08711117506027222
1783245520968676000,4.450676025390625,-0.4658600687980652,-0.5137423276901245,-0.19425201416015625
1783245520978687200,4.460687255859375,-0.5112060904502869,-0.38719815015792847,-0.2603674530982971
1783245520988699100,4.47069921875,-0.5752437114715576,-0.2768729627132416,-0.2810165286064148
1783245520998711000,4.4807109375,-0.6583801507949829,-0.21097637712955475,-0.2721062898635864
1783245521008722400,4.490722412109375,-0.7621467709541321,-0.17103108763694763,-0.23543936014175415
1783245521018734300,4.500734375,-0.8886071443557739,-0.14910243451595306,-0.1910100132226944
1783245521028746200,4.510746337890625,-1.040338158607483,-0.14771626889705658,-0.14868305623531342
1783245521038758400,4.52075830078125,-1.1857143640518188,-0.16444839537143707,-0.1025610864162445
1783245521048769300,4.530769287109375,-1.2951635122299194,-0.184440478682518,-0.05721943825483322
1783245521058781200,4.54078125,-1.3509643077850342,-0.20976059138774872,-0.00617504445835948
1783245521068793300,4.55079345703125,-1.3577466011047363,-0.24950745701789856,0.03729519993066788
1783245521078804200,4.56080419921875,-1.315659999847412,-0.2880633771419525,0.048644501715898514
1783245521088816000,4.570816162109375,-1.2294944524765015,-0.34848493337631226,0.014419419690966606
1783245521098828300,4.580828369140625,-1.1129518747329712,-0.41022127866744995,-0.06590013951063156
1783245521108839200,4.590839111328125,-0.9889546036720276,-0.47124096751213074,-0.1712726354598999
1783245521118851000,4.60085107421875,-0.8714016079902649,-0.5144497752189636,-0.28411629796028137
1783245521128863000,4.610863037109375,-0.7800120711326599,-0.5096472501754761,-0.37989342212677
1783245521138874400,4.620874267578125,-0.7234449982643127,-0.4639268219470978,-0.4402388632297516
1783245521148886300,4.63088623046875,-0.689338207244873,-0.4097437560558319,-0.4632251262664795
1783245521158898200,4.640898193359375,-0.6757339835166931,-0.3619297444820404,-0.44559866189956665
1783245521168909300,4.650909423828125,-0.6631457805633545,-0.352358877658844,-0.3890179395675659
1783245521178921200,4.660921142578125,-0.6621683835983276,-0.38509657979011536,-0.29174622893333435
1783245521188933000,4.67093310546875,-0.6696851253509521,-0.4511792063713074,-0.16180846095085144
1783245521198944000,4.680944091796875,-0.6870207190513611,-0.5325555205345154,-0.024004796519875526
1783245521208956200,4.6909560546875,-0.711352527141571,-0.6036248803138733,0.10350780189037323
1783245521218968000,4.700968017578125,-0.7753348350524902,-0.641024112701416,0.22351913154125214
1783245521228980200,4.710980224609375,-0.872033953666687,-0.6519526839256287,0.3270109295845032
1783245521238991400,4.720991455078125,-0.9724799990653992,-0.6313158869743347,0.40497955679893494
1783245521249003300,4.731003173828125,-1.0425903797149658,-0.5738957524299622,0.45702970027923584
1783245521259015400,4.741015380859375,-1.0711822509765625,-0.5283078551292419,0.4919491410255432
1783245521269026300,4.7510263671875,-1.0567269325256348,-0.5086824893951416,0.5094117522239685
1783245521279038200,4.7610380859375,-1.019118309020996,-0.47780928015708923,0.5074506402015686
1783245521289050000,4.771050048828125,-0.9773884415626526,-0.441406786441803,0.47920113801956177
1783245521299061200,4.781061279296875,-0.9390671849250793,-0.41722726821899414,0.4340724050998688
1783245521309073200,4.7910732421875,-0.9062354564666748,-0.3908209502696991,0.37657421827316284
1783245521319085000,4.8010849609375,-0.8771358728408813,-0.3612664043903351,0.3116989731788635
1783245521329096200,4.81109619140625,-0.8524462580680847,-0.33709368109703064,0.25740405917167664
1783245521339108400,4.8211083984375,-0.8332927823066711,-0.2982030212879181,0.22270464897155762
1783245521349120300,4.831120361328125,-0.8083701133728027,-0.27334561944007874,0.20436905324459076
1783245521359131100,4.841131103515625,-0.7677857279777527,-0.27883821725845337,0.1979445517063141
1783245521369143300,4.851143310546875,-0.7293224930763245,-0.31210270524024963,0.20085379481315613
1783245521379155200,4.8611552734375,-0.7077116966247559,-0.3781030774116516,0.2129315584897995
1783245521389166000,4.871166015625,-0.7062126398086548,-0.4600304365158081,0.2295084148645401
1783245521399178200,4.88117822265625,-0.716656506061554,-0.5132169723510742,0.2401627004146576
1783245521409190100,4.891190185546875,-0.7269411087036133,-0.5192927122116089,0.23664680123329163
1783245521419201000,4.901200927734375,-0.7412585616111755,-0.4754892587661743,0.20685823261737823
1783245521429213200,4.911213134765625,-0.762005090713501,-0.4280349314212799,0.155117005109787
1783245521439225000,4.92122509765625,-0.788431704044342,-0.3827577829360962,0.09122191369533539
1783245521449237000,4.931237060546875,-0.8136659264564514,-0.2992578148841858,0.030291983857750893
1783245521459248400,4.941248291015625,-0.8281819820404053,-0.20326556265354156,-0.002922123996540904
1783245521469260300,4.95126025390625,-0.8213453888893127,-0.11390559375286102,-0.019835859537124634
1783245521479272200,4.961272216796875,-0.8136081099510193,-0.022044919431209564,-0.00936829298734665
1783245521489283300,4.971283447265625,-0.8222540616989136,0.03628043457865715,0.02937537617981434
1783245521499295200,4.981295166015625,-0.8395536541938782,0.0351945199072361,0.08347977697849274
1783245521509307100,4.99130712890625,-0.861752986907959,-0.015418590046465397,0.1407579779624939
1783245521519318000,5.001318115234375,-0.8818580508232117,-0.12004496157169342,0.18609601259231567
1783245521529330200,5.011330078125,-0.8916827440261841,-0.24599623680114746,0.21348635852336884
1783245521539342000,5.021342041015625,-0.8905335664749146,-0.3580125868320465,0.21299266815185547
1783245521549353200,5.031353271484375,-0.8720850348472595,-0.4354650378227234,0.18857841193675995
1783245521559365400,5.041365478515625,-0.8326157331466675,-0.47504565119743347,0.14428141713142395
1783245521569377300,5.051377197265625,-0.7813698649406433,-0.47528454661369324,0.08297651261091232
1783245521579388200,5.06138818359375,-0.7321648597717285,-0.4229268431663513,0.014634552411735058
1783245521589400300,5.071400390625,-0.6933631300926208,-0.3394380807876587,-0.05528700724244118
1783245521599412200,5.081412109375,-0.6613921523094177,-0.2651034891605377,-0.1254047453403473
1783245521609423000,5.091423095703125,-0.6251041889190674,-0.24201203882694244,-0.20113812386989594
1783245521619435300,5.101435302734375,-0.5793805122375488,-0.2884725034236908,-0.28311339020729065
1783245521629447200,5.111447265625,-0.5314161777496338,-0.3655201494693756,-0.3611852824687958
1783245521639458300,5.121458251953125,-0.5047401785850525,-0.4243715703487396,-0.4192679822444916
1783245521649470200,5.13147021484375,-0.5178328156471252,-0.43895530700683594,-0.4574134945869446
1783245521659482400,5.141482421875,-0.5733853578567505,-0.3859870433807373,-0.46410664916038513
1783245521669494300,5.151494384765625,-0.6694005727767944,-0.2953263819217682,-0.43414634466171265
1783245521679505200,5.161505126953125,-0.7654977440834045,-0.19967539608478546,-0.37458327412605286
1783245521689517300,5.171517333984375,-0.842269241809845,-0.10495313256978989,-0.29498404264450073
1783245521699529200,5.181529296875,-0.8829727172851562,-0.02716965787112713,-0.2058006227016449
1783245521709540000,5.1915400390625,-0.9003961682319641,0.014359408058226109,-0.11088130623102188
1783245521719552300,5.20155224609375,-0.8940933346748352,0.012798400595784187,-0.009157218039035797
1783245521729564200,5.211564208984375,-0.8732951283454895,-0.0142361456528306,0.08733976632356644
1783245521739575000,5.221574951171875,-0.8292471170425415,-0.04808180034160614,0.16187745332717896
1783245521749587200,5.231587158203125,-0.7713097929954529,-0.08951366692781448,0.20977148413658142
1783245521759599000,5.24159912109375,-0.7042136192321777,-0.14932289719581604,0.22224196791648865
1783245521769610200,5.2516103515625,-0.6448714733123779,-0.2081957906484604,0.20430530607700348
1783245521779622400,5.261622314453125,-0.595978319644928,-0.24953879415988922,0.16021089255809784
1783245521789634600,5.271634521484375,-0.5496012568473816,-0.2828397750854492,0.10348396003246307
1783245521799645400,5.2816455078125,-0.5022435188293457,-0.3053881525993347,0.04840625822544098
1783245521809657300,5.2916572265625,-0.45095959305763245,-0.30729764699935913,0.006568799261003733
1783245521819669500,5.30166943359375,-0.40257808566093445,-0.2779833674430847,-0.015226587653160095
1783245521829680400,5.311680419921875,-0.35671260952949524,-0.24875810742378235,-0.02085011824965477
1783245521839692300,5.3216923828125,-0.3197193145751953,-0.20935973525047302,-0.01809781789779663
1783245521849704200,5.3317041015625,-0.30827438831329346,-0.11801304668188095,-0.014683644287288189
1783245521859716400,5.34171630859375,-0.31106334924697876,-0.03991006687283516,-0.013045990839600563
1783245521869727500,5.3517275390625,-0.32184916734695435,0.004001731984317303,-0.017329419031739235
1783245521879739400,5.361739501953125,-0.32694241404533386,0.02664623223245144,-0.020918458700180054
1783245521889751600,5.37175146484375,-0.32400602102279663,0.03840888291597366,-0.02390892244875431
1783245521899762400,5.381762451171875,-0.321010023355484,0.04864547401666641,-0.02803223207592964
1783245521909774300,5.3917744140625,-0.3281017541885376,0.06255809962749481,-0.0322892963886261
1783245521919786500,5.401786376953125,-0.34391021728515625,0.09211442619562149,-0.037084586918354034
1783245521929797400,5.41179736328125,-0.3664136528968811,0.1400451958179474,-0.04230065643787384
1783245521939809300,5.421809326171875,-0.3963928520679474,0.18650726974010468,-0.04833756387233734
1783245521949821400,5.431821533203125,-0.42176294326782227,0.2336428314447403,-0.04238113760948181
1783245521959832300,5.441832275390625,-0.43535879254341125,0.2521721124649048,-0.018829019740223885
1783245521969844200,5.45184423828125,-0.42808276414871216,0.2664506435394287,0.0032120998948812485
1783245521979856100,5.461856201171875,-0.40261635184288025,0.2733308672904968,0.017788177356123924
1783245521989867500,5.471867431640625,-0.3588752746582031,0.2515837550163269,0.02324206568300724
1783245521999879400,5.48187939453125,-0.2963784635066986,0.204701766371727,0.018511205911636353
1783245522009891300,5.491891357421875,-0.22529524564743042,0.14384134113788605,0.00003952020779252052
1783245522019902500,5.50190234375,-0.15908652544021606,0.11872242391109467,-0.028493616729974747
1783245522029914400,5.511914306640625,-0.10869020968675613,0.11132708936929703,-0.058688268065452576
1783245522039926300,5.52192626953125,-0.08263128250837326,0.10802282392978668,-0.08847671747207642
1783245522049937400,5.5319375,-0.07801789045333862,0.13454310595989227,-0.10589086264371872
1783245522059949300,5.54194921875,-0.08233995735645294,0.1630675047636032,-0.10124608874320984
1783245522069961200,5.551961181640625,-0.08106829971075058,0.16455593705177307,-0.07979486137628555
1783245522079973400,5.561973388671875,-0.07812433689832687,0.1599816083908081,-0.0541117824614048
1783245522089984500,5.571984619140625,-0.0796162411570549,0.14200367033481598,-0.030786750838160515
1783245522099996400,5.581996337890625,-0.0907210111618042,0.12373163551092148,-0.015116622671484947
1783245522110008600,5.592008544921875,-0.10398727655410767,0.12066500633955002,-0.0001477929763495922
1783245522120019500,5.60201953125,-0.11579633504152298,0.11526677012443542,0.018799014389514923
1783245522130031400,5.61203125,-0.11669381707906723,0.09121469408273697,0.03973598778247833
1783245522140043300,5.622043212890625,-0.1041819229722023,0.05999138951301575,0.051595982164144516
1783245522150054400,5.632054443359375,-0.08386679738759995,0.06085691973567009,0.04619722440838814
1783245522160066300,5.64206640625,-0.07958672195672989,0.08156123757362366,0.022817468270659447
1783245522170078200,5.652078125,-0.09795933961868286,0.09493563324213028,-0.005469830706715584
1783245522180089600,5.662089599609375,-0.12629258632659912,0.1250711977481842,-0.02926626428961754
1783245522190101500,5.6721015625,-0.1433866173028946,0.2002871334552765,-0.03211504593491554
1783245522200113400,5.682113525390625,-0.13511662185192108,0.2841050326824188,-0.008692774921655655
1783245522210124300,5.692124267578125,-0.11034709215164185,0.371433287858963,0.028452197089791298
1783245522220136400,5.702136474609375,-0.08688750863075256,0.4549310803413391,0.06865127384662628
1783245522230148400,5.7121484375,-0.08667498826980591,0.5218909382820129,0.11166851222515106
1783245522240159200,5.7221591796875,-0.12316840887069702,0.543795645236969,0.1603969782590866
1783245522250171400,5.73217138671875,-0.19460344314575195,0.5378671884536743,0.2249714434146881
1783245522260183300,5.742183349609375,-0.29150253534317017,0.510296642780304,0.3109768033027649
1783245522270194200,5.752194091796875,-0.37024712562561035,0.3902781009674072,0.3965388238430023
1783245522280206300,5.762206298828125,-0.39849668741226196,0.209202378988266,0.45167475938796997
1783245522290218200,5.77221826171875,-0.3603045642375946,-0.00030743470415472984,0.4504305422306061
1783245522300230100,5.782230224609375,-0.2694733738899231,-0.2336675077676773,0.403023898601532
1783245522310241500,5.792241455078125,-0.14307363331317902,-0.47568225860595703,0.32016655802726746
1783245522320253400,5.80225341796875,-0.009659581817686558,-0.6514689922332764,0.21507367491722107
1783245522330265300,5.812265380859375,0.10295218229293823,-0.7205087542533875,0.10737437754869461
1783245522340276500,5.8222763671875,0.1652168482542038,-0.6635092496871948,0.03548720106482506
1783245522350288400,5.832288330078125,0.1708984375,-0.4851703643798828,0.021496286615729332
1783245522360300300,5.84230029296875,0.1468738168478012,-0.25150635838508606,0.06165158748626709
1783245522370311200,5.852311279296875,0.1186475157737732,-0.015105540864169598,0.14015011489391327
1783245522380323300,5.8623232421875,0.09247657656669617,0.19989138841629028,0.2188393920660019
1783245522390335200,5.872335205078125,0.06233731657266617,0.40420350432395935,0.2686900496482849
1783245522400346400,5.882346435546875,0.020983053371310234,0.5923866033554077,0.2794182002544403
1783245522410358500,5.892358642578125,-0.03218269720673561,0.685617208480835,0.2410614937543869
1783245522420370400,5.902370361328125,-0.09290379285812378,0.6682716012001038,0.1682462841272354
1783245522430381300,5.91238134765625,-0.13510744273662567,0.5803540349006653,0.08171139657497406
1783245522440393500,5.9223935546875,-0.12436307221651077,0.4446841776371002,-0.01411746721714735
1783245522450405400,5.9324052734375,-0.03936748951673508,0.26506033539772034,-0.09960147738456726
1783245522460416300,5.942416259765625,0.0998540148139,0.03856443241238594,-0.1610880345106125
1783245522470428400,5.952428466796875,0.26132386922836304,-0.22634100914001465,-0.1983262151479721
1783245522480440300,5.9624404296875,0.4145476222038269,-0.494077205657959,-0.22495989501476288
1783245522490451500,5.972451416015625,0.5300611853599548,-0.6932763457298279,-0.24443532526493073
1783245522500463400,5.98246337890625,0.5939499735832214,-0.8188145160675049,-0.2573916018009186
1783245522510475500,5.9924755859375,0.6072306036949158,-0.8695948719978333,-0.28176751732826233
1783245522520487400,6.0024873046875,0.5780516266822815,-0.8481994271278381,-0.32077211141586304
1783245522530498300,6.012498291015625,0.5217170119285583,-0.8002617359161377,-0.37509289383888245
1783245522540510500,6.022510498046875,0.46505212783813477,-0.7141157388687134,-0.4248608946800232
1783245522550522400,6.0325224609375,0.41126105189323425,-0.6297881007194519,-0.4592137932777405
1783245522560533200,6.042533203125,0.3564150035381317,-0.5293529033660889,-0.4674729108810425
1783245522570545400,6.05254541015625,0.29723450541496277,-0.4455251395702362,-0.445246160030365
1783245522580557300,6.062557373046875,0.22528527677059174,-0.40107429027557373,-0.40660104155540466
1783245522590568200,6.072568115234375,0.15090692043304443,-0.3820399045944214,-0.36529967188835144
1783245522600580400,6.082580322265625,0.06310149282217026,-0.38186731934547424,-0.32589370012283325
1783245522610592300,6.09259228515625,-0.028193794190883636,-0.4007062613964081,-0.280740886926651
1783245522620603400,6.102603271484375,-0.11346826702356339,-0.40680259466171265,-0.21948938071727753
1783245522630615600,6.112615478515625,-0.18900510668754578,-0.3903099000453949,-0.14610303938388824
1783245522640627500,6.12262744140625,-0.2621576488018036,-0.345385879278183,-0.07537907361984253
1783245522650638300,6.132638427734375,-0.3339460790157318,-0.2958124577999115,-0.011584645137190819
1783245522660650200,6.142650146484375,-0.40292367339134216,-0.2516227662563324,0.0454031303524971
1783245522670662400,6.152662353515625,-0.4626772701740265,-0.23629705607891083,0.09138047695159912
1783245522680673300,6.16267333984375,-0.5128269791603088,-0.24993324279785156,0.12088270485401154
1783245522690685200,6.172685302734375,-0.5571710467338562,-0.2596314251422882,0.12773741781711578
1783245522700697300,6.182697265625,-0.5975402593612671,-0.23957206308841705,0.11405233293771744
1783245522710708500,6.19270849609375,-0.6319093704223633,-0.19532763957977295,0.0803457722067833
1783245522720720400,6.202720458984375,-0.6587213277816772,-0.14458723366260529,0.042595990002155304
1783245522730732500,6.212732666015625,-0.6748771071434021,-0.09262628853321075,-0.0031270221807062626
1783245522740744400,6.222744384765625,-0.6869252324104309,-0.03315556421875954,-0.04486802592873573
1783245522750755300,6.23275537109375,-0.6806332468986511,-0.028921138495206833,-0.07926461845636368
1783245522760767500,6.242767578125,-0.6585474014282227,-0.04936642572283745,-0.10759937763214111
1783245522770779400,6.252779296875,-0.622892439365387,-0.048754166811704636,-0.12548702955245972
1783245522780791000,6.262791015625,-0.5801966786384583,-0.025055449455976486,-0.13940902054309845
1783245522790803200,6.27280322265625,-0.5385293960571289,0.00943781342357397,-0.14892235398292542
1783245522800815000,6.282815185546875,-0.49575725197792053,0.023065676912665367,-0.15117107331752777
1783245522810826000,6.292825927734375,-0.4541751742362976,0.023953575640916824,-0.13890162110328674
1783245522820838000,6.302837890625,-0.4205074608325958,0.03561810776591301,-0.12139975279569626
1783245522830850000,6.31285009765625,-0.40251433849334717,0.06971269845962524,-0.10008381307125092
1783245522840861200,6.322861083984375,-0.3904987871646881,0.07388011366128922,-0.08788502216339111
1783245522850873000,6.332873046875,-0.38135188817977905,0.01932073011994362,-0.0756925418972969
1783245522860885200,6.34288525390625,-0.3701132833957672,-0.07789795845746994,-0.05332493036985397
1783245522870896000,6.352896240234375,-0.3586297333240509,-0.16826672852039337,-0.015010299161076546
1783245522880908000,6.362907958984375,-0.3452785015106201,-0.22667533159255981,0.0427548848092556
1783245522890920200,6.372920166015625,-0.32852160930633545,-0.29043805599212646,0.11379656940698624
1783245522900931000,6.38293115234375,-0.30643776059150696,-0.3804759383201599,0.18360589444637299
1783245522910943000,6.39294287109375,-0.2856621742248535,-0.4820265471935272,0.23662889003753662
1783245522920955100,6.402955078125,-0.27185940742492676,-0.5629518628120422,0.26456478238105774
1783245522930966000,6.412966064453125,-0.2633897364139557,-0.5958275198936462,0.26668307185173035
1783245522940978200,6.422978271484375,-0.2612839639186859,-0.5731909871101379,0.23301728069782257
1783245522950990000,6.432989990234375,-0.27842777967453003,-0.5227523446083069,0.19997598230838776
1783245522961001200,6.443001220703125,-0.3188015818595886,-0.5017615556716919,0.1798294335603714
1783245522971013000,6.45301318359375,-0.3639080822467804,-0.5382303595542908,0.16821298003196716
1783245522981025000,6.46302490234375,-0.4016651511192322,-0.5855177640914917,0.16299167275428772
1783245522991037200,6.473037109375,-0.4271601140499115,-0.6570899486541748,0.11924845725297928
1783245523001048000,6.483048095703125,-0.4588851034641266,-0.7673885822296143,0.031703222543001175
1783245523011060000,6.49306005859375,-0.5257879495620728,-0.9021291136741638,-0.03158493712544441
1783245523021072100,6.503072021484375,-0.6349411606788635,-1.0109198093414307,-0.035595644265413284
1783245523031083000,6.5130830078125,-0.7885775566101074,-1.068140983581543,0.07446668297052383
1783245523041095000,6.523094970703125,-0.9250012636184692,-0.9753453731536865,0.312365859746933
1783245523051107000,6.533107177734375,-1.0172100067138672,-0.7623263001441956,0.5905945301055908
1783245523061118200,6.5431181640625,-1.0834943056106567,-0.5319678783416748,0.8072850704193115
1783245523071130000,6.553130126953125,-1.1493977308273315,-0.287101149559021,0.9317796230316162
1783245523081142300,6.563142333984375,-1.2049708366394043,-0.013894882053136826,0.9628309607505798
1783245523091153200,6.573153076171875,-1.2300050258636475,0.22024358808994293,0.9119323492050171
1783245523101165000,6.5831650390625,-1.1892503499984741,0.35064125061035156,0.7833331227302551
1783245523111177000,6.593177001953125,-1.0911128520965576,0.3389962911605835,0.6001439094543457
1783245523121188000,6.60318798828125,-0.9675807356834412,0.22573158144950867,0.3839161694049835
1783245523131200000,6.613199951171875,-0.8529409766197205,0.11650975048542023,0.1530485898256302
1783245523141212000,6.6232119140625,-0.7714248299598694,0.06662587076425552,-0.07820145785808563
1783245523151223300,6.633223388671875,-0.7286123633384705,0.07522628456354141,-0.2917632758617401
1783245523161235200,6.643235107421875,-0.7128883004188538,0.12533259391784668,-0.470909059047699
1783245523171247000,6.6532470703125,-0.7149873971939087,0.19052119553089142,-0.5953940153121948
1783245523181258000,6.663258056640625,-0.6921536922454834,0.21909931302070618,-0.6532037854194641
1783245523191270100,6.673270263671875,-0.6090548038482666,0.18931478261947632,-0.6648780107498169
1783245523201282000,6.683281982421875,-0.4744276702404022,0.1181369200348854,-0.6569456458091736
1783245523211294200,6.693294189453125,-0.3225284218788147,0.031064070761203766,-0.6487367153167725
1783245523221305000,6.70330517578125,-0.17253246903419495,-0.047203827649354935,-0.6575137376785278
1783245523231317000,6.71331689453125,-0.04376943036913872,-0.10053043812513351,-0.6779614686965942
1783245523241329200,6.7233291015625,0.05469244718551636,-0.09223530441522598,-0.6888159513473511
1783245523251340000,6.733340087890625,0.127662792801857,-0.054647985845804214,-0.6809965968132019
1783245523261352000,6.74335205078125,0.1737939566373825,-0.03233340010046959,-0.659928560256958
1783245523271364000,6.753364013671875,0.17701372504234314,0.00152203522156924,-0.6328831315040588
1783245523281375200,6.763375244140625,0.13689279556274414,0.061129722744226456,-0.602471113204956
1783245523291387100,6.77338720703125,0.07674023509025574,0.12319042533636093,-0.5647234916687012
1783245523301399000,6.78339892578125,0.0004025101661682129,0.19351178407669067,-0.5335720181465149
1783245523311410200,6.79341015625,-0.08274643868207932,0.24181459844112396,-0.5216639637947083
1783245523321422000,6.803422119140625,-0.1602703481912613,0.22084201872348785,-0.501625657081604
1783245523331434000,6.81343408203125,-0.2316230982542038,0.14214880764484406,-0.4577668309211731
1783245523341444900,6.82344482421875,-0.28596821427345276,0.02639896236360073,-0.3849785625934601
1783245523351457000,6.83345703125,-0.3208271265029907,-0.06632591784000397,-0.30215930938720703
1783245523361469000,6.843468994140625,-0.34114402532577515,-0.09547319263219833,-0.2172955423593521
1783245523371480000,6.85347998046875,-0.3436034619808197,-0.05063008889555931,-0.14769062399864197
1783245523381492200,6.8634921875,-0.33455726504325867,0.03707404062151909,-0.09768374264240265
1783245523391504100,6.873504150390625,-0.2973177433013916,0.1294090300798416,-0.056087300181388855
1783245523401515000,6.883514892578125,-0.23623749613761902,0.2279609888792038,-0.027334026992321014
1783245523411527200,6.893527099609375,-0.1746164709329605,0.32263076305389404,-0.018666237592697144
1783245523421539000,6.9035390625,-0.1335025280714035,0.39504480361938477,-0.035671330988407135
1783245523431551000,6.913551025390625,-0.11605963110923767,0.40049654245376587,-0.06236579641699791
1783245523441562000,6.92356201171875,-0.11717697978019714,0.3492840528488159,-0.09006140381097794
1783245523451574000,6.933573974609375,-0.12599363923072815,0.2706214487552643,-0.10444780439138412
1783245523461586000,6.9435859375,-0.1303197592496872,0.1970663070678711,-0.09776118397712708
1783245523471597300,6.953597412109375,-0.11687079071998596,0.11865405738353729,-0.06721872091293335
1783245523481609200,6.963609130859375,-0.0750717744231224,0.04711127281188965,-0.022699803113937378
1783245523491621000,6.97362109375,-0.006631728261709213,-0.01432439312338829,0.022194966673851013
1783245523501632000,6.983632080078125,0.07886075973510742,-0.05593637004494667,0.059284597635269165
1783245523511644200,6.99364404296875,0.1628483384847641,-0.05171126499772072,0.08626455068588257
1783245523521656000,7.003656005859375,0.2290768027305603,-0.02173595502972603,0.1102137416601181
1783245523531667000,7.0136669921875,0.27637985348701477,0.017381353303790092,0.12600523233413696
1783245523541679000,7.02367919921875,0.3037225306034088,0.0695868581533432,0.12089451402425766
1783245523551691000,7.03369091796875,0.3046455681324005,0.1448214203119278,0.0888175368309021
1783245523561702000,7.043701904296875,0.27195143699645996,0.22338637709617615,0.041223298758268356
1783245523571714000,7.053714111328125,0.21705970168113708,0.3036673665046692,-0.005100521724671125
1783245523581726000,7.063725830078125,0.15475872159004211,0.33506226539611816,-0.035119399428367615
1783245523591737000,7.073737060546875,0.11024265736341476,0.3149529993534088,-0.03432817384600639
1783245523601749200,7.083749267578125,0.0954815074801445,0.2775309681892395,-0.003993320278823376
1783245523611761200,7.09376123046875,0.10568726807832718,0.23882938921451569,0.05006219074130058
1783245523621772000,7.10377197265625,0.12449690699577332,0.16985753178596497,0.1194864884018898
1783245523631784000,7.113783935546875,0.15877977013587952,0.10080310702323914,0.16944551467895508
1783245523641796000,7.123796142578125,0.19436439871788025,0.09459157288074493,0.17450127005577087
1783245523651807000,7.133806884765625,0.2171192467212677,0.15592791140079498,0.136815145611763
1783245523661819000,7.14381884765625,0.23675134778022766,0.23201729357242584,0.06501822173595428
1783245523671831000,7.1538310546875,0.2727615237236023,0.28755536675453186,-0.032340552657842636
1783245523681842200,7.16384228515625,0.33198317885398865,0.3467711806297302,-0.12482240796089172
1783245523691854000,7.17385400390625,0.42172476649284363,0.3893522024154663,-0.20357687771320343
1783245523701866200,7.1838662109375,0.5363177061080933,0.35945749282836914,-0.26956287026405334
1783245523711878100,7.193878173828125,0.670373260974884,0.2697678208351135,-0.3273143172264099
1783245523721889000,7.203888916015625,0.8000711798667908,0.15744905173778534,-0.36876651644706726
1783245523731901200,7.213901123046875,0.8965755701065063,0.014050876721739769,-0.3887695074081421
1783245523741913000,7.2239130859375,0.9559329152107239,-0.12586185336112976,-0.38395410776138306
1783245523751924000,7.233924072265625,0.9798909425735474,-0.24340471625328064,-0.3558926582336426
1783245523761936100,7.24393603515625,0.9907050132751465,-0.34118106961250305,-0.3071823716163635
1783245523771948000,7.253947998046875,1.0050982236862183,-0.4120135009288788,-0.2362769991159439
1783245523781958400,7.26395849609375,1.044172763824463,-0.4742133915424347,-0.15927261114120483
1783245523791970300,7.27397021484375,1.0964285135269165,-0.5518719553947449,-0.08992283791303635
1783245523801982200,7.283982177734375,1.1412614583969116,-0.5539150238037109,-0.03352385759353638
1783245523811993300,7.293993408203125,1.1299457550048828,-0.5212423205375671,0.019755074754357338
1783245523822005200,7.304005126953125,1.032383680343628,-0.48021042346954346,0.08238253742456436
1783245523832017200,7.31401708984375,0.8663705587387085,-0.4351547956466675,0.15310251712799072
1783245523842028000,7.324028076171875,0.6713507175445557,-0.34117498993873596,0.2117273509502411
1783245523852040200,7.334040283203125,0.5064507126808167,-0.19614800810813904,0.24244718253612518
1783245523862052000,7.344052001953125,0.38596197962760925,-0.019545836374163628,0.2163705974817276
1783245523872063200,7.354063232421875,0.3309626579284668,0.15013852715492249,0.12858030200004578
1783245523882075400,7.364075439453125,0.3320576548576355,0.3288721442222595,0.02162232995033264
1783245523892087300,7.37408740234375,0.3641042709350586,0.4911459982395172,-0.08324416726827621
1783245523902098200,7.38409814453125,0.4381917119026184,0.5523785352706909,-0.16178295016288757
1783245523912110300,7.3941103515625,0.5392779111862183,0.5597887635231018,-0.19800807535648346
1783245523922122200,7.404122314453125,0.6489647030830383,0.5618061423301697,-0.19532392919063568
1783245523932133000,7.414133056640625,0.7589923739433289,0.5039843916893005,-0.16964919865131378
1783245523942145300,7.424145263671875,0.8627241253852844,0.32196998596191406,-0.14874215424060822
1783245523952157200,7.4341572265625,0.9361341595649719,0.0772600844502449,-0.12835165858268738
1783245523962169000,7.444169189453125,0.970342218875885,-0.17611095309257507,-0.12334645539522171
1783245523972180200,7.45418017578125,0.9625011086463928,-0.39110609889030457,-0.13805456459522247
1783245523982192400,7.4641923828125,0.907626748085022,-0.4977800250053406,-0.14965644478797913
1783245523992204300,7.474204345703125,0.8355187177658081,-0.5153534412384033,-0.15215395390987396
1783245524002215200,7.484215087890625,0.7705039381980896,-0.4707232713699341,-0.13752715289592743
1783245524012227300,7.494227294921875,0.7185184955596924,-0.39041459560394287,-0.11080232262611389
1783245524022239200,7.5042392578125,0.6831672191619873,-0.3055829107761383,-0.08300331234931946
1783245524032250000,7.51425,0.6602299213409424,-0.2370624542236328,-0.06269537657499313
1783245524042262300,7.52426220703125,0.6344780325889587,-0.19391071796417236,-0.0549200214445591
1783245524052274200,7.534274169921875,0.5883912444114685,-0.16496002674102783,-0.05139612779021263
1783245524062285300,7.544285400390625,0.5123798251152039,-0.13243211805820465,-0.03357803076505661
1783245524072297200,7.554297119140625,0.42939916253089905,-0.12355473637580872,0.0007959199137985706
1783245524082309000,7.56430908203125,0.3661695420742035,-0.1280294507741928,0.043566614389419556
1783245524092320300,7.5743203125,0.32402876019477844,-0.10786159336566925,0.08278459310531616
1783245524102332400,7.58433251953125,0.2999216616153717,-0.05386826768517494,0.11617997288703918
1783245524112344300,7.59434423828125,0.2893182933330536,0.01423062477260828,0.13721682131290436
1783245524122355200,7.604355224609375,0.300166517496109,0.05202027037739754,0.14764797687530518
1783245524132367000,7.6143671875,0.3192422091960907,0.07490134984254837,0.1375918835401535
1783245524142379300,7.624379150390625,0.3366946876049042,0.09590224176645279,0.11011125147342682
1783245524152390100,7.63439013671875,0.33417508006095886,0.07923484593629837,0.07992645353078842
1783245524162402000,7.644402099609375,0.3088204562664032,-0.004533102735877037,0.048274025321006775
1783245524172414200,7.654414306640625,0.2674652934074402,-0.09600895643234253,0.01816912367939949
1783245524182425300,7.66442529296875,0.21402443945407867,-0.18170525133609772,0.0019278894178569317
1783245524192437200,7.674437255859375,0.1537075787782669,-0.21902385354042053,0.005561506375670433
1783245524202449400,7.684449462890625,0.10230079293251038,-0.2079547643661499,0.024322208017110825
1783245524212461300,7.69446142578125,0.07047175616025925,-0.1683594137430191,0.04499446228146553
1783245524222472200,7.70447216796875,0.05361955985426903,-0.09504081308841705,0.04991476237773895
1783245524232484400,7.714484375,0.034702859818935394,-0.00245788530446589,0.03353419154882431
1783245524242496300,7.724496337890625,0.0035078239161521196,0.0868428498506546,0.0015840488485991955
1783245524252507100,7.734507080078125,-0.0363738089799881,0.1412845253944397,-0.03549114987254143
1783245524262519300,7.744519287109375,-0.08649841696023941,0.13338711857795715,-0.061624925583601
1783245524272531200,7.75453125,-0.1410388946533203,0.10259591042995453,-0.06333521008491516
1783245524282542300,7.764542236328125,-0.20049792528152466,0.08673422783613205,-0.04278789833188057
1783245524292554200,7.77455419921875,-0.25479552149772644,0.08608042448759079,-0.00852872896939516
1783245524302566400,7.78456640625,-0.2958360016345978,0.10072010010480881,0.021531403064727783
1783245524312577300,7.794577392578125,-0.3196377456188202,0.14236022531986237,0.039400678128004074
1783245524322589200,7.804589111328125,-0.32212507724761963,0.20572055876255035,0.03531856834888458
1783245524332601300,7.814601318359375,-0.3131478428840637,0.29513218998908997,0.004058918450027704
1783245524342612200,7.8246123046875,-0.3046451210975647,0.40534698963165283,-0.042346302419900894
1783245524352624000,7.8346240234375,-0.2855619788169861,0.49026429653167725,-0.09009864181280136
1783245524362636300,7.84463623046875,-0.24626857042312622,0.45491400361061096,-0.13821099698543549
1783245524372647200,7.854647216796875,-0.19535213708877563,0.32373732328414917,-0.16117596626281738
1783245524382659000,7.8646591796875,-0.14809784293174744,0.14761923253536224,-0.15366819500923157
1783245524392671200,7.874671142578125,-0.11069454997777939,-0.04380079731345177,-0.12174727767705917
1783245524402682400,7.884682373046875,-0.07935904711484909,-0.19900402426719666,-0.07958777248859406
1783245524412694300,7.8946943359375,-0.05918453261256218,-0.2563208341598511,-0.03822941705584526
1783245524422706200,7.9047060546875,-0.061328090727329254,-0.21274203062057495,0.002281033433973789
1783245524432717300,7.91471728515625,-0.07758215814828873,-0.12141185253858566,0.03781931847333908
1783245524442729200,7.924729248046875,-0.11137422174215317,-0.0023077744990587234,0.07577623426914215
1783245524452741000,7.9347412109375,-0.15542636811733246,0.12525151669979095,0.1344486027956009
1783245524462752300,7.944752197265625,-0.19093294441699982,0.14553433656692505,0.21078848838806152
1783245524472764200,7.95476416015625,-0.21334530413150787,0.09893912822008133,0.2893719971179962
1783245524482776000,7.964776123046875,-0.2219967246055603,0.0044743940234184265,0.35104548931121826
1783245524492788200,7.974788330078125,-0.19797927141189575,-0.1486067771911621,0.3875316083431244
1783245524502799400,7.98479931640625,-0.12214545160531998,-0.3301614820957184,0.37566491961479187
1783245524512811300,7.994811279296875,-0.0016837602015584707,-0.5234012603759766,0.30232733488082886
1783245524522823400,8.004823486328124,0.08482231944799423,-0.6574435830116272,0.19217637181282043
1783245524532834300,8.014834228515625,0.11910279840230942,-0.7473676204681396,0.08138488233089447
1783245524542846200,8.02484619140625,0.12258244305849075,-0.7896195650100708,-0.0108791533857584
1783245524552858400,8.0348583984375,0.12259496003389359,-0.7612526416778564,-0.09740472584962845
1783245524562869200,8.044869140625,0.11760496348142624,-0.6659659743309021,-0.16981691122055054
1783245524572881200,8.054881103515624,0.08031671494245529,-0.5252940654754639,-0.1633177250623703
1783245524582893000,8.06489306640625,0.026195993646979332,-0.2854008972644806,-0.03138410672545433
1783245524592904400,8.074904541015625,-0.0371403694152832,0.0017307410016655922,0.0647144615650177
1783245524602916400,8.084916259765626,-0.12844730913639069,0.2581310570240021,0.07902659475803375
1783245524612928300,8.09492822265625,-0.24855880439281464,0.4401807487010956,-0.015848789364099503
1783245524622939400,8.104939453125,-0.34275904297828674,0.4969126880168915,-0.15679705142974854
1783245524632951300,8.114951416015625,-0.3846854567527771,0.5012587308883667,-0.31050166487693787
1783245524642963200,8.124963134765625,-0.36288169026374817,0.49199536442756653,-0.46961510181427
1783245524652974000,8.13497412109375,-0.29061654210090637,0.45521044731140137,-0.5718889832496643
1783245524662986200,8.144986328125,-0.2441120147705078,0.4402645230293274,-0.6036155223846436
