time,seconds_elapsed,z,y,x
1783245500184999000,0.0589990234375,0.5538826584815979,0.21573740243911743,-0.3160810172557831
1783245500195010000,0.069010009765625,0.559780478477478,0.27585500478744507,-0.2625705301761627
1783245500205022000,0.07902197265625,0.5458124876022339,0.33451753854751587,-0.19399040937423706
1783245500215034000,0.0890341796875,0.5183692574501038,0.40347760915756226,-0.12223604321479797
1783245500225045000,0.099044921875,0.4995577335357666,0.46977248787879944,-0.0718383863568306
1783245500235057000,0.109056884765625,0.48426175117492676,0.5350052118301392,-0.07388360798358917
1783245500245069000,0.119069091796875,0.46618714928627014,0.5884498357772827,-0.10213042795658112
1783245500255080000,0.129079833984375,0.46997371315956116,0.5719286203384399,-0.10451272875070572
1783245500265091800,0.139091796875,0.5028173923492432,0.4979795515537262,-0.08371423929929733
1783245500275104000,0.14910400390625,0.5421192646026611,0.4038228988647461,-0.07337839156389236
1783245500285115000,0.159114990234375,0.5498014688491821,0.3507508933544159,-0.09236034005880356
1783245500295127000,0.169126953125,0.5139250159263611,0.33399873971939087,-0.1304066777229309
1783245500305139000,0.179138916015625,0.4500134289264679,0.3444420397281647,-0.16858255863189697
1783245500315150000,0.189150146484375,0.3970724940299988,0.3659149408340454,-0.17753499746322632
1783245500325162000,0.199161865234375,0.3721791207790375,0.3780887722969055,-0.16051314771175385
1783245500335174000,0.209173828125,0.37107399106025696,0.3667841851711273,-0.12990956008434296
1783245500345185000,0.21918505859375,0.3832068145275116,0.351158082485199,-0.11724542826414108
1783245500355197000,0.229197021484375,0.39041733741760254,0.3395000100135803,-0.11888756603002548
1783245500365208800,0.239208740234375,0.39650505781173706,0.34205400943756104,-0.12672285735607147
1783245500375220000,0.249219970703125,0.4009034335613251,0.3617774248123169,-0.12834998965263367
1783245500385232000,0.25923193359375,0.40414369106292725,0.38828492164611816,-0.1209205687046051
1783245500395243000,0.269242919921875,0.3991657495498657,0.4333461821079254,-0.11281718313694
1783245500405255000,0.2792548828125,0.37874436378479004,0.4877534806728363,-0.10069101303815842
1783245500415267000,0.28926708984375,0.3466748297214508,0.5276789665222168,-0.08490046858787537
1783245500425278000,0.29927783203125,0.3019033670425415,0.5442728400230408,-0.07009781897068024
1783245500435289900,0.309289794921875,0.24838924407958984,0.5182385444641113,-0.04817142337560654
1783245500445302000,0.319302001953125,0.19140051305294037,0.47481703758239746,-0.011871475726366043
1783245500455313000,0.32931298828125,0.13855935633182526,0.4359143376350403,0.03298279643058777
1783245500465324800,0.33932470703125,0.09737517684698105,0.4219556450843811,0.07643972337245941
1783245500475337000,0.3493369140625,0.0719691663980484,0.4289359450340271,0.11866053193807602
1783245500485348000,0.35934814453125,0.06469953060150146,0.46249738335609436,0.15199506282806396
1783245500495360000,0.369360107421875,0.08475026488304138,0.5183032155036926,0.16780051589012146
1783245500505372200,0.3793720703125,0.1281273066997528,0.5956164002418518,0.1438821256160736
1783245500515383000,0.389383056640625,0.17088139057159424,0.6568244099617004,0.0736844390630722
1783245500525395000,0.39939501953125,0.20273813605308533,0.6754899621009827,-0.015012141317129135
1783245500535406800,0.40940673828125,0.22416262328624725,0.6514436602592468,-0.10477345436811447
1783245500545418000,0.41941796875,0.24607856571674347,0.5922754406929016,-0.17181560397148132
1783245500555430000,0.429429931640625,0.27584388852119446,0.5005344748497009,-0.21136903762817383
1783245500565441800,0.43944189453125,0.301769495010376,0.37548598647117615,-0.2273370772600174
1783245500575453000,0.449452880859375,0.31550565361976624,0.30300769209861755,-0.23416447639465332
1783245500585464800,0.45946484375,0.31845057010650635,0.23769044876098633,-0.24476386606693268
1783245500595477000,0.46947705078125,0.30333808064460754,0.1917298138141632,-0.25372105836868286
1783245500605487900,0.47948779296875,0.2793656289577484,0.16590113937854767,-0.2723748981952667
1783245500615500000,0.4895,0.2637595236301422,0.16959334909915924,-0.29993799328804016
1783245500625512000,0.499511962890625,0.26020392775535583,0.21435895562171936,-0.3293488919734955
1783245500635522800,0.509522705078125,0.2625669240951538,0.2535134255886078,-0.35873863101005554
1783245500645535000,0.519534912109375,0.2546203136444092,0.2757508158683777,-0.38434678316116333
1783245500655547000,0.529546875,0.21914084255695343,0.28619852662086487,-0.410092294216156
1783245500665557800,0.539557861328125,0.16680121421813965,0.32659363746643066,-0.44267046451568604
1783245500675570000,0.54956982421875,0.11929185688495636,0.3992582857608795,-0.4878481328487396
1783245500685581800,0.559581787109375,0.08719437569379807,0.4637507498264313,-0.5449228882789612
1783245500695593000,0.569593017578125,0.08411283046007156,0.46720007061958313,-0.5919274091720581
1783245500705605000,0.579605224609375,0.10493005067110062,0.400655597448349,-0.6016550660133362
1783245500715617000,0.589616943359375,0.15067607164382935,0.2886130213737488,-0.5605366826057434
1783245500725628000,0.5996279296875,0.20122474431991577,0.15455961227416992,-0.4627147912979126
1783245500735640000,0.60964013671875,0.251554012298584,0.02292121760547161,-0.3165366053581238
1783245500745652000,0.61965185546875,0.2899860739707947,-0.089919313788414,-0.13103465735912323
1783245500755662800,0.629662841796875,0.3173631727695465,-0.17509785294532776,0.056150659918785095
1783245500765675300,0.63967529296875,0.3259260356426239,-0.21532516181468964,0.21278847754001617
1783245500775687200,0.649687255859375,0.3065795600414276,-0.2077661156654358,0.31835874915122986
1783245500785698000,0.659697998046875,0.23602710664272308,-0.17984366416931152,0.39275655150413513
1783245500795710200,0.669710205078125,0.1568443775177002,-0.12562790513038635,0.424250990152359
1783245500805722000,0.67972216796875,0.06901173293590546,-0.04063551500439644,0.44671663641929626
1783245500815733200,0.689733154296875,-0.014692012220621109,0.04780399426817894,0.45703330636024475
1783245500825745200,0.6997451171875,-0.07760093361139297,0.14114858210086823,0.44852983951568604
1783245500835757300,0.70975732421875,-0.12384457141160965,0.26065167784690857,0.39409366250038147
1783245500845768200,0.719768310546875,-0.1426723301410675,0.40828001499176025,0.2833751440048218
1783245500855780000,0.729780029296875,-0.15984275937080383,0.5453667044639587,0.15116149187088013
1783245500865791000,0.739791015625,-0.16135036945343018,0.6331157088279724,0.0236637182533741
1783245500875803100,0.74980322265625,-0.12226152420043945,0.6574248671531677,-0.07391563057899475
1783245500885815000,0.75981494140625,-0.0284814964979887,0.6144925951957703,-0.13775746524333954
1783245500895826200,0.769826171875,0.10527027398347855,0.5336444973945618,-0.1800006479024887
1783245500905838300,0.77983837890625,0.2658058702945709,0.4018896520137787,-0.20559601485729218
1783245500915850200,0.789850341796875,0.43594348430633545,0.25421249866485596,-0.2128235101699829
1783245500925861000,0.799861083984375,0.6088316440582275,0.09850519150495529,-0.2163737714290619
1783245500935873300,0.809873291015625,0.7651220560073853,-0.03631247952580452,-0.22653062641620636
1783245500945885200,0.81988525390625,0.8872937560081482,-0.144142284989357,-0.2407497763633728
1783245500955896000,0.82989599609375,0.9597690105438232,-0.20959551632404327,-0.25362032651901245
1783245500965908200,0.839908203125,0.9827749729156494,-0.2257569134235382,-0.2579389214515686
1783245500975920000,0.849920166015625,0.9579789042472839,-0.20172946155071259,-0.25808265805244446
1783245500985931300,0.85993115234375,0.890349805355072,-0.1528490036725998,-0.2593995928764343
1783245500995943400,0.869943359375,0.8018038272857666,-0.08845891058444977,-0.2549404799938202
1783245501005955300,0.879955322265625,0.7116513252258301,-0.018582884222269058,-0.24961736798286438
1783245501015966200,0.88996630859375,0.6293573379516602,0.028620580211281776,-0.24011710286140442
1783245501025978000,0.89997802734375,0.5727134943008423,0.03557728976011276,-0.21596330404281616
1783245501035990300,0.909990234375,0.548014760017395,0.010059546679258347,-0.17359577119350433
1783245501046001200,0.920001220703125,0.5536630749702454,-0.02764016017317772,-0.11808908730745316
1783245501056013000,0.930012939453125,0.5844184160232544,-0.07633785903453827,-0.05477118864655495
1783245501066025200,0.940025146484375,0.6259514689445496,-0.12305023521184921,0.0005120397545397282
1783245501076036000,0.9500361328125,0.6628603339195251,-0.12222512066364288,0.028860243037343025
1783245501086048000,0.960048095703125,0.690727949142456,-0.07939403504133224,0.02641253173351288
1783245501096060200,0.97006005859375,0.7132477164268494,-0.028124451637268066,0.004835848696529865
1783245501106071300,0.9800712890625,0.7334240674972534,0.01752319373190403,-0.03602343425154686
1783245501116083200,0.990083251953125,0.7554341554641724,0.045048557221889496,-0.0975823625922203
1783245501126095400,1.000095458984375,0.7681017518043518,0.04416731745004654,-0.1815291941165924
1783245501136106200,1.010106201171875,0.7569699883460999,0.03148068115115166,-0.2772590219974518
1783245501146118100,1.0201181640625,0.719518780708313,0.007356437388807535,-0.3706648647785187
1783245501156130000,1.030130126953125,0.668890118598938,-0.021248508244752884,-0.4356042742729187
1783245501166141200,1.04014111328125,0.6134790182113647,-0.03723946213722229,-0.4632745087146759
1783245501176153000,1.050153076171875,0.5602014064788818,-0.04175657778978348,-0.44952744245529175
1783245501186165000,1.0601650390625,0.5137417912483215,-0.03829100728034973,-0.40436530113220215
1783245501196176400,1.07017626953125,0.478385865688324,-0.024905426427721977,-0.3356853127479553
1783245501206188300,1.080188232421875,0.4523870348930359,-0.004212930798530579,-0.25125187635421753
1783245501216200200,1.0902001953125,0.4361359775066376,0.0030726813711225986,-0.14803524315357208
1783245501226211300,1.10021142578125,0.43419238924980164,-0.027056992053985596,-0.028697138652205467
1783245501236223200,1.11022314453125,0.4388999044895172,-0.050477035343647,0.08907343447208405
1783245501246235100,1.120235107421875,0.4421990215778351,-0.026316838338971138,0.20281730592250824
1783245501256246000,1.13024609375,0.4302082657814026,0.012039212509989738,0.32625141739845276
1783245501266258200,1.140258056640625,0.4042605459690094,0.036739498376846313,0.46178770065307617
1783245501276270000,1.15027001953125,0.3706769347190857,0.008130891248583794,0.5827448964118958
1783245501286281200,1.16028125,0.3388156592845917,-0.024541834369301796,0.6661809086799622
1783245501296293400,1.17029345703125,0.31576940417289734,-0.03574202582240105,0.687872052192688
1783245501306305300,1.18030517578125,0.29479753971099854,-0.037005431950092316,0.6616119742393494
1783245501316316200,1.190316162109375,0.2752825617790222,-0.05532991141080856,0.6031503677368164
1783245501326328300,1.200328369140625,0.253187894821167,-0.11177747696638107,0.5420305132865906
1783245501336340200,1.21034033203125,0.21957464516162872,-0.18359240889549255,0.4912855625152588
1783245501346351000,1.22035107421875,0.18716052174568176,-0.23428088426589966,0.4421726167201996
1783245501356363300,1.23036328125,0.1652449071407318,-0.2420910745859146,0.40534308552742004
1783245501366374100,1.2403740234375,0.14747922122478485,-0.2897222340106964,0.382783979177475
1783245501376386000,1.250385986328125,0.13234904408454895,-0.40493398904800415,0.3806571066379547
1783245501386398000,1.26039794921875,0.11774507164955139,-0.536527693271637,0.39285439252853394
1783245501396409300,1.270409423828125,0.10773404687643051,-0.6406364440917969,0.4054848253726959
1783245501406421200,1.280421142578125,0.11614590138196945,-0.6551491022109985,0.398683100938797
1783245501416433200,1.29043310546875,0.12002374231815338,-0.6024153232574463,0.3668922781944275
1783245501426444300,1.3004443359375,0.1064610630273819,-0.5041316747665405,0.3282706141471863
1783245501436456200,1.310456298828125,0.06801968067884445,-0.3847086727619171,0.3028963804244995
1783245501446468000,1.320468017578125,0.006164296064525843,-0.17163848876953125,0.29396095871925354
1783245501456479200,1.330479248046875,-0.05602873116731644,0.08202774822711945,0.3192450702190399
1783245501466491100,1.3404912109375,-0.09925182908773422,0.32355996966362,0.36476513743400574
1783245501476503000,1.3505029296875,-0.10374993830919266,0.5121648907661438,0.3957301080226898
1783245501486514200,1.36051416015625,-0.0645921528339386,0.5539464354515076,0.38693368434906006
1783245501496526300,1.3705263671875,-0.007933827117085457,0.5021466612815857,0.33164459466934204
1783245501506538200,1.380538330078125,0.06292383372783661,0.4587526023387909,0.22774243354797363
1783245501516549000,1.390549072265625,0.1135307103395462,0.40784114599227905,0.10712094604969025
1783245501526561300,1.400561279296875,0.15248556435108185,0.3120773434638977,-0.0035765445791184902
1783245501536573200,1.4105732421875,0.18688355386257172,0.19110190868377686,-0.07218731194734573
1783245501546584000,1.420583984375,0.23312854766845703,0.1034114733338356,-0.07618551701307297
1783245501556596200,1.43059619140625,0.3185915946960449,0.046330541372299194,-0.034472860395908356
1783245501566608100,1.440608154296875,0.4186934232711792,0.01735508069396019,0.05520163103938103
1783245501576619300,1.450619384765625,0.5195194482803345,0.0355241596698761,0.14387540519237518
1783245501586631400,1.46063134765625,0.6047318577766418,0.07471124827861786,0.21091888844966888
1783245501596643300,1.470643310546875,0.6273330450057983,0.09287094324827194,0.26526451110839844
1783245501606654200,1.480654296875,0.6179819107055664,0.06513065844774246,0.29759740829467773
1783245501616666000,1.490666015625,0.5877436399459839,-0.0036584632471203804,0.31197425723075867
1783245501626678300,1.50067822265625,0.5577609539031982,-0.05580794811248779,0.29916098713874817
1783245501636689200,1.510689208984375,0.5061430335044861,-0.09271775931119919,0.2821286916732788
1783245501646701000,1.520701171875,0.4283939599990845,-0.10680721700191498,0.2515297830104828
1783245501656713200,1.530713134765625,0.33726823329925537,-0.08358358591794968,0.22543656826019287
1783245501666724000,1.54072412109375,0.23451867699623108,-0.03276780992746353,0.20305748283863068
1783245501676736000,1.550736083984375,0.1373884230852127,0.059494342654943466,0.17344516515731812
1783245501686748200,1.560748046875,0.050317179411649704,0.17487525939941406,0.13466660678386688
1783245501696759300,1.57075927734375,-0.01870359107851982,0.29500311613082886,0.07593145221471786
1783245501706771200,1.580771240234375,-0.05588185414671898,0.41484883427619934,0.009599568322300911
1783245501716783400,1.590783447265625,-0.0669429749250412,0.5109663605690002,-0.05235573649406433
1783245501726794200,1.600794189453125,-0.056989412754774094,0.5722848773002625,-0.10401973128318787
1783245501736806100,1.61080615234375,-0.021879982203245163,0.5944645404815674,-0.15853066742420197
1783245501746818300,1.620818359375,0.03067696839570999,0.5653502941131592,-0.20943857729434967
1783245501756829200,1.6308291015625,0.09593288600444794,0.4906345009803772,-0.24563860893249512
1783245501766840600,1.640840576171875,0.1732170283794403,0.3728884160518646,-0.2533133029937744
1783245501776852500,1.6508525390625,0.2596580386161804,0.24595209956169128,-0.2438431978225708
1783245501786863600,1.660863525390625,0.34157446026802063,0.1348668485879898,-0.228044793009758
1783245501796875500,1.67087548828125,0.4064837098121643,0.02192632481455803,-0.19333244860172272
1783245501806887700,1.6808876953125,0.4501955211162567,-0.0890265554189682,-0.13865375518798828
1783245501816898600,1.690898681640625,0.4754765033721924,-0.21163123846054077,-0.06869925558567047
1783245501826910500,1.700910400390625,0.47921502590179443,-0.3005421757698059,-0.002507718512788415
1783245501836922600,1.710922607421875,0.4729493260383606,-0.3096405267715454,0.04336779564619064
1783245501846933500,1.72093359375,0.45551493763923645,-0.25512829422950745,0.06234148517251015
1783245501856945400,1.7309453125,0.4299037754535675,-0.16654564440250397,0.05000942945480347
1783245501866957600,1.74095751953125,0.3920072615146637,-0.06000589206814766,0.015261835418641567
1783245501876968700,1.75096875,0.3471167981624603,0.03741840273141861,-0.03577154129743576
1783245501886980600,1.760980712890625,0.29024234414100647,0.1130622923374176,-0.09893879294395447
1783245501896992800,1.77099267578125,0.21383678913116455,0.1545972228050232,-0.15242332220077515
1783245501907003600,1.781003662109375,0.12942896783351898,0.17019057273864746,-0.18531788885593414
1783245501917015600,1.791015625,0.05332504212856293,0.17388848960399628,-0.19751611351966858
1783245501927027500,1.80102734375,-0.0018370125908404589,0.1718548983335495,-0.1900446116924286
1783245501937038600,1.81103857421875,-0.02337709255516529,0.21301473677158356,-0.18039371073246002
1783245501947050500,1.821050537109375,-0.0340326651930809,0.30119064450263977,-0.17960594594478607
1783245501957062400,1.8310625,-0.04029669985175133,0.39244627952575684,-0.1751759648323059
1783245501967073800,1.84107373046875,-0.04453352466225624,0.44276562333106995,-0.1531931608915329
1783245501977085700,1.851085693359375,-0.04153995215892792,0.44225895404815674,-0.09209247678518295
1783245501987097600,1.86109765625,-0.040802523493766785,0.39951175451278687,0.009163832291960716
1783245501997108500,1.8711083984375,-0.03435048088431358,0.29167479276657104,0.15221871435642242
1783245502007120600,1.88112060546875,-0.02427441067993641,0.16909533739089966,0.29975518584251404
1783245502017131500,1.891131591796875,-0.015738999471068382,0.09287440031766891,0.40797001123428345
1783245502027143400,1.901143310546875,-0.0244589876383543,0.05734490603208542,0.4636969268321991
1783245502037155600,1.911155517578125,-0.060882892459630966,0.03953681141138077,0.4747792184352875
1783245502047166500,1.92116650390625,-0.11502522230148315,0.02908177301287651,0.45984742045402527
1783245502057178600,1.9311787109375,-0.16599944233894348,0.040085431188344955,0.42919328808784485
1783245502067190500,1.9411904296875,-0.20324082672595978,0.07333020865917206,0.3844980001449585
1783245502077201700,1.95120166015625,-0.23039394617080688,0.11146526783704758,0.3374166488647461
1783245502087213600,1.961213623046875,-0.2421504557132721,0.14015203714370728,0.28610312938690186
1783245502097225700,1.971225830078125,-0.24188466370105743,0.1585700511932373,0.223433256149292
1783245502107236600,1.981236572265625,-0.21985526382923126,0.1751261204481125,0.1382744014263153
1783245502117248500,1.99124853515625,-0.17913205921649933,0.19929085671901703,0.012340903282165527
1783245502127260700,2.0012607421875,-0.11946418881416321,0.22314691543579102,-0.15694905817508698
1783245502137271600,2.011271484375,-0.05512118339538574,0.24794161319732666,-0.36900794506073
1783245502147283500,2.021283447265625,0.0011681856121867895,0.2543550431728363,-0.5892196297645569
1783245502157295400,2.03129541015625,0.05115104466676712,0.20232202112674713,-0.7631704807281494
1783245502167306800,2.041306640625,0.09346681088209152,0.11323367804288864,-0.8339237570762634
1783245502177318700,2.051318603515625,0.1361740231513977,0.02141626365482807,-0.7861133813858032
1783245502187330600,2.06133056640625,0.16835938394069672,-0.053346920758485794,-0.6462332606315613
1783245502197341700,2.071341796875,0.1917518824338913,-0.09219132363796234,-0.47396185994148254
1783245502207353600,2.081353515625,0.20006467401981354,-0.061754319816827774,-0.31548672914505005
1783245502217365500,2.091365478515625,0.18944518268108368,0.009835179895162582,-0.2125028520822525
1783245502227376400,2.10137646484375,0.15675140917301178,0.11241401731967926,-0.17202334105968475
1783245502237388500,2.111388427734375,0.14390823245048523,0.2807219326496124,-0.2036682367324829
1783245502247400400,2.121400390625,0.1575406789779663,0.47206899523735046,-0.3004342019557953
1783245502257411600,2.13141162109375,0.2232053279876709,0.6148926019668579,-0.46637341380119324
1783245502267423700,2.141423828125,0.3396022617816925,0.6237939596176147,-0.6786952614784241
1783245502277435600,2.151435546875,0.4600185751914978,0.5824493169784546,-0.8969851732254028
1783245502287446500,2.161446533203125,0.5673887133598328,0.5445970296859741,-1.0667020082473755
1783245502297458700,2.171458740234375,0.6579189300537109,0.41637927293777466,-1.108447790145874
1783245502307470600,2.181470703125,0.7108734846115112,0.19471189379692078,-0.9842233657836914
1783245502317481500,2.1914814453125,0.7202974557876587,-0.019874442368745804,-0.7086461186408997
1783245502327493600,2.20149365234375,0.6722167134284973,-0.1897236704826355,-0.3176914155483246
1783245502337505500,2.211505615234375,0.5647391080856323,-0.2974446713924408,0.13200631737709045
1783245502347516400,2.221516357421875,0.40868934988975525,-0.328325092792511,0.5720428228378296
1783245502357528600,2.231528564453125,0.21042592823505402,-0.2753536105155945,0.9569969177246094
1783245502367540500,2.24154052734375,0.0053095403127372265,-0.13348916172981262,1.2304166555404663
1783245502377551600,2.251551513671875,-0.1845722198486328,0.04824169725179672,1.3810993432998657
1783245502387563500,2.2615634765625,-0.3305078446865082,0.2416204810142517,1.418195366859436
1783245502397575700,2.27157568359375,-0.4018801152706146,0.4048171937465668,1.3453317880630493
1783245502407586600,2.281586669921875,-0.3967103958129883,0.5320877432823181,1.1817759275436401
1783245502417598500,2.291598388671875,-0.31185072660446167,0.6305433511734009,0.9405275583267212
1783245502427610600,2.301610595703125,-0.16689753532409668,0.7196620106697083,0.6465595960617065
1783245502437621500,2.31162158203125,0.008519340306520462,0.8120730519294739,0.32710736989974976
1783245502447633400,2.32163330078125,0.1949499249458313,0.8700556755065918,0.008026049472391605
1783245502457645600,2.3316455078125,0.38157182931900024,0.8610860705375671,-0.27470093965530396
1783245502467656700,2.34165673828125,0.5581106543540955,0.807603657245636,-0.4955819249153137
1783245502477668600,2.351668701171875,0.7320539355278015,0.7230142951011658,-0.6379417181015015
1783245502487680800,2.3616806640625,0.8822389245033264,0.5796837210655212,-0.6786494851112366
1783245502497691600,2.371691650390625,0.9888699650764465,0.3633624315261841,-0.6269299387931824
1783245502507703600,2.38170361328125,1.037994384765625,0.16687919199466705,-0.5128039121627808
1783245502517715500,2.391715576171875,1.0229183435440063,-0.015537292696535587,-0.36476826667785645
1783245502527726600,2.4017265625,0.9614208340644836,-0.17723670601844788,-0.21225515007972717
1783245502537738500,2.411738525390625,0.8632065653800964,-0.25510701537132263,-0.08337409049272537
1783245502547750400,2.42175048828125,0.736669659614563,-0.2414625734090805,0.031061138957738876
1783245502557761800,2.43176171875,0.6040651798248291,-0.16047558188438416,0.14166827499866486
1783245502567773700,2.441773681640625,0.4869883954524994,-0.04260352626442909,0.2559290826320648
1783245502577785600,2.45178564453125,0.38964617252349854,0.12266212701797485,0.36468803882598877
1783245502587796500,2.46179638671875,0.3267039656639099,0.319640189409256,0.4435301125049591
1783245502597808600,2.47180859375,0.2979997396469116,0.4804677367210388,0.46918585896492004
1783245502607820500,2.481820556640625,0.2878131568431854,0.5633053779602051,0.437394917011261
1783245502617831400,2.49183154296875,0.2991562485694885,0.5710962414741516,0.3502812683582306
1783245502627843600,2.501843505859375,0.3249495029449463,0.5352420806884766,0.22561046481132507
1783245502637855500,2.51185546875,0.36639082431793213,0.4875938892364502,0.08998388797044754
1783245502647866400,2.521866455078125,0.4150979220867157,0.4423936605453491,-0.035141803324222565
1783245502657878500,2.53187841796875,0.4614364504814148,0.41556382179260254,-0.13278916478157043
1783245502667890400,2.541890380859375,0.5049170851707458,0.4110841155052185,-0.21494795382022858
1783245502677901600,2.551901611328125,0.5472641587257385,0.4062861204147339,-0.2784363627433777
1783245502687913700,2.561913818359375,0.5959134697914124,0.36675333976745605,-0.33060503005981445
1783245502697925600,2.571925537109375,0.6435825824737549,0.3088250756263733,-0.3799801766872406
1783245502707936500,2.5819365234375,0.6777602434158325,0.24600163102149963,-0.41845381259918213
1783245502717948700,2.59194873046875,0.6922540068626404,0.15233826637268066,-0.4301379919052124
1783245502727960600,2.601960693359375,0.6881966590881348,0.027108443900942802,-0.42042356729507446
1783245502737971500,2.611971435546875,0.6622823476791382,-0.1019451841711998,-0.3935350179672241
1783245502747983400,2.6219833984375,0.6178256869316101,-0.20135006308555603,-0.3578518331050873
1783245502757995500,2.63199560546875,0.5524861812591553,-0.25624001026153564,-0.31689685583114624
1783245502768006400,2.64200634765625,0.4723231792449951,-0.28000950813293457,-0.26523634791374207
1783245502778018600,2.6520185546875,0.3825852870941162,-0.2628912329673767,-0.19679991900920868
1783245502788030500,2.662030517578125,0.2821500301361084,-0.19986432790756226,-0.10617255419492722
1783245502798041300,2.672041259765625,0.17208370566368103,-0.12487255036830902,0.0006639538332819939
1783245502808053500,2.682053466796875,0.05880055949091911,-0.021427657455205917,0.10258898884057999
1783245502818065400,2.6920654296875,-0.049062810838222504,0.1414015293121338,0.1593153327703476
1783245502828076300,2.702076171875,-0.14036476612091064,0.2870442271232605,0.15724100172519684
1783245502838088400,2.71208837890625,-0.2124541699886322,0.34285247325897217,0.10499262809753418
1783245502848100400,2.722100341796875,-0.2672998607158661,0.29356271028518677,0.035098761320114136
1783245502858111500,2.732111572265625,-0.31955936551094055,0.1857045441865921,-0.002657834440469742
1783245502868123600,2.74212353515625,-0.38845106959342957,0.05742034316062927,0.0452154166996479
1783245502878135600,2.752135498046875,-0.4652431011199951,-0.0721767246723175,0.23103152215480804
1783245502888146400,2.762146484375,-0.5399730205535889,-0.2080855667591095,0.5491804480552673
1783245502898158600,2.77215869140625,-0.6101034283638,-0.33457958698272705,0.933768630027771
1783245502908170500,2.78217041015625,-0.6444270610809326,-0.31957584619522095,1.2474255561828613
1783245502918181400,2.792181396484375,-0.6179398894309998,-0.12798134982585907,1.3611695766448975
1783245502928193300,2.802193359375,-0.5523771047592163,0.1131119653582573,1.2235714197158813
1783245502938205400,2.812205322265625,-0.49518275260925293,0.3287685215473175,0.8404896259307861
1783245502948216300,2.82221630859375,-0.46769919991493225,0.49261870980262756,0.3331238627433777
1783245502958228200,2.832228271484375,-0.5062456130981445,0.5170820951461792,-0.12802068889141083
1783245502968240400,2.842240478515625,-0.6210123896598816,0.4910910129547119,-0.43112918734550476
1783245502978251500,2.85225146484375,-0.7836763858795166,0.5082061886787415,-0.5231013894081116
1783245502988263400,2.862263427734375,-0.9525575637817383,0.46579694747924805,-0.3927777111530304
1783245502998275600,2.872275634765625,-1.0533398389816284,0.34979209303855896,-0.1440676748752594
1783245503008286500,2.882286376953125,-0.9779718518257141,0.16967850923538208,-0.0037648952566087246
1783245503018298400,2.89229833984375,-0.7083158493041992,0.05341083183884621,-0.17380499839782715
1783245503028309200,2.902309326171875,-0.3963209092617035,0.052553027868270874,-0.6383638978004456
1783245503038321400,2.9123212890625,-0.19475294649600983,0.17262357473373413,-1.2580437660217285
1783245503048333300,2.922333251953125,-0.17427431046962738,0.3332260251045227,-1.8670018911361694
1783245503058345500,2.932345458984375,-0.2948310375213623,0.4832864999771118,-2.3194973468780518
1783245503068356600,2.942356689453125,-0.4355309009552002,0.6468431949615479,-2.5157642364501953
1783245503078368500,2.952368408203125,-0.4889374375343323,0.7321616411209106,-2.4929251670837402
1783245503088380400,2.96238037109375,-0.3884419798851013,0.8786903619766235,-2.165531873703003
1783245503098391600,2.9723916015625,-0.23595453798770905,1.0081086158752441,-1.8015327453613281
1783245503108403500,2.982403564453125,-0.13589051365852356,0.9767863750457764,-1.4694174528121948
1783245503118415400,2.992415283203125,-0.14132386445999146,0.9321815371513367,-1.2660140991210938
1783245503128426500,3.002426513671875,-0.21553711593151093,0.9809930324554443,-1.3011430501937866
1783245503138438400,3.0124384765625,-0.24665334820747375,0.9458131194114685,-1.5049877166748047
1783245503148449500,3.022449462890625,-0.24161118268966675,0.8366608023643494,-1.712733507156372
1783245503158461400,3.03246142578125,-0.23169291019439697,0.7514501214027405,-1.8558496236801147
1783245503168473600,3.0424736328125,-0.19940394163131714,0.7523190975189209,-1.915360450744629
1783245503178484500,3.052484375,-0.18105973303318024,0.8376339673995972,-1.8710603713989258
1783245503188496400,3.062496337890625,-0.15679141879081726,0.9024478197097778,-1.7449910640716553
1783245503198508500,3.072508544921875,-0.11000435799360275,0.8719480037689209,-1.5736849308013916
1783245503208519400,3.08251953125,-0.00691046379506588,0.7004207372665405,-1.3816922903060913
1783245503218531300,3.09253125,0.12252315133810043,0.5216959714889526,-1.234185814857483
1783245503228543500,3.10254345703125,0.22777900099754333,0.46554750204086304,-1.1561120748519897
1783245503238554400,3.112554443359375,0.2994644343852997,0.5225187540054321,-1.0956238508224487
1783245503248566300,3.122566162109375,0.34315067529678345,0.5512939691543579,-1.0018888711929321
1783245503258578400,3.132578369140625,0.3912161886692047,0.4737685024738312,-0.8506609797477722
1783245503268589600,3.142589599609375,0.4415448307991028,0.31869742274284363,-0.6468607783317566
1783245503278601500,3.1526015625,0.47133129835128784,0.14165674149990082,-0.4164878726005554
1783245503288613600,3.162613525390625,0.49587953090667725,-0.0701172947883606,-0.17728860676288605
1783245503298624500,3.17262451171875,0.5136458873748779,-0.28882527351379395,0.04762372002005577
1783245503308636400,3.182636474609375,0.518642783164978,-0.45279502868652344,0.2431785762310028
1783245503318648300,3.1926484375,0.5017534494400024,-0.4806201457977295,0.3780228793621063
1783245503328659500,3.202659423828125,0.4873095452785492,-0.3763408958911896,0.44606876373291016
1783245503338671400,3.21267138671875,0.47980210185050964,-0.16368567943572998,0.4620243310928345
1783245503348683300,3.222683349609375,0.4818093478679657,0.10371673852205276,0.43690112233161926
1783245503358694700,3.232694580078125,0.4902339279651642,0.3684980869293213,0.36036983132362366
1783245503368706600,3.24270654296875,0.5055750608444214,0.5174550414085388,0.2601897120475769
1783245503378718500,3.252718505859375,0.5088697671890259,0.5762286186218262,0.15214988589286804
1783245503388729300,3.262729248046875,0.4953254461288452,0.5624135136604309,0.04295442998409271
1783245503398741500,3.272741455078125,0.45830923318862915,0.48374423384666443,-0.0658048465847969
1783245503408753400,3.28275341796875,0.4058857262134552,0.3607623875141144,-0.18148110806941986
1783245503418764300,3.292764404296875,0.3370499014854431,0.2594742476940155,-0.3105398714542389
1783245503428776400,3.3027763671875,0.24447229504585266,0.24369606375694275,-0.44794830679893494
1783245503438788400,3.312788330078125,0.1399684101343155,0.28339922428131104,-0.5866448879241943
1783245503448799500,3.322799560546875,0.04171614348888397,0.3012048602104187,-0.7095130681991577
1783245503458811600,3.332811767578125,-0.005688303615897894,0.2610802948474884,-0.7982615232467651
1783245503468823600,3.342823486328125,0.037974487990140915,0.1989966630935669,-0.8410622477531433
1783245503478834400,3.35283447265625,0.12544196844100952,0.16729962825775146,-0.7959122657775879
1783245503488846600,3.3628466796875,0.22410595417022705,0.1629573553800583,-0.7116575837135315
1783245503498858500,3.3728583984375,0.31104615330696106,0.13983625173568726,-0.6058903336524963
1783245503508869400,3.382869384765625,0.36399325728416443,0.11765532195568085,-0.49917423725128174
1783245503518881500,3.392881591796875,0.38188931345939636,0.14396189153194427,-0.428802490234375
1783245503528893400,3.4028935546875,0.36442750692367554,0.1994674950838089,-0.4041517376899719
1783245503538904300,3.412904296875,0.33192604780197144,0.22058142721652985,-0.4105207920074463
1783245503548916200,3.422916259765625,0.2956114411354065,0.21013891696929932,-0.4114254415035248
1783245503558928400,3.432928466796875,0.2623920738697052,0.1992458552122116,-0.3898416757583618
1783245503568939500,3.442939453125,0.22642530500888824,0.24239331483840942,-0.33862003684043884
1783245503578951400,3.452951416015625,0.19061101973056793,0.312656968832016,-0.25280922651290894
1783245503588963600,3.462963623046875,0.17754821479320526,0.32422494888305664,-0.1560690850019455
1783245503598974500,3.472974365234375,0.20003806054592133,0.3055024743080139,-0.07653782516717911
1783245503608986400,3.482986328125,0.2597293555736542,0.29491639137268066,-0.02799958549439907
1783245503618998500,3.49299853515625,0.3549581468105316,0.27958112955093384,-0.016957322135567665
1783245503629009400,3.503009521484375,0.45110785961151123,0.32220128178596497,-0.0468188151717186
1783245503639021300,3.513021240234375,0.5194491147994995,0.4030740261077881,-0.11962910741567612
1783245503649033500,3.523033447265625,0.552065372467041,0.4912707507610321,-0.22616806626319885
1783245503659044600,3.533044677734375,0.5919910669326782,0.507135808467865,-0.3661070764064789
1783245503669056500,3.543056396484375,0.6456950306892395,0.4221170246601105,-0.5261121988296509
1783245503679068400,3.553068359375,0.7102602124214172,0.26502320170402527,-0.6906746625900269
1783245503689079600,3.56307958984375,0.8127285242080688,0.011398118920624256,-0.8474158048629761
1783245503699091500,3.573091552734375,0.9560191631317139,-0.2912670075893402,-0.9777873754501343
1783245503709103400,3.583103271484375,1.0708218812942505,-0.5036154985427856,-1.0518988370895386
1783245503719114500,3.593114501953125,1.0953011512756348,-0.5993970036506653,-1.0609205961227417
1783245503729126400,3.60312646484375,1.0319701433181763,-0.623623251914978,-0.9996762871742249
1783245503739138300,3.61313818359375,0.8802055716514587,-0.5577383041381836,-0.9035334587097168
1783245503749149400,3.6231494140625,0.6769542098045349,-0.4533937871456146,-0.7894982695579529
1783245503759161600,3.63316162109375,0.4609290063381195,-0.3570391535758972,-0.6470908522605896
1783245503769174000,3.643174072265625,0.2546687722206116,-0.23796764016151428,-0.47389647364616394
1783245503779185200,3.65318505859375,0.09778006374835968,-0.08924379199743271,-0.2787124812602997
1783245503789197000,3.663197021484375,-0.00045702443458139896,0.073588527739048,-0.08124867081642151
1783245503799209000,3.673208984375,-0.03447375074028969,0.18657486140727997,0.0999460220336914
1783245503809220000,3.68322021484375,-0.0007426822558045387,0.2008238434791565,0.2539704740047455
1783245503819232000,3.69323193359375,0.10186798125505447,0.15133166313171387,0.37417513132095337
1783245503829244000,3.703243896484375,0.24805209040641785,0.10824678093194962,0.4582122564315796
1783245503839255000,3.713255126953125,0.4006352424621582,0.11195949465036392,0.4882622957229614
1783245503849267000,3.723266845703125,0.5395808815956116,0.12578530609607697,0.4610053598880768
1783245503859278800,3.73327880859375,0.6515955924987793,0.13842718303203583,0.38637951016426086
1783245503869290000,3.7432900390625,0.728866696357727,0.15966403484344482,0.2928948402404785
1783245503879302100,3.75330224609375,0.7706465721130371,0.1794845312833786,0.1991095393896103
1783245503889314000,3.76331396484375,0.7779406905174255,0.18843434751033783,0.12418656796216965
1783245503899325000,3.773324951171875,0.7571864128112793,0.19000475108623505,0.07863038033246994
1783245503909337000,3.783337158203125,0.7166815996170044,0.17438718676567078,0.062357932329177856
1783245503919349000,3.793348876953125,0.6675917506217957,0.1386803686618805,0.0653352439403534
1783245503929360000,3.80335986328125,0.6272677779197693,0.1059298887848854,0.0568392351269722
1783245503939372000,3.8133720703125,0.6003579497337341,0.07879986613988876,0.040623389184474945
1783245503949384000,3.823384033203125,0.578036367893219,-0.0006390295457094908,0.026349643245339394
1783245503959394800,3.833394775390625,0.5375064015388489,-0.12532302737236023,0.027811862528324127
1783245503969407000,3.843406982421875,0.4920254647731781,-0.2170604169368744,0.05564455687999725
1783245503979419000,3.8534189453125,0.4611653685569763,-0.25853100419044495,0.09949204325675964
1783245503989430000,3.863429931640625,0.4486865997314453,-0.2477385699748993,0.1528325080871582
1783245503999442200,3.873442138671875,0.441301554441452,-0.20936085283756256,0.2042223960161209
1783245504009454000,3.8834541015625,0.4310430586338043,-0.16225911676883698,0.24845270812511444
1783245504019465000,3.89346484375,0.4164019823074341,-0.10327838361263275,0.2728039622306824
1783245504029476900,3.903476806640625,0.39670178294181824,-0.023462649434804916,0.26876100897789
1783245504039489000,3.913489013671875,0.37584754824638367,0.0599125400185585,0.2296733856201172
1783245504049500000,3.9235,0.3595399260520935,0.13808217644691467,0.16520677506923676
1783245504059511800,3.93351171875,0.34902238845825195,0.19854125380516052,0.09161701798439026
1783245504069524000,3.94352392578125,0.34820133447647095,0.21753038465976715,0.023794032633304596
1783245504079535000,3.95353515625,0.3572831153869629,0.1902899146080017,-0.043042514473199844
1783245504089547000,3.963547119140625,0.3774847984313965,0.11937367171049118,-0.10835707187652588
1783245504099559200,3.97355908203125,0.4023556113243103,0.03324377164244652,-0.18368341028690338
1783245504109570000,3.983570068359375,0.4310098886489868,-0.023332158103585243,-0.26903533935546875
1783245504119582000,3.99358203125,0.4643612802028656,-0.02713954634964466,-0.3736007511615753
1783245504129594000,4.003593994140625,0.500678300857544,0.013194294646382332,-0.4903968870639801
1783245504139605000,4.01360498046875,0.5294273495674133,0.057980138808488846,-0.5918614268302917
1783245504149617000,4.023616943359375,0.5502817630767822,0.07190687954425812,-0.6493737101554871
1783245504159628800,4.03362890625,0.555367648601532,0.04399215057492256,-0.6473654508590698
1783245504169640200,4.04364013671875,0.534532368183136,-0.004782576113939285,-0.5979829430580139
1783245504179652000,4.053652099609375,0.4969474971294403,-0.0397426076233387,-0.5207322835922241
1783245504189664000,4.0636640625,0.44585129618644714,-0.05658310651779175,-0.43480274081230164
1783245504199675100,4.073675048828125,0.3930630087852478,-0.07035020738840103,-0.3419972062110901
1783245504209687000,4.08368701171875,0.33253708481788635,-0.08224601298570633,-0.2500803470611572
1783245504219699000,4.093698974609375,0.26507580280303955,-0.07575574517250061,-0.15299870073795319
1783245504229710000,4.1037099609375,0.19361573457717896,-0.0610087588429451,-0.04408526420593262
1783245504239722000,4.113721923828125,0.11865871399641037,-0.05128522217273712,0.07066309452056885
1783245504249734000,4.12373388671875,0.04133463278412819,-0.01669289357960224,0.1651618927717209
1783245504259744800,4.133744873046875,-0.026151524856686592,0.029568001627922058,0.22381868958473206
1783245504269757000,4.1437568359375,-0.07295338064432144,0.038222476840019226,0.25271931290626526
1783245504279768800,4.153768798828125,-0.0967831090092659,-0.01274869218468666,0.2740209698677063
1783245504289780000,4.163780029296875,-0.10971781611442566,-0.10359524190425873,0.30175861716270447
1783245504299792100,4.173792236328125,-0.1059257984161377,-0.20902453362941742,0.34893709421157837
1783245504309804000,4.183803955078125,-0.0862056240439415,-0.33639422059059143,0.396668404340744
1783245504319815000,4.19381494140625,-0.05382286384701729,-0.4521729350090027,0.43309107422828674
1783245504329827000,4.2038271484375,-0.008387737907469273,-0.5517352223396301,0.4529174864292145
1783245504339839000,4.2138388671875,0.03550879657268524,-0.6087539196014404,0.455745130777359
1783245504349849900,4.223849853515625,0.05685616284608841,-0.5873256325721741,0.4397858679294586
1783245504359862000,4.233862060546875,0.04920357093214989,-0.5034397840499878,0.4181903004646301
1783245504369874000,4.2438740234375,0.011900409124791622,-0.3783084750175476,0.3940039873123169
1783245504379885000,4.253885009765625,-0.038664765655994415,-0.22894537448883057,0.3641755282878876
1783245504389897000,4.26389697265625,-0.09929242730140686,-0.08587396889925003,0.3217516243457794
1783245504399909000,4.2739091796875,-0.1859346479177475,0.04028104245662689,0.26627400517463684
1783245504409920000,4.283919921875,-0.29107171297073364,0.12784337997436523,0.2098461538553238
1783245504419932000,4.293931884765625,-0.4015578329563141,0.17399701476097107,0.1690092533826828
1783245504429944000,4.303944091796875,-0.4927670955657959,0.18380729854106903,0.16659563779830933
1783245504439955000,4.313954833984375,-0.5507580041885376,0.12975619733333588,0.20058700442314148
1783245504449966800,4.323966796875,-0.5630666017532349,0.008401009254157543,0.2533647418022156
1783245504459979000,4.33397900390625,-0.5410860776901245,-0.1377813071012497,0.31111228466033936
1783245504469990000,4.343989990234375,-0.4836920499801636,-0.2970082461833954,0.36875906586647034
1783245504480002000,4.354001953125,-0.39639464020729065,-0.4456019401550293,0.42094072699546814
1783245504490014000,4.364013916015625,-0.2903158664703369,-0.5414294004440308,0.45397910475730896
1783245504500025000,4.374025146484375,-0.17690807580947876,-0.5688517093658447,0.45841681957244873
1783245504510037000,4.384037109375,-0.07652049511671066,-0.5246443152427673,0.43899306654930115
1783245504520049200,4.394049072265625,0.00018251198343932629,-0.4478852450847626,0.3963642418384552
1783245504530060000,4.40406005859375,0.05420846492052078,-0.3644787669181824,0.3149071931838989
1783245504540072000,4.414072021484375,0.07633325457572937,-0.27091094851493835,0.19560682773590088
1783245504550083800,4.424083740234375,0.06713869422674179,-0.14728859066963196,0.03902919590473175
1783245504560095000,4.434094970703125,0.04169106110930443,0.0005586632760241628,-0.12672095000743866
1783245504570107000,4.44410693359375,-0.0030862640123814344,0.15279453992843628,-0.2888217270374298
1783245504580118800,4.454118896484375,-0.06610411405563354,0.2758174240589142,-0.42757347226142883
1783245504590130200,4.464130126953125,-0.149584099650383,0.36405301094055176,-0.5336540937423706
1783245504600142000,4.47414208984375,-0.2362860143184662,0.4320591390132904,-0.5914978384971619
1783245504610154000,4.484154052734375,-0.28751060366630554,0.4872318506240845,-0.6073553562164307
1783245504620164900,4.494164794921875,-0.2824667692184448,0.519470751285553,-0.5872793793678284
1783245504630177000,4.504177001953125,-0.21342377364635468,0.5132735371589661,-0.5379422307014465
1783245504640189000,4.51418896484375,-0.1005677655339241,0.41845983266830444,-0.45337051153182983
1783245504650199800,4.52419970703125,0.022711560130119324,0.25134408473968506,-0.34330499172210693
1783245504660212000,4.5342119140625,0.12298288941383362,0.061220813542604446,-0.22395630180835724
1783245504670224000,4.544223876953125,0.1853133738040924,-0.09359673410654068,-0.11609400808811188
1783245504680235000,4.554235107421875,0.21613290905952454,-0.1704099476337433,-0.04035911336541176
1783245504690247200,4.5642470703125,0.21681441366672516,-0.17134204506874084,-0.011682993732392788
1783245504700259000,4.574259033203125,0.20030376315116882,-0.14136797189712524,-0.013956986367702484
1783245504710270000,4.58427001953125,0.18967482447624207,-0.11427457630634308,-0.036107830703258514
1783245504720282000,4.5942822265625,0.19757840037345886,-0.1020079255104065,-0.07156767696142197
1783245504730294000,4.6042939453125,0.22128824889659882,-0.07405965030193329,-0.11298089474439621
1783245504740305000,4.614304931640625,0.26874250173568726,-0.047134898602962494,-0.15940257906913757
1783245504750317000,4.624317138671875,0.3422686755657196,-0.020914481952786446,-0.21778465807437897
1783245504760329000,4.634328857421875,0.40293630957603455,0.021838586777448654,-0.287980318069458
1783245504770339800,4.64433984375,0.44734930992126465,0.062397997826337814,-0.37247389554977417
1783245504780352000,4.65435205078125,0.4803518056869507,0.06955457478761673,-0.46045318245887756
1783245504790364000,4.664364013671875,0.5042523741722107,0.08565045148134232,-0.5425466895103455
1783245504800374800,4.674374755859375,0.5238935947418213,0.10707277804613113,-0.6164255142211914
1783245504810387000,4.684386962890625,0.5293927192687988,0.14120279252529144,-0.682791531085968
1783245504820398800,4.69439892578125,0.5240671634674072,0.19756880402565002,-0.7272431254386902
1783245504830409700,4.70440966796875,0.5126031041145325,0.25309595465660095,-0.7290359735488892
1783245504840422000,4.714421875,0.5097783803939819,0.27393123507499695,-0.6753479838371277
1783245504850433800,4.724433837890625,0.5144346356391907,0.26207590103149414,-0.5752160549163818
1783245504860444700,4.734444580078125,0.5245289206504822,0.24144117534160614,-0.44502121210098267
1783245504870456800,4.744456787109375,0.5365094542503357,0.23299309611320496,-0.3171716332435608
1783245504880468700,4.75446875,0.5495156645774841,0.23865830898284912,-0.20456087589263916
1783245504890479900,4.76447998046875,0.5769987106323242,0.2520018219947815,-0.11338169872760773
1783245504900491800,4.77449169921875,0.6106631755828857,0.25431010127067566,-0.027527958154678345
1783245504910504000,4.78450390625,0.6623247861862183,0.22269867360591888,0.05796297267079353
1783245504920514800,4.794514892578125,0.7421965599060059,0.19971731305122375,0.14731775224208832
1783245504930526700,4.804526611328125,0.7850756049156189,0.21157264709472656,0.24982044100761414
1783245504940539000,4.814538818359375,0.8232852220535278,0.19057773053646088,0.36311841011047363
1783245504950549800,4.8245498046875,0.8564397096633911,0.17429091036319733,0.4735197424888611
1783245504960561700,4.834561767578125,0.8824362754821777,0.17062066495418549,0.5715543627738953
1783245504970573800,4.84457373046875,0.8992810249328613,0.1879700869321823,0.628212034702301
1783245504980585000,4.8545849609375,0.9208271503448486,0.19997696578502655,0.6385099291801453
1783245504990596900,4.864596923828125,0.9412916898727417,0.19045749306678772,0.6003012657165527
1783245505000609000,4.874609130859375,0.9654103517532349,0.14411449432373047,0.5338857769966125
1783245505010620000,4.884619873046875,0.9864298701286316,0.04790780320763588,0.45130935311317444
1783245505020631800,4.8946318359375,0.9989662766456604,-0.09243831783533096,0.35659000277519226
1783245505030643700,4.904643798828125,0.9912886619567871,-0.23749059438705444,0.2612331211566925
1783245505040654800,4.91465478515625,0.9602698683738708,-0.33658936619758606,0.17109376192092896
1783245505050666800,4.924666748046875,0.9197144508361816,-0.39181026816368103,0.08463343977928162
1783245505060678700,4.9346787109375,0.8801954388618469,-0.47217607498168945,0.009316706098616123
1783245505070689800,4.944689697265625,0.8310009837150574,-0.48982590436935425,-0.050991639494895935
1783245505080702000,4.954701904296875,0.7943558096885681,-0.4260861873626709,-0.09619201719760895
1783245505090713900,4.9647138671875,0.7803326845169067,-0.32778438925743103,-0.12453816831111908
1783245505100725000,4.97472509765625,0.7877479791641235,-0.21778778731822968,-0.11409571766853333
1783245505110737000,4.98473681640625,0.8150866627693176,-0.11025520414113998,-0.07561543583869934
1783245505120748800,4.994748779296875,0.875349760055542,-0.010817496106028557,-0.03279690816998482
1783245505130759700,5.004759765625,0.9586960673332214,0.08737777918577194,0.0040969280526041985
1783245505140771800,5.014771728515625,1.0545063018798828,0.14578649401664734,0.042588431388139725
1783245505150783700,5.02478369140625,1.130618691444397,0.18436583876609802,0.07593174278736115
1783245505160794600,5.034794677734375,1.164609432220459,0.22771930694580078,0.11049994081258774
1783245505170806800,5.044806884765625,1.1542328596115112,0.2538401186466217,0.16041556000709534
1783245505180818700,5.054818603515625,1.1273373365402222,0.2508465349674225,0.2187134325504303
1783245505190829800,5.064829833984375,1.1119812726974487,0.22083882987499237,0.2800401747226715
1783245505200842000,5.074842041015625,1.1124359369277954,0.1311337798833847,0.33944883942604065
1783245505210854000,5.08485400390625,1.120902419090271,0.007482677698135376,0.39875611662864685
1783245505220864800,5.09486474609375,1.1271055936813354,-0.10654602944850922,0.44920292496681213
1783245505230877000,5.104876953125,1.1143444776535034,-0.1749623715877533,0.4867713451385498
1783245505240888800,5.114888916015625,1.0979865789413452,-0.15467478334903717,0.5215634107589722
1783245505250899700,5.124899658203125,1.0840898752212524,-0.08523950725793839,0.5552963614463806
1783245505260911600,5.13491162109375,1.0774848461151123,-0.00741297984495759,0.5760167241096497
1783245505270923800,5.144923828125,1.0710093975067139,0.12132076919078827,0.5644077658653259
1783245505280935000,5.154934814453125,1.0488009452819824,0.3000820577144623,0.52931147813797
1783245505290946800,5.16494677734375,0.9998162984848022,0.49417299032211304,0.47439783811569214
1783245505300959000,5.174958984375,0.9267501831054688,0.6665514707565308,0.4209708273410797
1783245505310969900,5.184969970703125,0.8486242294311523,0.7550848126411438,0.35857829451560974
1783245505320981800,5.194981689453125,0.7817098498344421,0.7305887937545776,0.2697133421897888
1783245505330994000,5.204993896484375,0.7201881408691406,0.6123138070106506,0.16517098248004913
1783245505341004800,5.2150048828125,0.6907361149787903,0.5129625201225281,0.05461908131837845
1783245505351016700,5.2250166015625,0.7108064889907837,0.4245058596134186,-0.05922333151102066
1783245505361028900,5.23502880859375,0.7730221152305603,0.3069198727607727,-0.13959509134292603
1783245505371039700,5.245039794921875,0.857701301574707,0.20513249933719635,-0.19664160907268524
1783245505381052000,5.255052001953125,0.9483900666236877,0.1456741988658905,-0.24170416593551636
1783245505391063800,5.265063720703125,1.0226632356643677,0.12982839345932007,-0.28355494141578674
1783245505401075000,5.275074951171875,1.0710076093673706,0.13514651358127594,-0.3273458778858185
1783245505411086800,5.2850869140625,1.1033471822738647,0.1301584094762802,-0.3748481571674347
1783245505421098800,5.2950986328125,1.1356890201568604,0.09981101751327515,-0.43252062797546387
1783245505431110000,5.30510986328125,1.1587988138198853,0.04076234623789787,-0.49744129180908203
1783245505441121800,5.315121826171875,1.1638295650482178,0.001487250905483961,-0.5544067621231079
1783245505451133700,5.3251337890625,1.1289186477661133,0.0053949072025716305,-0.5809893608093262
1783245505461144800,5.335144775390625,1.065393328666687,0.007147385738790035,-0.5615395307540894
1783245505471156700,5.34515673828125,0.9981371164321899,0.020792357623577118,-0.4921343922615051
1783245505481168600,5.355168701171875,0.9334723949432373,0.025893542915582657,-0.38344329595565796
1783245505491179800,5.3651796875,0.8721293807029724,0.019969873130321503,-0.24018387496471405
1783245505501192000,5.37519189453125,0.8292397260665894,0.01896243914961815,-0.08668697625398636
1783245505511203800,5.385203857421875,0.8160797357559204,0.04177401214838028,0.05877675116062164
1783245505521214700,5.395214599609375,0.8321373462677002,0.10967608541250229,0.1604192554950714
1783245505531227000,5.405226806640625,0.8678151965141296,0.21420782804489136,0.1975405365228653
1783245505541238800,5.41523876953125,0.9035100936889648,0.3316197097301483,0.16692981123924255
1783245505551249700,5.425249755859375,0.9436825513839722,0.4230675995349884,0.07835840433835983
1783245505561261800,5.43526171875,0.9981383085250854,0.4267368018627167,-0.05584321171045303
1783245505571273700,5.445273681640625,1.0624812841415405,0.37494605779647827,-0.2045099139213562
1783245505581284900,5.455284912109375,1.1401292085647583,0.32622823119163513,-0.3469793498516083
1783245505591297000,5.465297119140625,1.2161003351211548,0.27301880717277527,-0.4673425257205963
1783245505601309000,5.475308837890625,1.278727650642395,0.2065160870552063,-0.5553082227706909
1783245505611319800,5.48531982421875,1.3090898990631104,0.15767024457454681,-0.6161015033721924
1783245505621332000,5.49533203125,1.2925857305526733,0.1252458691596985,-0.6465967893600464
1783245505631343900,5.50534375,1.2477924823760986,0.10388385504484177,-0.6501734256744385
1783245505641354800,5.515354736328125,1.1994720697402954,0.10181144624948502,-0.6333954930305481
1783245505651366700,5.52536669921875,1.1506386995315552,0.13354113698005676,-0.602088451385498
1783245505661378800,5.53537890625,1.1056543588638306,0.19300155341625214,-0.5614681243896484
1783245505671389700,5.5453896484375,1.0641871690750122,0.24374116957187653,-0.5117554068565369
1783245505681401900,5.55540185546875,1.0119121074676514,0.2568396329879761,-0.4473518133163452
1783245505691413800,5.565413818359375,0.9399651288986206,0.24435873329639435,-0.37057527899742126
1783245505701425000,5.5754248046875,0.8576855063438416,0.20649179816246033,-0.2833557724952698
1783245505711436800,5.585436767578125,0.7737684845924377,0.17039531469345093,-0.19560036063194275
1783245505721449000,5.595448974609375,0.6880819201469421,0.13536573946475983,-0.10921134054660797
1783245505731459800,5.6054599609375,0.6034032702445984,0.09834273159503937,-0.019180787727236748
1783245505741471700,5.6154716796875,0.5191149711608887,0.06473878771066666,0.06058628857135773
1783245505751484000,5.62548388671875,0.44234699010849,0.03470684960484505,0.13117602467536926
1783245505761494800,5.635494873046875,0.37314915657043457,0.02488284930586815,0.19296149909496307
1783245505771506700,5.645506591796875,0.3087741732597351,0.02698887698352337,0.2464766502380371
1783245505781518800,5.655518798828125,0.2640225887298584,0.01660527102649212,0.29096606373786926
1783245505791530000,5.665530029296875,0.2506362199783325,-0.00022324430756270885,0.3185553252696991
1783245505801542000,5.6755419921875,0.2666582465171814,-0.01714969053864479,0.323140949010849
1783245505811553800,5.6855537109375,0.30368712544441223,-0.04833051189780235,0.3103950619697571
1783245505821565000,5.69556494140625,0.3441559672355652,-0.07936938852071762,0.27376222610473633
1783245505831576800,5.705576904296875,0.35711631178855896,-0.09451139718294144,0.22492152452468872
1783245505841588700,5.715588623046875,0.32961195707321167,-0.07749490439891815,0.16847848892211914
1783245505851600000,5.725599853515625,0.25617074966430664,-0.04494389146566391,0.11633779108524323
1783245505861611800,5.73561181640625,0.1375272125005722,-0.004046350717544556,0.08054056018590927
1783245505871623700,5.745623779296875,-0.01060766912996769,0.06522566825151443,0.06983358412981033
1783245505881634800,5.755634765625,-0.16081783175468445,0.16397495567798615,0.08218145370483398
1783245505891647000,5.76564697265625,-0.28299859166145325,0.2664265036582947,0.10689212381839752
1783245505901659000,5.775658935546875,-0.3522965610027313,0.3423078656196594,0.12568612396717072
1783245505911669800,5.785669677734375,-0.36666005849838257,0.34959906339645386,0.14059770107269287
1783245505921682000,5.795681884765625,-0.31287235021591187,0.29190853238105774,0.16676069796085358
1783245505931693800,5.80569384765625,-0.19190919399261475,0.17704668641090393,0.20432883501052856
1783245505941704700,5.81570458984375,-0.03141995146870613,0.04226609691977501,0.25320833921432495
1783245505951716900,5.825716796875,0.13345608115196228,-0.08876089751720428,0.303489089012146
1783245505961728800,5.835728759765625,0.28584110736846924,-0.20833656191825867,0.34604987502098083
1783245505971739600,5.84573974609375,0.397636353969574,-0.27716463804244995,0.3826289176940918
1783245505981751800,5.855751708984375,0.4950418770313263,-0.25304117798805237,0.3956458568572998
1783245505991763700,5.865763671875,0.5863363146781921,-0.1666916310787201,0.36399605870246887
1783245506001774800,5.87577490234375,0.6632124185562134,-0.07746263593435287,0.2812771797180176
1783245506011786800,5.885786865234375,0.7077077627182007,-0.018530072644352913,0.16701026260852814
1783245506021799000,5.895798828125,0.73133385181427,0.031916722655296326,0.040483616292476654
1783245506031809800,5.905809814453125,0.759062647819519,0.09006178379058838,-0.09366858750581741
1783245506041821700,5.91582177734375,0.7559429407119751,0.17290472984313965,-0.21707971394062042
1783245506051833900,5.925833740234375,0.7398867607116699,0.24249953031539917,-0.3238477408885956
1783245506061844700,5.9358447265625,0.7191398739814758,0.28903627395629883,-0.3925797939300537
1783245506071856600,5.945856689453125,0.7168684601783752,0.36827462911605835,-0.4534149169921875
1783245506081868800,5.955868896484375,0.7301121950149536,0.46251869201660156,-0.5021396279335022
1783245506091880000,5.9658798828125,0.7696758508682251,0.5382986664772034,-0.5360696315765381
1783245506101891800,5.975891845703125,0.8410113453865051,0.5460621118545532,-0.5705565810203552
1783245506111904000,5.985904052734375,0.9287316203117371,0.48320460319519043,-0.5821996331214905
1783245506121915000,5.995914794921875,1.0148996114730835,0.42128950357437134,-0.5601832866668701
1783245506131926800,6.0059267578125,1.0960665941238403,0.3422766923904419,-0.5201783180236816
1783245506141939000,6.01593896484375,1.1852303743362427,0.21570923924446106,-0.4866635799407959
1783245506151949800,6.02594970703125,1.2663280963897705,0.09618444740772247,-0.45463985204696655
1783245506161961700,6.035961669921875,1.3232356309890747,0.046554312109947205,-0.42072078585624695
1783245506171973600,6.0459736328125,1.356094479560852,0.05110485479235649,-0.3798271417617798
1783245506181985000,6.055985107421875,1.3623864650726318,0.08147387951612473,-0.34403228759765625
1783245506191997000,6.065996826171875,1.3546334505081177,0.091008260846138,-0.3142120838165283
1783245506202008800,6.0760087890625,1.3313534259796143,0.09400912374258041,-0.29192471504211426
1783245506212020000,6.08602001953125,1.2796766757965088,0.10219833999872208,-0.27118799090385437
1783245506222032000,6.096031982421875,1.2203861474990845,0.13645246624946594,-0.25383487343788147
1783245506232043800,6.106043701171875,1.1840074062347412,0.14184030890464783,-0.2509455978870392
1783245506242054700,6.1160546875,1.170043706893921,0.14228662848472595,-0.2556600868701935
1783245506252066800,6.12606689453125,1.1598623991012573,0.18317148089408875,-0.24063216149806976
1783245506262078700,6.13607861328125,1.1503809690475464,0.23278644680976868,-0.20536744594573975
1783245506272089600,6.146089599609375,1.1438117027282715,0.251072496175766,-0.15200142562389374
1783245506282101800,6.156101806640625,1.1400909423828125,0.25954708456993103,-0.08245091885328293
1783245506292113700,6.16611376953125,1.1505417823791504,0.26559779047966003,-0.00396729214116931
1783245506302124800,6.176124755859375,1.1794401407241821,0.28397202491760254,0.06990629434585571
1783245506312137000,6.186136962890625,1.2054331302642822,0.32157212495803833,0.13247939944267273
1783245506322148900,6.19614892578125,1.2132716178894043,0.33623239398002625,0.17447687685489655
1783245506332159700,6.20615966796875,1.1734099388122559,0.30284035205841064,0.16140927374362946
1783245506342172000,6.216171875,1.0911564826965332,0.2221870720386505,0.10533372312784195
1783245506352183800,6.226183837890625,0.9930070042610168,0.14315323531627655,0.017743684351444244
1783245506362194700,6.236194580078125,0.912152111530304,0.06714462488889694,-0.0535956546664238
1783245506372206800,6.246206787109375,0.8651785254478455,0.013526673428714275,-0.08344808965921402
1783245506382218800,6.25621875,0.8460984230041504,0.014070066623389721,-0.07361862808465958
1783245506392230000,6.26622998046875,0.8338777422904968,0.05232451111078262,-0.030878353863954544
1783245506402241800,6.27624169921875,0.8242014050483704,0.10219879448413849,0.025577854365110397
1783245506412254000,6.28625390625,0.8236413598060608,0.1601201444864273,0.07247426360845566
1783245506422264800,6.296264892578125,0.825021505355835,0.23477336764335632,0.0833616703748703
1783245506432276700,6.30627685546875,0.8188033103942871,0.30135929584503174,0.07020273059606552
1783245506442289000,6.316288818359375,0.8168872594833374,0.3485710322856903,0.03201138228178024
1783245506452299800,6.3262998046875,0.8265657424926758,0.3694547414779663,-0.0225266944617033
1783245506462311700,6.336311767578125,0.8491108417510986,0.3478160798549652,-0.07915271073579788
1783245506472323800,6.34632373046875,0.8807002305984497,0.29666128754615784,-0.14050929248332977
1783245506482335000,6.3563349609375,0.9147334098815918,0.24846979975700378,-0.20074628293514252
1783245506492347000,6.366346923828125,0.938781201839447,0.20788295567035675,-0.25959309935569763
1783245506502359000,6.376359130859375,0.9557555913925171,0.16633765399456024,-0.32177820801734924
1783245506512370000,6.386369873046875,0.9649229645729065,0.11686676740646362,-0.3830175995826721
1783245506522381800,6.3963818359375,0.9650771617889404,0.03712659329175949,-0.4236360192298889
1783245506532394000,6.40639404296875,0.947551965713501,-0.05591413751244545,-0.43364498019218445
1783245506542404900,6.41640478515625,0.9219194054603577,-0.1865594983100891,-0.4140681028366089
1783245506552416800,6.426416748046875,0.887310802936554,-0.3210320770740509,-0.366803377866745
1783245506562428700,6.4364287109375,0.8574544191360474,-0.4078788757324219,-0.29606738686561584
1783245506572439800,6.446439697265625,0.8510636687278748,-0.4195350110530853,-0.24322256445884705
1783245506582451700,6.45645166015625,0.8527132868766785,-0.3435421288013458,-0.21273288130760193
1783245506592463600,6.466463623046875,0.8794344067573547,-0.2338515818119049,-0.0215674489736557
1783245506602475000,6.47647509765625,1.029553771018982,0.15203043818473816,0.19028949737548828
1783245506612487000,6.48648681640625,1.1758031845092773,0.7281360626220703,0.2739045023918152
1783245506622498800,6.496498779296875,1.1877151727676392,1.1230605840682983,0.16084209084510803
1783245506632509700,6.506509765625,1.1367945671081543,1.1163913011550903,-0.05144485831260681
1783245506642521900,6.51652197265625,1.132804274559021,0.8853206038475037,-0.27091801166534424
1783245506652533800,6.52653369140625,1.195191740989685,0.6395377516746521,-0.4476728141307831
1783245506662544600,6.536544677734375,1.268256664276123,0.40377500653266907,-0.5680361986160278
1783245506672556800,6.546556884765625,1.2974772453308105,0.1591186821460724,-0.6105940937995911
1783245506682568700,6.556568603515625,1.306331753730774,-0.09115209430456161,-0.558597981929779
1783245506692579800,6.566579833984375,1.3366403579711914,-0.18947359919548035,-0.41691702604293823
