time,seconds_elapsed,z,y,x
1783245716196886500,0.066886474609375,0.2106010913848877,0.45272454619407654,0.30150166153907776
1783245716206898400,0.0768984375,0.20568375289440155,0.40043777227401733,0.41690340638160706
1783245716216910600,0.08691064453125,0.22810117900371552,0.3483213186264038,0.5659525394439697
1783245716226922500,0.096922607421875,0.27452945709228516,0.3310641646385193,0.7342419624328613
1783245716236934400,0.106934326171875,0.3334540128707886,0.3712962567806244,0.8907695412635803
1783245716246946600,0.116946533203125,0.388565331697464,0.44932714104652405,1.0112102031707764
1783245716256958500,0.12695849609375,0.45969969034194946,0.482356995344162,1.0870344638824463
1783245716266970600,0.136970703125,0.5622192025184631,0.4260949492454529,1.1165143251419067
1783245716276982500,0.146982421875,0.6985757350921631,0.3358745276927948,1.1045337915420532
1783245716286994400,0.156994384765625,0.8335397839546204,0.27074456214904785,1.0530221462249756
1783245716297006600,0.167006591796875,0.9402947425842285,0.22602343559265137,0.9435092806816101
1783245716307018500,0.1770185546875,0.998538613319397,0.15685680508613586,0.789562463760376
1783245716317030400,0.187030517578125,0.9996882677078247,0.021113349124789238,0.609341025352478
1783245716327042600,0.19704248046875,0.9506571292877197,-0.1596503108739853,0.44833487272262573
1783245716337054500,0.207054443359375,0.8825350403785706,-0.3843268156051636,0.33305302262306213
1783245716347066600,0.217066650390625,0.8205662369728088,-0.6188996434211731,0.2677491307258606
1783245716357078500,0.22707861328125,0.7718737721443176,-0.8144843578338623,0.24813148379325867
1783245716367090400,0.23709033203125,0.7450476884841919,-0.9415376782417297,0.26482078433036804
1783245716377102600,0.2471025390625,0.7558444142341614,-0.9364027976989746,0.29109448194503784
1783245716387114500,0.257114501953125,0.7958242893218994,-0.7445271015167236,0.32923611998558044
1783245716397126400,0.26712646484375,0.8525882363319397,-0.4087940752506256,0.3744880259037018
1783245716407138600,0.277138671875,0.8843445181846619,-0.019255293533205986,0.39424777030944824
1783245716417150500,0.287150390625,0.8509173393249512,0.2996949851512909,0.3827551603317261
1783245716427162600,0.29716259765625,0.7475420832633972,0.4679204225540161,0.34793663024902344
1783245716437174500,0.307174560546875,0.6094169616699219,0.5156285166740417,0.3075607120990753
1783245716447186400,0.3171865234375,0.4855101704597473,0.4550914764404297,0.28739723563194275
1783245716457198600,0.327198486328125,0.3902912139892578,0.3109247386455536,0.30902984738349915
1783245716467210500,0.33721044921875,0.33359044790267944,0.22278398275375366,0.34588074684143066
1783245716477222400,0.347222412109375,0.26498690247535706,0.34067147970199585,0.40077513456344604
1783245716487234600,0.357234619140625,0.33555129170417786,0.30897611379623413,0.3312044143676758
1783245716497246500,0.36724658203125,0.3945147395133972,0.2437366545200348,0.20366747677326202
1783245716507258600,0.377258544921875,0.330451637506485,0.308817595243454,0.14900408685207367
1783245716517270500,0.3872705078125,0.3737679421901703,0.16022223234176636,0.022429101169109344
1783245716527282400,0.397282470703125,0.42588135600090027,-0.12904740869998932,-0.11889426410198212
1783245716537294600,0.407294677734375,0.41206568479537964,-0.382649302482605,-0.19891905784606934
1783245716547306500,0.417306396484375,0.38272741436958313,-0.5630342364311218,-0.2248643934726715
1783245716557318400,0.427318359375,0.38187307119369507,-0.6922391057014465,-0.23491889238357544
1783245716567330600,0.43733056640625,0.41175544261932373,-0.7195358872413635,-0.2610313594341278
1783245716577341400,0.447341552734375,0.4600446820259094,-0.6037309765815735,-0.3236420154571533
1783245716587353300,0.457353271484375,0.5078105926513672,-0.37941789627075195,-0.41939616203308105
1783245716597365500,0.467365478515625,0.5707592368125916,-0.13286003470420837,-0.5539148449897766
1783245716607377400,0.47737744140625,0.6633315682411194,0.10893700271844864,-0.7166645526885986
1783245716617389600,0.4873896484375,0.8038071990013123,0.25540608167648315,-0.8786571621894836
1783245716627401500,0.4974013671875,0.9680427312850952,0.2656874358654022,-0.9788113832473755
1783245716637413400,0.507413330078125,1.131747841835022,0.25018036365509033,-1.0175325870513916
1783245716647425500,0.517425537109375,1.2611268758773804,0.28877541422843933,-1.0142813920974731
1783245716657437400,0.5274375,1.3246270418167114,0.3621572256088257,-0.9789766669273376
1783245716667449600,0.53744970703125,1.3228261470794678,0.4697677195072174,-0.8719743490219116
1783245716677461500,0.54746142578125,1.2448536157608032,0.551805853843689,-0.7757863402366638
1783245716687473400,0.557473388671875,1.0966732501983643,0.5255266427993774,-0.6827763319015503
1783245716697485600,0.567485595703125,0.913576602935791,0.469855397939682,-0.5794946551322937
1783245716707497500,0.57749755859375,0.7108240723609924,0.37560373544692993,-0.47520583868026733
1783245716717509600,0.587509521484375,0.4970254600048065,0.24827638268470764,-0.37072286009788513
1783245716727521500,0.597521484375,0.27713248133659363,0.12845897674560547,-0.2917373478412628
1783245716737533700,0.60753369140625,0.08741049468517303,0.002322884276509285,-0.2519931495189667
1783245716747545600,0.617545654296875,-0.05973994731903076,-0.19513604044914246,-0.2584594488143921
1783245716757557500,0.6275576171875,-0.17070454359054565,-0.4606345593929291,-0.2897779643535614
1783245716767569700,0.637569580078125,-0.26155975461006165,-0.6891306638717651,-0.3374675512313843
1783245716777581600,0.64758154296875,-0.3687887489795685,-0.8275407552719116,-0.371450275182724
1783245716787593700,0.65759375,-0.5014843344688416,-0.9323468804359436,-0.3881131708621979
1783245716797605600,0.667605712890625,-0.6328897476196289,-1.0644761323928833,-0.37365058064460754
1783245716807617500,0.677617431640625,-0.7225949764251709,-1.1631319522857666,-0.31154605746269226
1783245716817629700,0.687629638671875,-0.7731351256370544,-1.195164442062378,-0.19201883673667908
1783245716827641600,0.6976416015625,-0.7863948345184326,-1.1893091201782227,-0.019236406311392784
1783245716837653800,0.70765380859375,-0.776944637298584,-1.1348568201065063,0.18012383580207825
1783245716847665700,0.717665771484375,-0.7644146680831909,-1.0504915714263916,0.37245628237724304
1783245716857677600,0.727677490234375,-0.762991189956665,-0.9935058355331421,0.5296408534049988
1783245716867689700,0.737689697265625,-0.738816499710083,-0.9915008544921875,0.6620132923126221
1783245716877701600,0.74770166015625,-0.6795092225074768,-0.9733220934867859,0.7229448556900024
1783245716887713500,0.757713623046875,-0.6151195764541626,-0.8931720852851868,0.6918784976005554
1783245716897725700,0.7677255859375,-0.5711151361465454,-0.7943053841590881,0.5977408289909363
1783245716907737600,0.777737548828125,-0.5561972856521606,-0.6868743300437927,0.4776782691478729
1783245716917749800,0.787749755859375,-0.5739358067512512,-0.5811399221420288,0.34799379110336304
1783245716927761700,0.79776171875,-0.6058764457702637,-0.49927547574043274,0.21328015625476837
1783245716937773600,0.807773681640625,-0.6436032652854919,-0.4435831606388092,0.0742381140589714
1783245716947785700,0.81778564453125,-0.6905974745750427,-0.4096786379814148,-0.06691700220108032
1783245716957797600,0.827797607421875,-0.749151349067688,-0.3980691134929657,-0.20559126138687134
1783245716967809500,0.8378095703125,-0.8135114908218384,-0.3880224823951721,-0.35169917345046997
1783245716977821700,0.84782177734375,-0.8760113716125488,-0.41464611887931824,-0.4836220443248749
1783245716987833600,0.85783349609375,-0.912659227848053,-0.47823184728622437,-0.5738444328308105
1783245716997845500,0.867845458984375,-0.9193536639213562,-0.5334112048149109,-0.6063390374183655
1783245717007856600,0.877856689453125,-0.8973250389099121,-0.5512028932571411,-0.571200430393219
1783245717017868500,0.88786865234375,-0.8674781918525696,-0.5335469245910645,-0.46686097979545593
1783245717027880400,0.89788037109375,-0.8256426453590393,-0.4914616644382477,-0.30855241417884827
1783245717037892600,0.907892578125,-0.7805966138839722,-0.44190528988838196,-0.11950364708900452
1783245717047904500,0.917904541015625,-0.7348540425300598,-0.4027278423309326,0.06353291869163513
1783245717057916400,0.92791650390625,-0.7069819569587708,-0.3889414668083191,0.2175818681716919
1783245717067928600,0.937928466796875,-0.6768110990524292,-0.3937446177005768,0.4317690432071686
1783245717077940500,0.9479404296875,-0.654125988483429,-0.3243093490600586,0.5972224473953247
1783245717087952400,0.957952392578125,-0.6407257914543152,-0.2221134752035141,0.7293024063110352
1783245717097964500,0.967964599609375,-0.6334215402603149,-0.11400564759969711,0.8320394158363342
1783245717107976400,0.9779765625,-0.6596673727035522,-0.03501824289560318,0.9221134185791016
1783245717117988600,0.987988525390625,-0.724392294883728,0.026282664388418198,1.0281480550765991
1783245717128000500,0.99800048828125,-0.8240358233451843,0.08643855154514313,1.1662254333496094
1783245717138012400,1.008012451171875,-0.9391983151435852,0.13196688890457153,1.3340953588485718
1783245717148024600,1.018024658203125,-1.026229739189148,0.1452939808368683,1.4899834394454956
1783245717158036500,1.028036376953125,-1.062612771987915,0.13827015459537506,1.5849802494049072
1783245717168048400,1.03804833984375,-1.0435550212860107,0.10979505628347397,1.5965468883514404
1783245717178060500,1.048060546875,-0.971963107585907,0.07728904485702515,1.5199354887008667
1783245717188072400,1.058072509765625,-0.8607614040374756,0.10424163192510605,1.3561092615127563
1783245717198084600,1.068084716796875,-0.7189443707466125,0.1999947875738144,1.129004716873169
1783245717208096500,1.078096435546875,-0.5916018486022949,0.32100942730903625,0.8644023537635803
1783245717218108400,1.0881083984375,-0.4972479045391083,0.5146742463111877,0.5840577483177185
1783245717228120600,1.09812060546875,-0.4263167381286621,0.7403221130371094,0.3314839005470276
1783245717238132500,1.108132568359375,-0.38242092728614807,0.9076362252235413,0.14315898716449738
1783245717248144400,1.118144287109375,-0.36453622579574585,0.9853633642196655,0.04385039210319519
1783245717258156500,1.128156494140625,-0.36382755637168884,1.0081613063812256,0.04101385921239853
1783245717268168400,1.13816845703125,-0.3745039105415344,1.0206986665725708,0.12066099047660828
1783245717278180600,1.1481806640625,-0.4010164737701416,1.037121057510376,0.26108014583587646
1783245717288192500,1.158192626953125,-0.43577858805656433,1.066493272781372,0.4396441876888275
1783245717298204400,1.168204345703125,-0.4662880301475525,1.11388099193573,0.6279696226119995
1783245717308216600,1.178216552734375,-0.4705534875392914,1.1563116312026978,0.8028115630149841
1783245717318228500,1.188228515625,-0.4440438449382782,1.1810897588729858,0.9327962398529053
1783245717328240400,1.198240478515625,-0.3827407956123352,1.2031619548797607,0.9995716214179993
1783245717338252500,1.20825244140625,-0.31850481033325195,1.2295528650283813,1.002023696899414
1783245717348264400,1.218264404296875,-0.27810031175613403,1.2480058670043945,0.95021653175354
1783245717358276600,1.228276611328125,-0.24784867465496063,1.2334034442901611,0.8643783330917358
1783245717368288500,1.23828857421875,-0.2014404982328415,1.200123906135559,0.7422311305999756
1783245717378300400,1.248300537109375,-0.1293812245130539,1.1648986339569092,0.5747097730636597
1783245717388311300,1.258311279296875,-0.03194801136851311,1.1062729358673096,0.36980870366096497
1783245717398323500,1.268323486328125,0.06811467558145523,1.0020109415054321,0.159480482339859
1783245717408335400,1.27833544921875,0.1489987075328827,0.859483540058136,-0.0207916758954525
1783245717418347500,1.288347412109375,0.2123768925666809,0.6888439059257507,-0.14744654297828674
1783245717428359400,1.298359375,0.2494710236787796,0.5196967720985413,-0.20873726904392242
1783245717438371300,1.308371337890625,0.2565441131591797,0.39622998237609863,-0.22473008930683136
1783245717448383500,1.318383544921875,0.24286511540412903,0.37551769614219666,-0.2291414737701416
1783245717458395400,1.3283955078125,0.21674562990665436,0.4208524227142334,-0.23500043153762817
1783245717468407300,1.3384072265625,0.1868256777524948,0.5066612958908081,-0.2666460871696472
1783245717478419500,1.34841943359375,0.18023249506950378,0.649237871170044,-0.30676978826522827
1783245717488431400,1.358431396484375,0.21115551888942719,0.6809039115905762,-0.3602737784385681
1783245717498443500,1.368443603515625,0.257358193397522,0.6886215209960938,-0.4027908742427826
1783245717508455400,1.378455322265625,0.3279205560684204,0.6818624138832092,-0.4340988099575043
1783245717518467300,1.38846728515625,0.40779754519462585,0.6749531030654907,-0.44273144006729126
1783245717528479500,1.3984794921875,0.4811885356903076,0.6503586173057556,-0.4357410669326782
1783245717538491400,1.408491455078125,0.5299456715583801,0.5988946557044983,-0.410088449716568
1783245717548503300,1.41850341796875,0.5501461029052734,0.5404537916183472,-0.36605367064476013
1783245717558515500,1.428515380859375,0.5515525341033936,0.4545854926109314,-0.3038147985935211
1783245717568527400,1.43852734375,0.5522937178611755,0.36708542704582214,-0.23595640063285828
1783245717578539500,1.44853955078125,0.5645064115524292,0.36502814292907715,-0.19190186262130737
1783245717588551400,1.458551513671875,0.5858433246612549,0.41266152262687683,-0.16728663444519043
1783245717598563300,1.468563232421875,0.6017463803291321,0.391658216714859,-0.1577453315258026
1783245717608575500,1.478575439453125,0.6131399273872375,0.42189913988113403,-0.15913982689380646
1783245717618587400,1.48858740234375,0.6367805004119873,0.4322313964366913,-0.17157386243343353
1783245717628599300,1.498599365234375,0.6631379723548889,0.42241305112838745,-0.18668633699417114
1783245717638611500,1.508611572265625,0.6800754070281982,0.4148944020271301,-0.19564200937747955
1783245717648623400,1.518623291015625,0.6702939867973328,0.42829352617263794,-0.19340093433856964
1783245717658635300,1.52863525390625,0.6330667734146118,0.4459958076477051,-0.19177506864070892
1783245717668647400,1.5386474609375,0.5720425248146057,0.44929760694503784,-0.19146747887134552
1783245717678659300,1.548659423828125,0.49532535672187805,0.43716689944267273,-0.19160355627536774
1783245717688671500,1.55867138671875,0.42494967579841614,0.406713604927063,-0.18064433336257935
1783245717698683400,1.568683349609375,0.3739626407623291,0.3580525815486908,-0.14891782402992249
1783245717708695300,1.5786953125,0.3503272831439972,0.31370383501052856,-0.1094101071357727
1783245717718707500,1.58870751953125,0.34162381291389465,0.2831922769546509,-0.07700049877166748
1783245717728719400,1.59871923828125,0.34429627656936646,0.2585897743701935,-0.0548887774348259
1783245717738730500,1.60873046875,0.3426626920700073,0.2534237802028656,-0.05323308706283569
1783245717748742700,1.61874267578125,0.3376501798629761,0.2771300673484802,-0.0832141637802124
1783245717758754600,1.628754638671875,0.33675774931907654,0.2796246409416199,-0.1501958668231964
1783245717768766500,1.638766357421875,0.3554670810699463,0.25198864936828613,-0.22554683685302734
1783245717778778600,1.648778564453125,0.3844524025917053,0.16642341017723083,-0.2911519408226013
1783245717788790500,1.65879052734375,0.4219357371330261,0.008639569394290447,-0.33166244626045227
1783245717798802400,1.668802490234375,0.4728447198867798,-0.1562117040157318,-0.336431086063385
1783245717808814600,1.678814697265625,0.5272611975669861,-0.22808468341827393,-0.31011348962783813
1783245717818826500,1.688826416015625,0.5690304636955261,-0.16528494656085968,-0.27099353075027466
1783245717828838700,1.698838623046875,0.579241931438446,0.017100654542446136,-0.25206127762794495
1783245717838850600,1.7088505859375,0.528056263923645,0.2969996929168701,-0.2494196891784668
1783245717848862500,1.718862548828125,0.39104852080345154,0.6101853251457214,-0.24401775002479553
1783245717858874600,1.72887451171875,0.19652697443962097,0.8402723670005798,-0.2116219848394394
1783245717868886500,1.738886474609375,-0.008972734212875366,0.9526049494743347,-0.14735452830791473
1783245717878898400,1.7488984375,-0.18432404100894928,0.903201162815094,-0.05387145280838013
1783245717888910600,1.75891064453125,-0.3226296901702881,0.6595118045806885,0.05844951421022415
1783245717898922500,1.768922607421875,-0.4290299117565155,0.29575198888778687,0.15212567150592804
1783245717908934700,1.7789345703125,-0.5031428933143616,-0.05268735811114311,0.1872619390487671
1783245717918946600,1.788946533203125,-0.5583318471908569,-0.2757151126861572,0.1458820104598999
1783245717928958500,1.79895849609375,-0.603753924369812,-0.362362802028656,0.04023182764649391
1783245717938970600,1.808970703125,-0.6483059525489807,-0.39511755108833313,-0.08760922402143478
1783245717948982500,1.818982421875,-0.6855610013008118,-0.44809839129447937,-0.1972675323486328
1783245717958994400,1.828994384765625,-0.7011476755142212,-0.5326153635978699,-0.25754472613334656
1783245717969006600,1.839006591796875,-0.6763125061988831,-0.6109175086021423,-0.26994624733924866
1783245717979018500,1.8490185546875,-0.6238495707511902,-0.6656121611595154,-0.2542674243450165
1783245717989030700,1.85903076171875,-0.5792377591133118,-0.6933151483535767,-0.2196679562330246
1783245717999042600,1.86904248046875,-0.5702165365219116,-0.7085830569267273,-0.16880743205547333
1783245718009054500,1.879054443359375,-0.6118454933166504,-0.7166833877563477,-0.1126699224114418
1783245718019066600,1.889066650390625,-0.6867194771766663,-0.7049814462661743,-0.06437642872333527
1783245718029078500,1.89907861328125,-0.7843323349952698,-0.6630364060401917,-0.022677185013890266
1783245718039090700,1.909090576171875,-0.892874002456665,-0.6064224243164062,0.014159925282001495
1783245718049102600,1.9191025390625,-1.0037341117858887,-0.5724133253097534,0.05139094591140747
1783245718059114500,1.929114501953125,-1.088515043258667,-0.587615430355072,0.0817299485206604
1783245718069126700,1.939126708984375,-1.151159405708313,-0.6771541237831116,0.09198848903179169
1783245718079138600,1.949138671875,-1.1854478120803833,-0.7817865014076233,0.0744590312242508
1783245718089150500,1.959150390625,-1.1949177980422974,-0.8684582114219666,0.006500178948044777
1783245718099161600,1.96916162109375,-1.1769169569015503,-0.9235089421272278,-0.11169569939374924
1783245718109173500,1.979173583984375,-1.1400901079177856,-0.9845663905143738,-0.2728641629219055
1783245718119185400,1.989185302734375,-1.10621178150177,-1.1122021675109863,-0.46800702810287476
1783245718129197600,1.999197509765625,-1.0882391929626465,-1.2426775693893433,-0.6854351162910461
1783245718139209500,2.00920947265625,-1.0733824968338013,-1.3519052267074585,-0.9242844581604004
1783245718149221400,2.019221435546875,-1.0335696935653687,-1.4186935424804688,-1.1958445310592651
1783245718159233500,2.029233642578125,-0.9619684815406799,-1.436654806137085,-1.49321448802948
1783245718169245400,2.039245361328125,-0.8881973028182983,-1.42069673538208,-1.7820441722869873
1783245718179257600,2.049257568359375,-0.854308545589447,-1.4137699604034424,-2.0206077098846436
1783245718189269500,2.05926953125,-0.8678532838821411,-1.422147274017334,-2.1762640476226807
1783245718199281400,2.069281494140625,-0.9192959666252136,-1.402042031288147,-2.250520944595337
1783245718209293600,2.07929345703125,-1.0011118650436401,-1.326053261756897,-2.258697032928467
1783245718219305500,2.089305419921875,-1.0977627038955688,-1.1937851905822754,-2.2165496349334717
1783245718229317400,2.0993173828125,-1.2230682373046875,-0.9553043842315674,-2.152629852294922
1783245718239329500,2.10932958984375,-1.3656208515167236,-0.6334570646286011,-2.0912117958068848
1783245718249341400,2.119341552734375,-1.5108234882354736,-0.26348939538002014,-2.0570034980773926
1783245718259353600,2.129353515625,-1.610014796257019,0.16891691088676453,-2.0497665405273438
1783245718269365500,2.139365478515625,-1.596022129058838,0.5163887739181519,-2.062659740447998
1783245718279377400,2.14937744140625,-1.5729347467422485,0.9115995168685913,-2.1379435062408447
1783245718289389600,2.1593896484375,-1.576819896697998,1.3028911352157593,-2.3037595748901367
1783245718299401500,2.1694013671875,-1.5801379680633545,1.6069111824035645,-2.5023796558380127
1783245718309413400,2.179413330078125,-1.5614701509475708,1.767798900604248,-2.681114673614502
1783245718319425500,2.189425537109375,-1.4910391569137573,1.8517318964004517,-2.823315382003784
1783245718329437400,2.1994375,-1.3866678476333618,1.8048985004425049,-2.940976858139038
1783245718339449600,2.20944970703125,-1.246047019958496,1.6603130102157593,-3.039510726928711
1783245718349461500,2.21946142578125,-1.0870823860168457,1.4824295043945312,-3.1413462162017822
1783245718359473400,2.229473388671875,-0.9011205434799194,1.2864880561828613,-3.2619543075561523
1783245718369485600,2.239485595703125,-0.6849367618560791,1.0677980184555054,-3.3868515491485596
1783245718379497500,2.24949755859375,-0.4670366644859314,0.8867326378822327,-3.468827962875366
1783245718389509400,2.25950927734375,-0.28381913900375366,0.7530027627944946,-3.436880350112915
1783245718399521500,2.269521484375,-0.16556251049041748,0.71464604139328,-3.23199725151062
1783245718409533400,2.279533447265625,-0.16260570287704468,0.7209934592247009,-2.8113527297973633
1783245718419544600,2.289544677734375,-0.2792985141277313,0.6427777409553528,-2.2494263648986816
1783245718429556700,2.299556640625,-0.48302575945854187,0.45500239729881287,-1.623077630996704
1783245718439568600,2.309568603515625,-0.7283825874328613,0.22382433712482452,-1.0347131490707397
1783245718449580500,2.31958056640625,-0.934086263179779,0.02410650998353958,-0.5123482942581177
1783245718459592700,2.3295927734375,-1.026062250137329,-0.08907117694616318,-0.08602283149957657
1783245718469604600,2.3396044921875,-1.0126361846923828,-0.13687142729759216,0.22802379727363586
1783245718479616800,2.34961669921875,-0.9451178908348083,-0.05347800254821777,0.43081924319267273
1783245718489628700,2.359628662109375,-0.8688434362411499,0.22283373773097992,0.505084753036499
1783245718499640600,2.369640625,-0.794866144657135,0.5237534046173096,0.515458881855011
1783245718509652700,2.37965283203125,-0.699126660823822,0.7953713536262512,0.5108957886695862
1783245718519664600,2.38966455078125,-0.536617636680603,0.9887695908546448,0.5050711631774902
1783245718529676500,2.399676513671875,-0.2660983204841614,1.0011723041534424,0.4739280939102173
1783245718539688700,2.409688720703125,0.09882108122110367,0.8418166637420654,0.40808647871017456
1783245718549700600,2.41970068359375,0.489484041929245,0.6087375283241272,0.30306166410446167
1783245718559712800,2.429712646484375,0.8105589747428894,0.3312377631664276,0.18412625789642334
1783245718569724700,2.439724609375,0.9874060153961182,-0.009132280945777893,0.09443436563014984
1783245718579736600,2.449736572265625,0.996833860874176,-0.3558662533760071,0.05968942865729332
1783245718589748700,2.459748779296875,0.8859816193580627,-0.5888997912406921,0.06554064154624939
1783245718599760600,2.4697607421875,0.695962131023407,-0.6621953248977661,0.08533911406993866
1783245718609772500,2.4797724609375,0.46626266837120056,-0.6492233872413635,0.10571545362472534
1783245718619784700,2.48978466796875,0.23287387192249298,-0.636634111404419,0.12278711795806885
1783245718629796600,2.499796630859375,0.03916193172335625,-0.6336575150489807,0.14620669186115265
1783245718639808800,2.509808837890625,-0.083966925740242,-0.663381814956665,0.1764759123325348
1783245718649820700,2.519820556640625,-0.15922021865844727,-0.6405178904533386,0.2367883175611496
1783245718659832600,2.52983251953125,-0.2158384919166565,-0.515701949596405,0.3222294747829437
1783245718669844700,2.5398447265625,-0.2788536846637726,-0.30708104372024536,0.42144444584846497
1783245718679856600,2.549856689453125,-0.35222163796424866,-0.04106561094522476,0.49844977259635925
1783245718689868500,2.55986865234375,-0.4639626443386078,0.14797799289226532,0.4141818881034851
1783245718699880700,2.569880615234375,-0.5457156300544739,0.19057631492614746,0.1492554396390915
1783245718709892600,2.579892578125,-0.656869113445282,0.14955340325832367,-0.10435803979635239
1783245718719903500,2.589903564453125,-0.7184246182441711,0.11964903026819229,-0.40180596709251404
1783245718729915600,2.59991552734375,-0.748952329158783,0.13527092337608337,-0.6566057205200195
1783245718739927600,2.609927490234375,-0.741776704788208,0.12021101266145706,-0.8447676301002502
1783245718749939500,2.619939453125,-0.6798451542854309,0.05154326930642128,-0.9536471962928772
1783245718759951600,2.62995166015625,-0.5780900716781616,-0.04038958251476288,-1.0061428546905518
1783245718769963500,2.639963623046875,-0.4654390811920166,-0.15462958812713623,-1.004353642463684
1783245718779975700,2.6499755859375,-0.35610273480415344,-0.26418858766555786,-0.972603976726532
1783245718789987600,2.659987548828125,-0.25120294094085693,-0.36827927827835083,-0.9091405868530273
1783245718799999500,2.66999951171875,-0.14542165398597717,-0.436853289604187,-0.8131186962127686
1783245718810011600,2.68001171875,-0.03901677578687668,-0.5612971186637878,-0.687825083732605
1783245718820023600,2.6900234375,0.03602071851491928,-0.6638340950012207,-0.5247600078582764
1783245718830035500,2.700035400390625,0.07340838015079498,-0.6918259859085083,-0.32852235436439514
1783245718840047600,2.710047607421875,0.07514981925487518,-0.6753396391868591,-0.11638133227825165
1783245718850059500,2.7200595703125,0.06345771253108978,-0.6328696012496948,0.0894785150885582
1783245718860071400,2.730071533203125,0.07884492725133896,-0.5616553425788879,0.26281648874282837
1783245718870083600,2.74008349609375,0.09945601224899292,-0.43364742398262024,0.4171282649040222
1783245718880095500,2.750095458984375,0.10093966126441956,-0.2574116885662079,0.5423979759216309
1783245718890107600,2.760107666015625,0.06760413199663162,-0.08172658085823059,0.6369897127151489
1783245718900119600,2.77011962890625,-0.006563575938344002,0.05129991099238396,0.703549325466156
1783245718910131500,2.78013134765625,-0.09853293001651764,0.1396390050649643,0.7509067058563232
1783245718920143600,2.7901435546875,-0.1892250031232834,0.1930319219827652,0.773800790309906
1783245718930155500,2.800155517578125,-0.26620030403137207,0.22759371995925903,0.7662041187286377
1783245718940167400,2.81016748046875,-0.326614648103714,0.22944755852222443,0.7093648314476013
1783245718950179600,2.8201796875,-0.3813035190105438,0.20677049458026886,0.6015963554382324
1783245718960191500,2.83019140625,-0.45202961564064026,0.16634343564510345,0.4712493121623993
1783245718970203400,2.840203369140625,-0.5410723090171814,0.11704397201538086,0.3367737829685211
1783245718980215300,2.85021533203125,-0.6314514875411987,0.07523047924041748,0.2108137309551239
1783245718990227500,2.8602275390625,-0.6958087682723999,0.04478979855775833,0.07236618548631668
1783245719000239400,2.8702392578125,-0.7365854978561401,0.015456143766641617,-0.0660494789481163
1783245719010251300,2.880251220703125,-0.7568002343177795,-0.013918080367147923,-0.17910020053386688
1783245719020263400,2.890263427734375,-0.7619749903678894,-0.04975277930498123,-0.24535883963108063
1783245719030274300,2.9002744140625,-0.7493109107017517,-0.13758885860443115,-0.2604917287826538
1783245719040286200,2.9102861328125,-0.70969158411026,-0.29000237584114075,-0.223649799823761
1783245719050298400,2.92029833984375,-0.6774727702140808,-0.4433344602584839,-0.14835236966609955
1783245719060310300,2.930310302734375,-0.6565366387367249,-0.629590630531311,-0.05553162097930908
1783245719070322200,2.940322265625,-0.6420276761054993,-0.764637291431427,0.05031460151076317
1783245719080334300,2.950334228515625,-0.6710944771766663,-0.8261626958847046,0.1803964376449585
1783245719090346200,2.96034619140625,-0.7318295836448669,-0.8374431133270264,0.31801837682724
1783245719100358400,2.9703583984375,-0.8026835322380066,-0.7934485077857971,0.4486890435218811
1783245719110370300,2.980370361328125,-0.8668996095657349,-0.6425704956054688,0.5580030679702759
1783245719120382200,2.99038232421875,-0.9033628106117249,-0.3527764678001404,0.6293445825576782
1783245719130394400,3.000394287109375,-0.9283255934715271,0.08295989781618118,0.6696998476982117
1783245719140406300,3.01040625,-0.9815805554389954,0.5186711549758911,0.7015935778617859
1783245719150418200,3.020418212890625,-1.0608421564102173,0.7880102396011353,0.7534893155097961
1783245719160430300,3.030430419921875,-1.1307685375213623,0.8468474745750427,0.840242862701416
1783245719170442200,3.040442138671875,-1.1700018644332886,0.7413802742958069,0.955846905708313
1783245719180454100,3.0504541015625,-1.1851580142974854,0.5105739235877991,1.0702663660049438
1783245719190466300,3.06046630859375,-1.159615159034729,0.21360249817371368,1.1429553031921387
1783245719200478200,3.070478271484375,-1.1270204782485962,-0.029018141329288483,1.1622976064682007
1783245719210490400,3.080490478515625,-1.1141715049743652,-0.15750330686569214,1.1295193433761597
1783245719220502300,3.090502197265625,-1.1092952489852905,-0.19713672995567322,1.0436515808105469
1783245719230514200,3.10051416015625,-1.1105036735534668,-0.1531749963760376,0.9230932593345642
1783245719240526300,3.1105263671875,-1.100023865699768,-0.05142225697636604,0.7761208415031433
1783245719250538200,3.120538330078125,-1.060186505317688,0.07234562188386917,0.598159670829773
1783245719260550100,3.130550048828125,-0.986503541469574,0.21678829193115234,0.408191055059433
1783245719270562300,3.140562255859375,-0.8881168961524963,0.3057361841201782,0.23314696550369263
1783245719280574200,3.15057421875,-0.786297619342804,0.30054008960723877,0.08883506059646606
1783245719290586400,3.16058642578125,-0.6986328959465027,0.232942134141922,-0.017475340515375137
1783245719300598300,3.170598388671875,-0.623515784740448,0.13993336260318756,-0.0878903865814209
1783245719310609400,3.180609375,-0.5603007674217224,0.03193633258342743,-0.1375240832567215
1783245719320621300,3.190621337890625,-0.5116065144538879,-0.07528546452522278,-0.17063143849372864
1783245719330633500,3.200633544921875,-0.472109317779541,-0.15769033133983612,-0.19857940077781677
1783245719340645400,3.210645263671875,-0.4382733404636383,-0.2165914624929428,-0.22840601205825806
1783245719350657500,3.220657470703125,-0.4091406464576721,-0.2398737370967865,-0.25174757838249207
1783245719360669400,3.23066943359375,-0.3864859342575073,-0.2601284384727478,-0.25652581453323364
1783245719370681300,3.240681396484375,-0.37391752004623413,-0.29347142577171326,-0.2332591414451599
1783245719380693500,3.250693603515625,-0.3721342384815216,-0.32705336809158325,-0.1887872815132141
1783245719390705400,3.260705322265625,-0.3781202435493469,-0.349970281124115,-0.12264922261238098
1783245719400717300,3.27071728515625,-0.39438897371292114,-0.3601773679256439,-0.04366119205951691
1783245719410729500,3.2807294921875,-0.40882405638694763,-0.3256257176399231,0.03811442106962204
1783245719420741400,3.290741455078125,-0.4142201542854309,-0.25819048285484314,0.1073363721370697
1783245719430753500,3.30075341796875,-0.43350982666015625,-0.18413041532039642,0.17343488335609436
1783245719440765400,3.310765380859375,-0.48144832253456116,-0.13202939927577972,0.23390647768974304
1783245719450777300,3.32077734375,-0.5556740164756775,-0.0957016795873642,0.2913191020488739
1783245719460789500,3.33078955078125,-0.6413260698318481,-0.025166518986225128,0.3380914032459259
1783245719470801400,3.340801513671875,-0.71829754114151,0.08549243956804276,0.3751871585845947
1783245719480813300,3.350813232421875,-0.7779419422149658,0.17046672105789185,0.3975936770439148
1783245719490825500,3.360825439453125,-0.828680694103241,0.19474180042743683,0.4077245593070984
1783245719500837400,3.37083740234375,-0.8730284571647644,0.16220861673355103,0.4078095257282257
1783245719510849500,3.380849609375,-0.9130822420120239,0.11333219707012177,0.39769506454467773
1783245719520861400,3.390861328125,-0.9504554271697998,0.07527881860733032,0.3758576810359955
1783245719530873300,3.400873291015625,-0.981024980545044,0.09222234785556793,0.35807791352272034
1783245719540885500,3.410885498046875,-0.9970446825027466,0.17659102380275726,0.34241506457328796
1783245719550897400,3.4208974609375,-0.9847317337989807,0.3010779619216919,0.32191359996795654
1783245719560909300,3.430909423828125,-0.9489479064941406,0.42243874073028564,0.2905242443084717
1783245719570921500,3.44092138671875,-0.9034569263458252,0.5340425968170166,0.2597169876098633
1783245719580933400,3.450933349609375,-0.8524140119552612,0.6071174144744873,0.23392826318740845
1783245719590945500,3.460945556640625,-0.7948351502418518,0.6207747459411621,0.2147798091173172
1783245719600956400,3.470956298828125,-0.7268507480621338,0.56510990858078,0.20181794464588165
1783245719610968300,3.48096826171875,-0.6507593989372253,0.4613085389137268,0.19206008315086365
1783245719620980200,3.490980224609375,-0.575029194355011,0.320791095495224,0.1804353892803192
1783245719630992400,3.500992431640625,-0.49679338932037354,0.14562945067882538,0.1691277027130127
1783245719641004300,3.51100439453125,-0.41671693325042725,-0.03984932601451874,0.15767185389995575
1783245719651016400,3.521016357421875,-0.32845303416252136,-0.20526926219463348,0.14190272986888885
1783245719661028400,3.5310283203125,-0.24333786964416504,-0.35184699296951294,0.12154340744018555
1783245719671040300,3.541040283203125,-0.1722414642572403,-0.5008423328399658,0.09748711436986923
1783245719681052400,3.551052490234375,-0.11043856292963028,-0.6144934892654419,0.06052297353744507
1783245719691064300,3.561064208984375,-0.054004307836294174,-0.6487367153167725,0.0070184702053666115
1783245719701076200,3.571076171875,0.00269918330013752,-0.6070324182510376,-0.07816566526889801
1783245719711088400,3.58108837890625,0.05122697725892067,-0.4843299686908722,-0.19979189336299896
1783245719721100300,3.591100341796875,0.09004601091146469,-0.26303035020828247,-0.34503644704818726
1783245719731112400,3.601112548828125,0.12073167413473129,-0.014977261424064636,-0.491357684135437
1783245719741124400,3.611124267578125,0.14278531074523926,0.17233243584632874,-0.6011890769004822
1783245719751136300,3.62113623046875,0.16275949776172638,0.2655625641345978,-0.6527930498123169
1783245719761148400,3.6311484375,0.19004864990711212,0.2845064401626587,-0.6413553357124329
1783245719771160300,3.641160400390625,0.21758078038692474,0.23767340183258057,-0.5800274610519409
1783245719781172200,3.651172119140625,0.23512408137321472,0.09949689358472824,-0.4807668626308441
1783245719791184400,3.661184326171875,0.23008857667446136,-0.12319104373455048,-0.361564040184021
1783245719801196300,3.6711962890625,0.19482140243053436,-0.3887515962123871,-0.2360607385635376
1783245719811208400,3.68120849609375,0.14628088474273682,-0.6449875831604004,-0.10997728258371353
1783245719821220400,3.691220458984375,0.078323133289814,-0.794445276260376,0.008966680616140366
1783245719831232300,3.701232177734375,-0.03313014283776283,-0.8233913779258728,0.12671387195587158
1783245719841244400,3.711244384765625,-0.17611312866210938,-0.7780353426933289,0.22982747852802277
1783245719851256300,3.72125634765625,-0.33107641339302063,-0.6670215725898743,0.3233678340911865
1783245719861268200,3.731268310546875,-0.4775785207748413,-0.5012347102165222,0.4043889343738556
1783245719871279400,3.741279296875,-0.6088009476661682,-0.3103638291358948,0.47557228803634644
1783245719881291300,3.751291259765625,-0.7144890427589417,-0.1301669031381607,0.5427249670028687
1783245719891303400,3.761303466796875,-0.7888205647468567,0.020549945533275604,0.6079738736152649
1783245719901315300,3.7713154296875,-0.8228232860565186,0.1488807499408722,0.656828761100769
1783245719911327500,3.781327392578125,-0.8023300766944885,0.28175365924835205,0.6651151776313782
1783245719921339400,3.79133935546875,-0.7597525119781494,0.4085608720779419,0.6361160278320312
1783245719931351300,3.801351318359375,-0.7129477858543396,0.49448734521865845,0.5695978999137878
1783245719941363500,3.811363525390625,-0.6602323651313782,0.5154643058776855,0.47712311148643494
1783245719951375400,3.821375244140625,-0.5849145650863647,0.4798564612865448,0.36777254939079285
1783245719961387500,3.831387451171875,-0.4740772545337677,0.40083301067352295,0.2471548169851303
1783245719971399400,3.8413994140625,-0.33109432458877563,0.30247291922569275,0.12169607728719711
1783245719981411600,3.85141162109375,-0.16688646376132965,0.18052862584590912,-0.0026471808087080717
1783245719991423500,3.861423583984375,0.016182970255613327,0.04110446944832802,-0.12069815397262573
1783245720001435400,3.871435302734375,0.20447272062301636,-0.10505886375904083,-0.23591209948062897
1783245720011447600,3.881447509765625,0.391276091337204,-0.23782427608966827,-0.343299925327301
1783245720021459500,3.89145947265625,0.5553656816482544,-0.35258015990257263,-0.4306585192680359
1783245720031471400,3.901471435546875,0.6889877319335938,-0.45026662945747375,-0.49291354417800903
1783245720041483500,3.9114833984375,0.7797834277153015,-0.5013285279273987,-0.5319762825965881
1783245720051495400,3.921495361328125,0.833969235420227,-0.518713653087616,-0.5469183325767517
1783245720061507600,3.931507568359375,0.848991334438324,-0.5138086676597595,-0.5382902026176453
1783245720071519500,3.94151953125,0.8193764686584473,-0.49384021759033203,-0.5092396140098572
1783245720081531400,3.951531494140625,0.7417389750480652,-0.4670317769050598,-0.4621626138687134
1783245720091543600,3.96154345703125,0.6427302360534668,-0.4355570375919342,-0.3960648477077484
1783245720101555500,3.971555419921875,0.5353225469589233,-0.3809848725795746,-0.3160112798213959
1783245720111567400,3.9815673828125,0.43454137444496155,-0.30184057354927063,-0.23184871673583984
1783245720121579500,3.99157958984375,0.340853750705719,-0.22570692002773285,-0.14471648633480072
1783245720131591400,4.00159130859375,0.2485615611076355,-0.14859506487846375,-0.05627453327178955
1783245720141602300,4.011602294921875,0.16043996810913086,-0.08596470206975937,0.02573564648628235
1783245720151614500,4.021614501953125,0.0807960033416748,-0.051174283027648926,0.09547261893749237
1783245720161626400,4.03162646484375,0.023806221783161163,-0.027213025838136673,0.15785318613052368
1783245720171638300,4.04163818359375,-0.010398228652775288,-0.014675840735435486,0.20960888266563416
1783245720181650400,4.051650390625,-0.01759595423936844,-0.03415100276470184,0.2598195970058441
1783245720191662300,4.061662353515625,-0.0036661322228610516,-0.07448750734329224,0.29565930366516113
1783245720201674500,4.071674560546875,0.030369598418474197,-0.10911446064710617,0.3032684922218323
1783245720211686400,4.081686279296875,0.06940238922834396,-0.13300985097885132,0.2740267217159271
1783245720221698300,4.0916982421875,0.09485741704702377,-0.13187746703624725,0.21255801618099213
1783245720231710500,4.10171044921875,0.10176873952150345,-0.10638941079378128,0.1278878152370453
1783245720241722400,4.111722412109375,0.08305284380912781,-0.06005972996354103,0.031718943268060684
1783245720251734300,4.121734375,0.04725242406129837,-0.03551835939288139,-0.051798321306705475
1783245720261746400,4.131746337890625,0.013143457472324371,-0.05029544234275818,-0.10976894944906235
1783245720271758300,4.14175830078125,-0.01755364239215851,-0.09394143521785736,-0.1353679895401001
1783245720281770500,4.1517705078125,-0.054479170590639114,-0.14113476872444153,-0.1253659576177597
1783245720291782400,4.161782470703125,-0.11735953390598297,-0.2227894365787506,-0.08489720523357391
1783245720301794300,4.171794189453125,-0.19820590317249298,-0.3452962040901184,-0.012271737679839134
1783245720311806500,4.181806396484375,-0.29215702414512634,-0.5237396359443665,0.08326447755098343
1783245720321818400,4.191818359375,-0.3841428756713867,-0.7133862376213074,0.19258803129196167
1783245720331830300,4.201830322265625,-0.4533584713935852,-0.8390119075775146,0.2890692353248596
1783245720341842400,4.211842529296875,-0.49408966302871704,-0.8556670546531677,0.3491046130657196
1783245720351854300,4.221854248046875,-0.5191755294799805,-0.7543211579322815,0.3540799915790558
1783245720361866500,4.231866455078125,-0.5495603680610657,-0.5352873206138611,0.29726704955101013
1783245720371878400,4.24187841796875,-0.5959298014640808,-0.22836875915527344,0.20258080959320068
1783245720381890300,4.251890380859375,-0.6662697196006775,0.12012770026922226,0.08309568464756012
1783245720391902500,4.26190234375,-0.7653114199638367,0.43972471356391907,-0.01842755265533924
1783245720401914400,4.271914306640625,-0.8630397915840149,0.6188353896141052,-0.06475909799337387
1783245720411925200,4.28192529296875,-0.9182705879211426,0.6014240980148315,-0.03499830141663551
1783245720421937400,4.2919375,-0.938264012336731,0.4384312033653259,0.0449838824570179
1783245720431949300,4.30194921875,-0.915161669254303,0.16596239805221558,0.1625232845544815
1783245720441961200,4.311961181640625,-0.853004515171051,-0.1374129354953766,0.28901517391204834
1783245720451973400,4.321973388671875,-0.7649052739143372,-0.3548416495323181,0.3905303478240967
1783245720461985300,4.3319853515625,-0.6893224120140076,-0.40425100922584534,0.4343912899494171
1783245720471997200,4.3419970703125,-0.6573747992515564,-0.32996827363967896,0.4295218586921692
1783245720482009300,4.35200927734375,-0.6647213697433472,-0.1997804492712021,0.3914700746536255
1783245720492021200,4.362021240234375,-0.6944696307182312,-0.05547603219747543,0.33499523997306824
1783245720502033400,4.372033447265625,-0.7247790694236755,0.06547968089580536,0.28043636679649353
1783245720512045300,4.38204541015625,-0.7378588914871216,0.13833385705947876,0.24151106178760529
1783245720522057200,4.39205712890625,-0.7413952946662903,0.13688990473747253,0.2319476455450058
1783245720532069400,4.4020693359375,-0.7389262914657593,0.07943318784236908,0.24472756683826447
1783245720542081300,4.412081298828125,-0.7351139783859253,0.009809639304876328,0.2678999900817871
1783245720552093200,4.42209326171875,-0.732624351978302,-0.05544563755393028,0.29530781507492065
1783245720562105300,4.432105224609375,-0.7334792017936707,-0.10659777373075485,0.3208882808685303
1783245720572117200,4.4421171875,-0.7323002815246582,-0.1453229784965515,0.33226850628852844
1783245720582129400,4.45212939453125,-0.7252293229103088,-0.15134784579277039,0.32573336362838745
1783245720592141300,4.462141357421875,-0.711976945400238,-0.12114173918962479,0.29566681385040283
1783245720602153200,4.4721533203125,-0.6942850351333618,-0.0786810964345932,0.2587149143218994
1783245720612165400,4.482165283203125,-0.6713923811912537,-0.05488717183470726,0.22888819873332977
1783245720622177300,4.49217724609375,-0.6580286622047424,-0.04138654097914696,0.21397796273231506
1783245720632189200,4.502189208984375,-0.6383727788925171,-0.07512154430150986,0.2151026874780655
1783245720642201300,4.512201416015625,-0.5911741256713867,-0.12122619152069092,0.22372999787330627
1783245720652213200,4.522213134765625,-0.5312462449073792,-0.1697913408279419,0.23722414672374725
1783245720662224400,4.532224365234375,-0.479890912771225,-0.21154971420764923,0.24021513760089874
1783245720672236500,4.542236572265625,-0.45196622610092163,-0.2360435575246811,0.23168538510799408
1783245720682248400,4.55224853515625,-0.4509779214859009,-0.25603485107421875,0.21123522520065308
1783245720692260400,4.56226025390625,-0.45869705080986023,-0.2545185983181,0.18712052702903748
1783245720702272500,4.5722724609375,-0.4698580801486969,-0.2089093178510666,0.16464823484420776
1783245720712284400,4.582284423828125,-0.47710463404655457,-0.15097694098949432,0.15085545182228088
1783245720722296600,4.592296630859375,-0.48646485805511475,-0.08428554236888885,0.1526365727186203
1783245720732308500,4.60230859375,-0.5045598745346069,0.005637203808873892,0.1594078540802002
1783245720742320400,4.6123203125,-0.5227341055870056,0.10107877105474472,0.17286187410354614
1783245720752332500,4.62233251953125,-0.5447182655334473,0.16724567115306854,0.1951977163553238
1783245720762344400,4.632344482421875,-0.5725118517875671,0.20976677536964417,0.22263146936893463
1783245720772356400,4.6423564453125,-0.6003639101982117,0.23340201377868652,0.2522994875907898
1783245720782368500,4.652368408203125,-0.6213269829750061,0.23852460086345673,0.2871112525463104
1783245720792380400,4.66238037109375,-0.6364598870277405,0.2188551425933838,0.31447917222976685
1783245720802392600,4.672392578125,-0.6429822444915771,0.1759026199579239,0.33514344692230225
1783245720812404500,4.682404541015625,-0.6364414691925049,0.1197594702243805,0.34822502732276917
1783245720822416400,4.69241650390625,-0.6199354529380798,0.083513043820858,0.34988924860954285
1783245720832428500,4.702428466796875,-0.5965511798858643,0.0697915107011795,0.3391098082065582
1783245720842440400,4.7124404296875,-0.5657815933227539,0.05392492935061455,0.3135194778442383
1783245720852452400,4.722452392578125,-0.5325086116790771,0.029790520668029785,0.28832554817199707
1783245720862464500,4.732464599609375,-0.5025044083595276,-0.005066796205937862,0.26918327808380127
1783245720872476400,4.742476318359375,-0.47591888904571533,-0.024202141910791397,0.2575029134750366
1783245720882488300,4.75248828125,-0.456220805644989,-0.01682518608868122,0.24776986241340637
1783245720892500500,4.76250048828125,-0.45167627930641174,0.013829881325364113,0.23367910087108612
1783245720902512400,4.772512451171875,-0.45246484875679016,0.054522715508937836,0.20787787437438965
1783245720912523300,4.782523193359375,-0.4580613076686859,0.07961373776197433,0.17785203456878662
1783245720922535400,4.792535400390625,-0.45323407649993896,0.08836141973733902,0.1491391658782959
1783245720932547300,4.80254736328125,-0.4233589172363281,0.08414901047945023,0.12263751029968262
1783245720942559500,4.8125595703125,-0.3741610050201416,0.055687274783849716,0.09699845314025879
1783245720952571400,4.8225712890625,-0.31940269470214844,0.004885610658675432,0.07105154544115067
1783245720962583300,4.832583251953125,-0.27244848012924194,-0.07376126199960709,0.045655906200408936
1783245720972595000,4.842594970703125,-0.2444862574338913,-0.1973671317100525,0.026830043643712997
1783245720982606800,4.85260693359375,-0.23730237782001495,-0.34447136521339417,0.019048020243644714
1783245720992618800,4.86261865234375,-0.24445439875125885,-0.4867892563343048,0.012817291542887688
1783245721002631000,4.872630859375,-0.24654710292816162,-0.5723726153373718,-0.008410233072936535
1783245721012642800,4.882642822265625,-0.27365702390670776,-0.5734230279922485,-0.05051007121801376
1783245721022654700,4.89265478515625,-0.3153746426105499,-0.5032165050506592,-0.10598798096179962
1783245721032667000,4.9026669921875,-0.3551892638206482,-0.34984761476516724,-0.16900447010993958
1783245721042678800,4.9126787109375,-0.38064882159233093,-0.09839195013046265,-0.2530445158481598
1783245721052691000,4.92269091796875,-0.38793984055519104,0.25137701630592346,-0.3534978926181793
1783245721062702800,4.932702880859375,-0.3902549147605896,0.6194610595703125,-0.45490655303001404
1783245721072714800,4.94271484375,-0.40354448556900024,0.8841853141784668,-0.5212746858596802
1783245721082727000,4.952726806640625,-0.41524428129196167,0.9914710521697998,-0.5234020352363586
1783245721092738800,4.96273876953125,-0.4042292535305023,0.9521383047103882,-0.44893357157707214
1783245721102750700,4.972750732421875,-0.3797702491283417,0.817573606967926,-0.33016642928123474
1783245721112763000,4.982762939453125,-0.3556560277938843,0.5505077242851257,-0.20172110199928284
1783245721122774800,4.99277490234375,-0.3516192138195038,0.19838988780975342,-0.06900806725025177
1783245721132786700,5.00278662109375,-0.38360515236854553,-0.13148504495620728,0.05512432008981705
1783245721142798800,5.012798828125,-0.46696317195892334,-0.3766932189464569,0.16617439687252045
1783245721152810800,5.022810791015625,-0.5801430344581604,-0.540011465549469,0.26216909289360046
1783245721162822000,5.03282177734375,-0.687091052532196,-0.5856474041938782,0.33560284972190857
1783245721172833800,5.042833740234375,-0.7674022316932678,-0.511652946472168,0.3926491141319275
1783245721182846000,5.052845947265625,-0.8085403442382812,-0.40485674142837524,0.4336143732070923
1783245721192857900,5.06285791015625,-0.8175502419471741,-0.31316161155700684,0.4726460576057434
1783245721202870000,5.0728701171875,-0.8043550848960876,-0.24887794256210327,0.5002486705780029
1783245721212882000,5.0828818359375,-0.779246985912323,-0.19159722328186035,0.5000836849212646
1783245721222894000,5.09289404296875,-0.7441135048866272,-0.13919472694396973,0.4648077189922333
1783245721232906000,5.102906005859375,-0.7013018727302551,-0.11522156745195389,0.39925530552864075
1783245721242918000,5.11291796875,-0.6514613032341003,-0.12935815751552582,0.3208339810371399
1783245721252930000,5.122929931640625,-0.5986138582229614,-0.16068600118160248,0.23561160266399384
1783245721262942000,5.13294189453125,-0.5460057854652405,-0.20133435726165771,0.15364030003547668
1783245721272954000,5.1429541015625,-0.4911205768585205,-0.27474865317344666,0.08637022972106934
1783245721282966000,5.152966064453125,-0.4320652484893799,-0.38430577516555786,0.04241102933883667
1783245721292978000,5.16297802734375,-0.36889639496803284,-0.4941942095756531,0.0171394944190979
1783245721302990000,5.172989990234375,-0.3163652718067169,-0.602028489112854,0.0010681170970201492
1783245721313002000,5.183001953125,-0.2917592525482178,-0.6924567818641663,-0.012058231979608536
1783245721323014000,5.193013916015625,-0.2997409999370575,-0.7504748106002808,-0.02057528868317604
1783245721333026000,5.203026123046875,-0.32750681042671204,-0.7621943354606628,-0.031567350029945374
1783245721343038000,5.213037841796875,-0.3731408715248108,-0.7369611859321594,-0.04261733964085579
1783245721353049900,5.2230498046875,-0.43740540742874146,-0.6932992935180664,-0.04944109544157982
1783245721363062000,5.23306201171875,-0.5135728716850281,-0.6388043165206909,-0.05129891633987427
1783245721373074000,5.243073974609375,-0.6063024997711182,-0.5819374322891235,-0.03991500288248062
1783245721383086000,5.253086181640625,-0.7020913362503052,-0.5364607572555542,-0.009660427458584309
1783245721393098000,5.263097900390625,-0.7964720726013184,-0.5143297910690308,0.03395796939730644
1783245721403108900,5.27310888671875,-0.8834043145179749,-0.5133242011070251,0.0868091955780983
1783245721413121000,5.28312109375,-0.9702532887458801,-0.5338501930236816,0.13697020709514618
1783245721423133000,5.2931328125,-1.0571714639663696,-0.5730742812156677,0.19008934497833252
1783245721433144800,5.303144775390625,-1.1474153995513916,-0.6000741124153137,0.22746646404266357
1783245721443157000,5.313156982421875,-1.2392795085906982,-0.576530933380127,0.23593531548976898
1783245721453169000,5.3231689453125,-1.3280236721038818,-0.4954916834831238,0.1971159279346466
1783245721463180800,5.333180908203125,-1.4104541540145874,-0.39275678992271423,0.11867277324199677
1783245721473193000,5.34319287109375,-1.4856359958648682,-0.32183951139450073,0.023879826068878174
1783245721483204900,5.353204833984375,-1.537286400794983,-0.3143286108970642,-0.06347531825304031
1783245721493216800,5.363216796875,-1.5341315269470215,-0.35657528042793274,-0.1299479752779007
1783245721503229000,5.37322900390625,-1.4787993431091309,-0.4214562773704529,-0.16927701234817505
1783245721513240800,5.38324072265625,-1.3932260274887085,-0.5071884989738464,-0.1787303388118744
1783245721523253000,5.3932529296875,-1.3312162160873413,-0.6037968397140503,-0.158555805683136
1783245721533265000,5.403264892578125,-1.3382806777954102,-0.6346731781959534,-0.11986296623945236
1783245721543276800,5.41327685546875,-1.4319504499435425,-0.555264949798584,-0.06763304769992828
1783245721553289000,5.4232890625,-1.598502278327942,-0.4302476942539215,0.0151714738458395
1783245721563300900,5.43330078125,-1.8128917217254639,-0.3041025400161743,0.1340254247188568
1783245721573312800,5.443312744140625,-2.028787136077881,-0.1978214681148529,0.2779642641544342
1783245721583325000,5.453324951171875,-2.1904032230377197,-0.16070552170276642,0.4289260804653168
1783245721593336800,5.4633369140625,-2.255431890487671,-0.22303156554698944,0.5631397366523743
1783245721603349000,5.473348876953125,-2.225656747817993,-0.3466877341270447,0.6395210027694702
1783245721613361000,5.48336083984375,-2.1484086513519287,-0.4669336676597595,0.6259927153587341
1783245721623371800,5.493371826171875,-2.074399471282959,-0.556334912776947,0.5153109431266785
1783245721633383700,5.5033837890625,-2.01800799369812,-0.6191859245300293,0.3310825526714325
1783245721643395800,5.513395751953125,-1.9891331195831299,-0.6275162696838379,0.09988129884004593
1783245721653407700,5.52340771484375,-1.9897490739822388,-0.5721222162246704,-0.14623308181762695
1783245721663420000,5.533419921875,-2.004239320755005,-0.48773273825645447,-0.3704155683517456
1783245721673431800,5.543431884765625,-2.0120325088500977,-0.44434359669685364,-0.5260950326919556
1783245721683443700,5.553443603515625,-1.9883322715759277,-0.45369741320610046,-0.5985358953475952
1783245721693456000,5.563455810546875,-1.924458622932434,-0.5213820338249207,-0.5852474570274353
1783245721703467800,5.5734677734375,-1.8346943855285645,-0.6437793374061584,-0.49911466240882874
1783245721713479700,5.583479736328125,-1.7458792924880981,-0.7865298986434937,-0.36401212215423584
1783245721723491800,5.593491943359375,-1.678667426109314,-0.8957224488258362,-0.21328970789909363
1783245721733503700,5.603503662109375,-1.6461201906204224,-0.9461765289306641,-0.07904703170061111
1783245721743516000,5.613515869140625,-1.647552728652954,-0.9373180270195007,0.026466604322195053
1783245721753527800,5.62352783203125,-1.6624873876571655,-0.9004430174827576,0.09689208120107651
1783245721763539700,5.633539794921875,-1.6697988510131836,-0.8278719186782837,0.14591556787490845
1783245721773551900,5.6435517578125,-1.6537635326385498,-0.7296960353851318,0.18568547070026398
1783245721783563800,5.653563720703125,-1.6200660467147827,-0.6161494851112366,0.226537823677063
1783245721793575700,5.66357568359375,-1.5748212337493896,-0.4870690405368805,0.27756139636039734
1783245721803587800,5.673587890625,-1.5241801738739014,-0.366886168718338,0.3352992534637451
1783245721813599700,5.683599853515625,-1.4677772521972656,-0.3017018139362335,0.3928804397583008
1783245721823612000,5.69361181640625,-1.393694519996643,-0.29312536120414734,0.44025248289108276
1783245721833623800,5.703623779296875,-1.2939034700393677,-0.31506216526031494,0.4616329073905945
1783245721843635700,5.7136357421875,-1.1652495861053467,-0.34572288393974304,0.45328763127326965
1783245721853646800,5.723646728515625,-1.0221998691558838,-0.40782907605171204,0.42134472727775574
1783245721863659000,5.733658935546875,-0.8830022215843201,-0.4917878806591034,0.37426456809043884
1783245721873671000,5.7436708984375,-0.7598642706871033,-0.5915224552154541,0.30607879161834717
1783245721883683000,5.75368310546875,-0.668727457523346,-0.7271327376365662,0.21374458074569702
1783245721893695000,5.763695068359375,-0.6130400896072388,-0.8883602619171143,0.1235545426607132
1783245721903707000,5.773706787109375,-0.5777015686035156,-1.0469858646392822,0.04740490764379501
1783245721913719000,5.783718994140625,-0.5567551851272583,-1.1510276794433594,-0.007167762611061335
1783245721923731000,5.79373095703125,-0.5483225584030151,-1.1544612646102905,-0.04064769297838211
1783245721933742800,5.803742919921875,-0.5390576720237732,-1.051093339920044,-0.07146046310663223
1783245721943755000,5.813755126953125,-0.5313912630081177,-0.8346909880638123,-0.11181667447090149
1783245721953767000,5.823766845703125,-0.5155673027038574,-0.5545179843902588,-0.16737066209316254
1783245721963779000,5.833779052734375,-0.48036566376686096,-0.28971636295318604,-0.23057013750076294
1783245721973791000,5.843791015625,-0.4462392032146454,-0.03147287666797638,-0.26982370018959045
1783245721983803100,5.85380322265625,-0.4247344434261322,0.19603672623634338,-0.2674047648906708
1783245721993815000,5.86381494140625,-0.4080594480037689,0.3488844037055969,-0.2092316448688507
1783245722003827200,5.8738271484375,-0.38522443175315857,0.37233275175094604,-0.10251718014478683
1783245722013839000,5.883839111328125,-0.37292465567588806,0.3181169331073761,0.022718634456396103
1783245722023851000,5.89385107421875,-0.36759674549102783,0.22079305350780487,0.14402535557746887
1783245722033863200,5.90386328125,-0.3598262369632721,0.10170900821685791,0.2338418960571289
1783245722043875000,5.913875,-0.3473986089229584,-0.01445701438933611,0.27547773718833923
1783245722053887000,5.923886962890625,-0.31326913833618164,-0.0542752668261528,0.23418012261390686
1783245722063899100,5.933899169921875,-0.28997018933296204,-0.009389551356434822,0.08482818305492401
1783245722073910000,5.943909912109375,-0.31415408849716187,0.02024015411734581,-0.08500165492296219
1783245722083922000,5.953921875,-0.36694568395614624,0.08120470494031906,-0.20290538668632507
1783245722093934000,5.96393408203125,-0.41308897733688354,0.18782593309879303,-0.25760114192962646
1783245722103946000,5.973946044921875,-0.4646187424659729,0.28218573331832886,-0.41927310824394226
1783245722113958000,5.9839580078125,-0.5657699704170227,0.2943125367164612,-0.4829169809818268
1783245722123970000,5.993969970703125,-0.7713904976844788,0.4053834080696106,-0.47912701964378357
1783245722133982000,6.00398193359375,-0.951258659362793,0.4526950418949127,-0.43420082330703735
1783245722143994000,6.013994140625,-1.0484583377838135,0.40881040692329407,-0.34732770919799805
1783245722154006000,6.024006103515625,-1.0920783281326294,0.36884167790412903,-0.2271348536014557
1783245722164018000,6.034017822265625,-1.1152422428131104,0.31790685653686523,-0.06747275590896606
1783245722174030000,6.044030029296875,-1.1285436153411865,0.2440677434206009,0.09594544023275375
1783245722184042000,6.0540419921875,-1.1373096704483032,0.18602494895458221,0.2575087547302246
1783245722194054000,6.064053955078125,-1.1509723663330078,0.20192952454090118,0.4165925979614258
1783245722204066000,6.074066162109375,-1.173142433166504,0.265770822763443,0.5645180940628052
1783245722214078000,6.084077880859375,-1.1980605125427246,0.3047226667404175,0.6785998344421387
1783245722224090000,6.094090087890625,-1.2022755146026611,0.25560253858566284,0.7639831304550171
1783245722234102000,6.10410205078125,-1.1565159559249878,0.13784144818782806,0.8136897087097168
1783245722244114000,6.114114013671875,-1.077816128730774,0.015859607607126236,0.819578230381012
1783245722254126000,6.1241259765625,-0.9916221499443054,-0.07109241932630539,0.7833690643310547
1783245722264138000,6.134137939453125,-0.9262793660163879,-0.11007524281740189,0.7252160310745239
1783245722274150000,6.14414990234375,-0.8973089456558228,-0.1294371336698532,0.6914458274841309
1783245722284162000,6.154162109375,-0.9001625180244446,-0.14171163737773895,0.7188595533370972
1783245722294173000,6.1641728515625,-0.9113611578941345,-0.13258449733257294,0.8165180087089539
1783245722304184800,6.174184814453125,-0.8964408040046692,-0.10626155138015747,0.9315361976623535
1783245722314197000,6.184197021484375,-0.8795026540756226,-0.13064239919185638,0.9816920757293701
1783245722324209000,6.194208984375,-0.8749560713768005,-0.17253445088863373,0.9518375396728516
1783245722334220800,6.204220703125,-0.8629447221755981,-0.1556691825389862,0.8476916551589966
1783245722344233000,6.21423291015625,-0.8270825743675232,-0.0353265255689621,0.6616578698158264
1783245722354244900,6.224244873046875,-0.7956948280334473,0.07860146462917328,0.4253101348876953
1783245722364257000,6.234257080078125,-0.7742238640785217,0.08914518356323242,0.1965283453464508
1783245722374269000,6.24426904296875,-0.7549260854721069,-0.00445964140817523,0.0013716216199100018
1783245722384280800,6.25428076171875,-0.7330649495124817,-0.16580697894096375,-0.14428651332855225
1783245722394293000,6.26429296875,-0.7215255498886108,-0.35800760984420776,-0.2357388287782669
1783245722404305000,6.274304931640625,-0.7366238236427307,-0.5304845571517944,-0.28554874658584595
1783245722414316800,6.28431689453125,-0.778205931186676,-0.6544268727302551,-0.28450512886047363
1783245722424329000,6.294328857421875,-0.822974443435669,-0.6883561015129089,-0.2324802577495575
1783245722434340900,6.3043408203125,-0.8341069221496582,-0.5853728652000427,-0.15724416077136993
1783245722444353000,6.31435302734375,-0.8040278553962708,-0.3535170257091522,-0.09869828820228577
1783245722454365000,6.324364990234375,-0.7550615668296814,-0.05556042119860649,-0.07048434019088745
1783245722464376800,6.334376953125,-0.7193573713302612,0.2490396797657013,-0.0691293254494667
1783245722474389000,6.344388916015625,-0.7080109715461731,0.48880866169929504,-0.07893398404121399
1783245722484401000,6.35440087890625,-0.7028577923774719,0.6038659811019897,-0.09745440632104874
1783245722494412800,6.364412841796875,-0.7080261707305908,0.5484769940376282,-0.09719399362802505
1783245722504424200,6.374424072265625,-0.7131546139717102,0.35766518115997314,-0.06530983746051788
1783245722514436000,6.38443603515625,-0.7040647864341736,0.12409251928329468,-0.018486641347408295
1783245722524448000,6.394447998046875,-0.6618262529373169,-0.09199050813913345,0.035790447145700455
1783245722534460200,6.404460205078125,-0.5923247933387756,-0.25477704405784607,0.06804047524929047
1783245722544472000,6.41447216796875,-0.5251415371894836,-0.35490790009498596,0.07562115788459778
1783245722554484000,6.42448388671875,-0.4805285930633545,-0.391966313123703,0.06174949184060097
1783245722564496100,6.43449609375,-0.4471631944179535,-0.3668343126773834,0.03600231930613518
1783245722574508000,6.444508056640625,-0.4262256920337677,-0.3010658025741577,0.007473153993487358
1783245722584520200,6.454520263671875,-0.41005709767341614,-0.23704314231872559,-0.013544246554374695
1783245722594532000,6.464531982421875,-0.4082954227924347,-0.1827859729528427,-0.006300158798694611
1783245722604544000,6.4745439453125,-0.42701345682144165,-0.14437706768512726,0.042359791696071625
1783245722614556200,6.48455615234375,-0.466543048620224,-0.12421093881130219,0.11518917977809906
1783245722624568000,6.494568115234375,-0.5005339980125427,-0.10291630774736404,0.1814126819372177
1783245722634580000,6.504580078125,-0.5177211761474609,-0.0911785140633583,0.2136334776878357
1783245722644592000,6.514592041015625,-0.5131176114082336,-0.0979597195982933,0.22570344805717468
1783245722654604000,6.52460400390625,-0.487130343914032,-0.10875639319419861,0.22287382185459137
1783245722664616200,6.5346162109375,-0.44617894291877747,-0.10144361853599548,0.20450520515441895
1783245722674628000,6.544628173828125,-0.4022301137447357,-0.08863266557455063,0.16577407717704773
1783245722684640000,6.554639892578125,-0.355177104473114,-0.08137288689613342,0.11268769204616547
1783245722694652200,6.564652099609375,-0.2959931194782257,-0.07031060755252838,0.06075475364923477
1783245722704664000,6.5746640625,-0.22638368606567383,-0.06867489218711853,0.017443496733903885
1783245722714675000,6.584675048828125,-0.16285163164138794,-0.08095841854810715,-0.012983519583940506
1783245722724687000,6.59468701171875,-0.11605934798717499,-0.0883561447262764,-0.04018238186836243
1783245722734699000,6.604698974609375,-0.08219452947378159,-0.0834801197052002,-0.07481899857521057
1783245722744711000,6.6147109375,-0.05300042778253555,-0.07387463003396988,-0.1144108846783638
1783245722754723000,6.62472314453125,-0.02783040888607502,-0.05105240270495415,-0.15419867634773254
1783245722764735000,6.63473486328125,-0.0017466109711676836,-0.017977803945541382,-0.18839766085147858
1783245722774747000,6.644746826171875,0.03557157889008522,0.005689751356840134,-0.2094450742006302
1783245722784759000,6.654759033203125,0.08686672896146774,-0.0026360892225056887,-0.2213834822177887
1783245722794771000,6.66477099609375,0.14842616021633148,-0.0365556962788105,-0.23200993239879608
1783245722804783000,6.674783203125,0.20533524453639984,-0.08694083988666534,-0.2437017410993576
1783245722814795000,6.684794921875,0.24748767912387848,-0.1448533684015274,-0.25487133860588074
1783245722824807000,6.694806884765625,0.2627292275428772,-0.19678820669651031,-0.2542896866798401
1783245722834819000,6.704819091796875,0.25332868099212646,-0.2346031367778778,-0.2435837835073471
1783245722844831000,6.7148310546875,0.2355044186115265,-0.26034924387931824,-0.2273334413766861
1783245722854843000,6.7248427734375,0.2121240645647049,-0.27258291840553284,-0.20348915457725525
1783245722864855000,6.73485498046875,0.18474596738815308,-0.28176790475845337,-0.16284479200839996
1783245722874867000,6.744866943359375,0.1628555953502655,-0.25814172625541687,-0.11316566914319992
1783245722884879000,6.754879150390625,0.14686624705791473,-0.20935393869876862,-0.06165480613708496
1783245722894891000,6.76489111328125,0.14483313262462616,-0.16667887568473816,-0.01297555398195982
1783245722904903000,6.77490283203125,0.15352515876293182,-0.14033807814121246,0.011184643022716045
1783245722914913800,6.784913818359375,0.16272252798080444,-0.12326809018850327,0.006860094144940376
1783245722924926000,6.794926025390625,0.16419366002082825,-0.12813688814640045,-0.01983356848359108
1783245722934937900,6.804937744140625,0.17199644446372986,-0.14188945293426514,-0.0540570504963398
1783245722944950000,6.814949951171875,0.18143922090530396,-0.1441829800605774,-0.09804102033376694
1783245722954962000,6.8249619140625,0.19365902245044708,-0.1456887573003769,-0.14447863399982452
1783245722964973800,6.834973876953125,0.21682612597942352,-0.14913861453533173,-0.17699770629405975
1783245722974986200,6.844986328125,0.24912062287330627,-0.14761747419834137,-0.1932828426361084
1783245722984998100,6.854998046875,0.28175875544548035,-0.15283939242362976,-0.18674424290657043
1783245722995010000,6.865010009765625,0.29699060320854187,-0.16601237654685974,-0.16006657481193542
1783245723005022200,6.875022216796875,0.2906155288219452,-0.18265552818775177,-0.12352187931537628
1783245723015034000,6.8850341796875,0.26594021916389465,-0.21287284791469574,-0.07879720628261566
1783245723025046300,6.89504638671875,0.23892907798290253,-0.2548927366733551,-0.030682140961289406
1783245723035058200,6.90505810546875,0.22872740030288696,-0.33458152413368225,0.02229851670563221
1783245723045070000,6.915070068359375,0.2298901230096817,-0.47269412875175476,0.07971441000699997
1783245723055082200,6.925082275390625,0.23306448757648468,-0.6095640063285828,0.12858670949935913
1783245723065094100,6.93509423828125,0.21382474899291992,-0.6785204410552979,0.1552596092224121
1783245723075106000,6.94510595703125,0.16800807416439056,-0.6436119079589844,0.14377708733081818
1783245723085118200,6.9551181640625,0.11974333226680756,-0.44837337732315063,0.06283218413591385
1783245723095130000,6.965130126953125,0.08990791440010071,-0.14081276953220367,-0.07523735612630844
1783245723105142300,6.975142333984375,0.08389183133840561,0.16485872864723206,-0.21958787739276886
1783245723115153400,6.9851533203125,0.10684595257043839,0.36912161111831665,-0.31344732642173767
1783245723125165300,6.995165283203125,0.15780340135097504,0.42802515625953674,-0.3432886004447937
1783245723135177200,7.00517724609375,0.2229653298854828,0.3172167241573334,-0.321758896112442
1783245723145189400,7.015189453125,0.2673109471797943,0.06518872082233429,-0.26220688223838806
1783245723155201300,7.025201171875,0.2838023006916046,-0.25061744451522827,-0.18981312215328217
1783245723165213400,7.03521337890625,0.2793859839439392,-0.5151644349098206,-0.12395154684782028
1783245723175225300,7.045225341796875,0.27644410729408264,-0.6179658770561218,-0.09997691959142685
1783245723185237200,7.0552373046875,0.2713329792022705,-0.5849248170852661,-0.11201333999633789
1783245723195249400,7.06524951171875,0.2659967243671417,-0.4776526689529419,-0.13572147488594055
1783245723205261300,7.07526123046875,0.2527965307235718,-0.338296115398407,-0.14438872039318085
1783245723215273200,7.085273193359375,0.21309176087379456,-0.21426907181739807,-0.11994639784097672
1783245723225285400,7.095285400390625,0.14405331015586853,-0.15332475304603577,-0.06563922017812729
1783245723235297300,7.10529736328125,0.06825406849384308,-0.15927274525165558,0.026855627074837685
1783245723245309400,7.115309326171875,-0.0015937204007059336,-0.1999615877866745,0.14717406034469604
1783245723255321300,7.1253212890625,-0.05849738419055939,-0.22471970319747925,0.27293357253074646
1783245723265333200,7.135333251953125,-0.10078838467597961,-0.20090359449386597,0.3804384768009186
1783245723275345400,7.145345458984375,-0.11769025772809982,-0.12853653728961945,0.4509996473789215
1783245723285357300,7.155357421875,-0.10985950380563736,-0.02266869507730007,0.4714135527610779
1783245723295369200,7.165369140625,-0.08108063787221909,0.08600132167339325,0.44722044467926025
1783245723305380400,7.17538037109375,-0.04074067249894142,0.16991300880908966,0.38496318459510803
1783245723315392300,7.185392333984375,0.0042080748826265335,0.2077512890100479,0.29046356678009033
1783245723325404200,7.195404052734375,0.04577549174427986,0.21151486039161682,0.17461954057216644
1783245723335416300,7.205416259765625,0.07773183286190033,0.19636979699134827,0.05592888593673706
1783245723345428200,7.21542822265625,0.10727560520172119,0.14373160898685455,-0.04414072260260582
1783245723355440000,7.225440185546875,0.13426315784454346,0.06249653175473213,-0.1077030673623085
1783245723365452300,7.235452392578125,0.16413584351539612,0.0026723463088274,-0.1331663578748703
1783245723375464200,7.245464111328125,0.2048613280057907,-0.048698652535676956,-0.1244349330663681
1783245723385476400,7.255476318359375,0.2574174702167511,-0.09632236510515213,-0.08689714968204498
1783245723395488300,7.26548828125,0.31100037693977356,-0.13840655982494354,-0.03827157989144325
1783245723405500200,7.275500244140625,0.3521467447280884,-0.1692158728837967,-0.006602602545171976
1783245723415512300,7.28551220703125,0.36349430680274963,-0.22457337379455566,-0.004497301299124956
1783245723425524200,7.295524169921875,0.3342221677303314,-0.29490000009536743,-0.014603731222450733
1783245723435536100,7.3055361328125,0.3009013831615448,-0.34355270862579346,-0.030516672879457474
1783245723445548300,7.31554833984375,0.2686513066291809,-0.3590847849845886,-0.06518170982599258
1783245723455560200,7.325560302734375,0.22753505408763885,-0.3664705157279968,-0.11283498257398605
1783245723465572400,7.335572265625,0.20663109421730042,-0.3204508423805237,-0.057724855840206146
1783245723475584300,7.345584228515625,0.2515428960323334,-0.10814950615167618,-0.022780990228056908
1783245723485596200,7.35559619140625,0.2825881540775299,0.09317082166671753,-0.088528573513031
1783245723495608300,7.3656083984375,0.25607046484947205,0.1764625608921051,-0.18890154361724854
1783245723505619200,7.375619140625,0.2066483050584793,0.20550751686096191,-0.30807188153266907
1783245723515631000,7.385631103515625,0.189782053232193,0.1581457406282425,-0.38477545976638794
1783245723525643300,7.395643310546875,0.20595090091228485,0.07447134703397751,-0.416410893201828
1783245723535655200,7.4056552734375,0.2358735203742981,0.01141079980880022,-0.36662349104881287
1783245723545667000,7.4156669921875,0.29098978638648987,-0.0175689198076725,-0.25433820486068726
